SpeakerImage1,SpeakerImage2,SpeakerImage3,SpeakerImage4,TrainingSound,EnglishCorrectAnswer,PersianCorrectAnswer,SpeakerPhoto1,SpeakerPhoto2,SpeakerPhoto3,SpeakerPhoto4,TestingSound,EnglishCorrectResponse,PersianCorrectResponse,repeated_TrainingLoopGroup3.thisRepN,repeated_TrainingLoopGroup3.thisTrialN,repeated_TrainingLoopGroup3.thisN,repeated_TrainingLoopGroup3.thisIndex,TrainingLoopGroup3.thisRepN,TrainingLoopGroup3.thisTrialN,TrainingLoopGroup3.thisN,TrainingLoopGroup3.thisIndex,testPhase3Loop.thisRepN,testPhase3Loop.thisTrialN,testPhase3Loop.thisN,testPhase3Loop.thisIndex,thisRow.t,notes,trial.started,trial.stopped,GroupSelection.started,GroupInstructions.started,key_resp.started,GroupSelection.stopped,key_resp.keys,key_resp.rt,key_resp.duration,HeadphoneCheck.started,text_13.started,mouse.started,checkbox.started,HeadphoneCheck.stopped,mouse.x,mouse.y,mouse.leftButton,mouse.midButton,mouse.rightButton,mouse.time,mouse.clicked_name,Headphone_Used,Introduction.started,text_2.started,text_2.stopped,image.started,sound_7.started,text_4.started,image.stopped,text_4.stopped,image_7.started,sound_9.started,text_5.started,image_7.stopped,text_5.stopped,image_8.started,sound_11.started,text_6.started,image_8.stopped,text_6.stopped,image_9.started,sound_13.started,text_7.started,image_9.stopped,text_7.stopped,Introduction.stopped,Instructions.started,InstructionText.started,InstructionText.stopped,text_14.started,text_14.stopped,Instructions.stopped,Countdown.started,number1.started,number1.stopped,number2.started,number2.stopped,number3.started,number3.stopped,start.started,start.stopped,silence.started,silence.stopped,Countdown.stopped,InitializeExperiment.started,InitializeExperiment.stopped,TrainingGroup3.started,SpeakerPicture3.started,image_15.started,image_16.started,image_17.started,Sound3.started,Instruction3.started,Response3.started,SessionNumberText.started,TrainingGroup3.stopped,feedbackText,correct_responses_group3,total_trials_group3,Response3.keys,Response3.rt,Response3.duration,FeedbackRoutine3.started,FeedbackText3.started,FeedbackRoutine3.stopped,Break.started,Break.stopped,mouse3.x,mouse3.y,mouse3.leftButton,mouse3.midButton,mouse3.rightButton,mouse3.time,mouse3.clicked_name,Proceed_Break,FeedbackText3.stopped,break_message.started,mouse3.started,checkbox3.started,text_component.started,CheckAccuracy3.started,accuracy_group3,proceed_to_test,CheckAccuracy3.stopped,WelcomeTest.started,text_12.started,text_12.stopped,WelcomeTest.stopped,TestPhase3.started,test3_image1.started,test3_image2.started,test3_image3.started,test3_image4.started,test3_sound.started,text_10.started,test3_response_keyboard.started,TestPhase3.stopped,test3_response_keyboard.keys,test3_response_keyboard.rt,test3_response_keyboard.duration,test3_response,test3_image_file1,test3_image_file2,test3_image_file3,test3_image_file4,test3_sound_file,english_correct_answer,persian_correct_answer,finish.started,text_11.started,text_11.stopped,finish.stopped,participant,session,date,expName,psychopyVersion,frameRate,expStart,
,,,,,,,,,,,,,,,,,,,,,,,,,,,,0.008879249999154126,0.009185291000903817,,,,,,,,,,,,,,,,,,,,,,,,,,,,,,,,,,,,,,,,,,,,,,,,,,,,,,,,,,,,,,,,,,,,,,,,,,,,,,,,,,,,,,,,,,,,,,,,,,,,,,,,,,,,,,,,,,,,,,,,,,,,,,,,,,,103818,001,2024-08-04_15h14.08.018,5-32 ready-Group3 English Trained,2024.1.5,None,2024-08-04 15h14.13.881906 +0900,
,,,,,,,,,,,,,,,,,,,,,,,,,,,,,,0.00920066600156133,0.013376416001847247,0.013376416001847247,2.0547967909988074,3,2.0016408749979746,None,,,,,,,,,,,,,,,,,,,,,,,,,,,,,,,,,,,,,,,,,,,,,,,,,,,,,,,,,,,,,,,,,,,,,,,,,,,,,,,,,,,,,,,,,,,,,,,,,,,,,,,,,,,,,,,,,,,,,,,,,,,,103818,001,2024-08-04_15h14.08.018,5-32 ready-Group3 English Trained,2024.1.5,None,2024-08-04 15h14.13.881906 +0900,
,,,,,,,,,,,,,,,,,,,,,,,,,,,,,,,,,,,,,2.0548259999995935,2.065535958001419,0.0001759999977366533,2.065535958001419,3.8895011249987874,[-0.025458248472505093],[-0.17209775967413443],[1],[0],[0],[1.8339427499995509],['checkbox'],True,,,,,,,,,,,,,,,,,,,,,,,,,,,,,,,,,,,,,,,,,,,,,,,,,,,,,,,,,,,,,,,,,,,,,,,,,,,,,,,,,,,,,,,,,,,,,,,,,,,,,,,,,,,,,,,103818,001,2024-08-04_15h14.08.018,5-32 ready-Group3 English Trained,2024.1.5,None,2024-08-04 15h14.13.881906 +0900,
,,,,,,,,,,,,,,,,,,,,,,,,,,,,,,,,,,,,,,,,,,,,,,,,,,3.8896130829998583,3.921522458000254,8.920774999998685,10.8835874159995,10.89181845766531,10.8835874159995,15.869431040999189,15.869431040999189,18.89241516599941,18.900526832665733,18.89241516599941,23.889241541000956,23.889241541000956,26.883933290999266,26.893227291668396,26.883933290999266,31.878926375000447,31.878926375000447,34.88144649999958,34.89265979166545,34.88144649999958,39.86958587499976,39.86958587499976,39.86745566600075,,,,,,,,,,,,,,,,,,,,,,,,,,,,,,,,,,,,,,,,,,,,,,,,,,,,,,,,,,,,,,,,,,,,,,,,,,,,,,,,,,,,,,,103818,001,2024-08-04_15h14.08.018,5-32 ready-Group3 English Trained,2024.1.5,None,2024-08-04 15h14.13.881906 +0900,
,,,,,,,,,,,,,,,,,,,,,,,,,,,,,,,,,,,,,,,,,,,,,,,,,,,,,,,,,,,,,,,,,,,,,,,,,,39.867485375001706,39.888621416001115,49.89241666599992,49.89241666599992,69.88706208300209,69.8842330410007,,,,,,,,,,,,,,,,,,,,,,,,,,,,,,,,,,,,,,,,,,,,,,,,,,,,,,,,,,,,,,,,,,,,,,,,,,,,,,,,,103818,001,2024-08-04_15h14.08.018,5-32 ready-Group3 English Trained,2024.1.5,None,2024-08-04 15h14.13.881906 +0900,
,,,,,,,,,,,,,,,,,,,,,,,,,,,,,,,,,,,,,,,,,,,,,,,,,,,,,,,,,,,,,,,,,,,,,,,,,,,,,,,,69.8842470410018,69.88706208300209,70.87463837500036,71.38573175000056,72.38147308300177,72.89440300000206,73.88575625000158,74.38330087500071,76.37144729099964,76.3905917910015,78.46522416600055,78.3866052500016,,,,,,,,,,,,,,,,,,,,,,,,,,,,,,,,,,,,,,,,,,,,,,,,,,,,,,,,,,,,,,,,,,,,,103818,001,2024-08-04_15h14.08.018,5-32 ready-Group3 English Trained,2024.1.5,None,2024-08-04 15h14.13.881906 +0900,
,,,,,,,,,,,,,,,,,,,,,,,,,,,,,,,,,,,,,,,,,,,,,,,,,,,,,,,,,,,,,,,,,,,,,,,,,,,,,,,,,,,,,,,,,,,,78.38665412499904,78.38699820799957,,,,,,,,,,,,,,,,,,,,,,,,,,,,,,,,,,,,,,,,,,,,,,,,,,,,,,,,,,,,,,,,,,,103818,001,2024-08-04_15h14.08.018,5-32 ready-Group3 English Trained,2024.1.5,None,2024-08-04 15h14.13.881906 +0900,
Images/Speaker1.jpg,Images/Speaker2.jpg,Images/Speaker3.jpg,Images/Speaker4.jpg,Audio/Speaker2_En/P2-4-En.wav,Speaker2,گوینده۲,,,,,,,,0,0,0,58,0,0,0,23,,,,,78.46522416600055,,,,,,,,,,,,,,,,,,,,,,,,,,,,,,,,,,,,,,,,,,,,,,,,,,,,,,,,,,,,,,,,,,,,78.44016987500072,78.46522416600055,78.46522416600055,78.46522416600055,78.46522416600055,78.468900999332,78.46522416600055,78.46522416600055,78.46522416600055,81.44089387500208,Incorrect! The correct answer is Speaker2.,0,1,1,2.967053666998254,None,81.44520824999927,81.45666066600097,83.45041758300067,83.4504476660004,83.45078479099902,[],[],[],[],[],[],[],False,,,,,,,,,,,,,,,,,,,,,,,,,,,,,,,,,,,,,,103818,001,2024-08-04_15h14.08.018,5-32 ready-Group3 English Trained,2024.1.5,None,2024-08-04 15h14.13.881906 +0900,
Images/Speaker1.jpg,Images/Speaker2.jpg,Images/Speaker3.jpg,Images/Speaker4.jpg,Audio/Speaker1_En/P1-18-En.wav,Speaker1,گوینده ۱,,,,,,,,0,0,0,58,0,1,1,17,,,,,83.47053400000004,,,,,,,,,,,,,,,,,,,,,,,,,,,,,,,,,,,,,,,,,,,,,,,,,,,,,,,,,,,,,,,,,,,,83.45302154100136,83.47053400000004,83.47053400000004,83.47053400000004,83.47053400000004,83.46693933266603,83.47053400000004,83.47053400000004,83.47053400000004,83.73917962500127,Correct!,1,1,1,0.2592567079991568,None,83.7434498750008,83.76063024999894,85.74363141600043,85.74365170799865,85.7437664579993,[],[],[],[],[],[],[],False,,,,,,,,,,,,,,,,,,,,,,,,,,,,,,,,,,,,,,103818,001,2024-08-04_15h14.08.018,5-32 ready-Group3 English Trained,2024.1.5,None,2024-08-04 15h14.13.881906 +0900,
Images/Speaker1.jpg,Images/Speaker2.jpg,Images/Speaker3.jpg,Images/Speaker4.jpg,Audio/Speaker1_En/P1-5-En.wav,Speaker1,گوینده ۱,,,,,,,,0,0,0,58,0,2,2,4,,,,,85.76136337500066,,,,,,,,,,,,,,,,,,,,,,,,,,,,,,,,,,,,,,,,,,,,,,,,,,,,,,,,,,,,,,,,,,,,85.74423108300107,85.76136337500066,85.76136337500066,85.76136337500066,85.76136337500066,85.76023308266691,85.76136337500066,85.76136337500066,85.76136337500066,85.84246666599938,Correct!,1,1,1,0.07409691700013354,None,85.84656316600012,85.85073291600202,87.84402704099921,87.8440636660016,87.84440591599923,[],[],[],[],[],[],[],False,87.86393008300001,,,,,,,,,,,,,,,,,,,,,,,,,,,,,,,,,,,,,103818,001,2024-08-04_15h14.08.018,5-32 ready-Group3 English Trained,2024.1.5,None,2024-08-04 15h14.13.881906 +0900,
Images/Speaker1.jpg,Images/Speaker2.jpg,Images/Speaker3.jpg,Images/Speaker4.jpg,Audio/Speaker4_En/P4-6-En.wav,Speaker4,گوینده۴,,,,,,,,0,0,0,58,0,3,3,65,,,,,87.86393008300001,,,,,,,,,,,,,,,,,,,,,,,,,,,,,,,,,,,,,,,,,,,,,,,,,,,,,,,,,,,,,,,,,,,,87.84542249999868,87.86393008300001,87.86393008300001,87.86393008300001,87.86393008300001,87.85967908266709,87.86393008300001,87.86393008300001,87.86393008300001,88.00695474999884,Incorrect! The correct answer is Speaker4.,0,1,1,0.1344510410017392,None,88.01091633300166,88.0200775830017,90.01106887499918,90.01110200000039,90.01141949999874,[],[],[],[],[],[],[],False,,,,,,,,,,,,,,,,,,,,,,,,,,,,,,,,,,,,,,103818,001,2024-08-04_15h14.08.018,5-32 ready-Group3 English Trained,2024.1.5,None,2024-08-04 15h14.13.881906 +0900,
Images/Speaker1.jpg,Images/Speaker2.jpg,Images/Speaker3.jpg,Images/Speaker4.jpg,Audio/Speaker2_En/P2-20-En.wav,Speaker2,گوینده۲,,,,,,,,0,0,0,58,0,4,4,39,,,,,90.03212291599993,,,,,,,,,,,,,,,,,,,,,,,,,,,,,,,,,,,,,,,,,,,,,,,,,,,,,,,,,,,,,,,,,,,,90.01284212500104,90.03212291599993,90.03212291599993,90.03212291599993,90.03212291599993,90.02757654166659,90.03212291599993,90.03212291599993,90.03212291599993,90.18982220800171,Incorrect! The correct answer is Speaker2.,0,1,1,0.15617345799910254,None,90.19376349999948,90.20432645799883,92.19268404100148,92.19269266600168,92.19278341600148,[],[],[],[],[],[],[],False,92.2107251660018,,,,,,,,,,,,,,,,,,,,,,,,,,,,,,,,,,,,,103818,001,2024-08-04_15h14.08.018,5-32 ready-Group3 English Trained,2024.1.5,None,2024-08-04 15h14.13.881906 +0900,
Images/Speaker1.jpg,Images/Speaker2.jpg,Images/Speaker3.jpg,Images/Speaker4.jpg,Audio/Speaker2_En/P2-1-En.wav,Speaker2,گوینده۲,,,,,,,,0,0,0,58,0,5,5,20,,,,,92.2107251660018,,,,,,,,,,,,,,,,,,,,,,,,,,,,,,,,,,,,,,,,,,,,,,,,,,,,,,,,,,,,,,,,,,,,92.19319758300117,92.2107251660018,92.2107251660018,92.2107251660018,92.2107251660018,92.2091206246662,92.2107251660018,92.2107251660018,92.2107251660018,92.53129979100049,Incorrect! The correct answer is Speaker2.,0,1,1,0.3184554590006883,None,92.53535337499852,92.54132591600137,94.53098904099897,94.53099862499948,94.53109975000189,[],[],[],[],[],[],[],False,94.54953929100157,,,,,,,,,,,,,,,,,,,,,,,,,,,,,,,,,,,,,103818,001,2024-08-04_15h14.08.018,5-32 ready-Group3 English Trained,2024.1.5,None,2024-08-04 15h14.13.881906 +0900,
Images/Speaker1.jpg,Images/Speaker2.jpg,Images/Speaker3.jpg,Images/Speaker4.jpg,Audio/Speaker4_En/P4-17-En.wav,Speaker4,گوینده۴,,,,,,,,0,0,0,58,0,6,6,76,,,,,94.54953929100157,,,,,,,,,,,,,,,,,,,,,,,,,,,,,,,,,,,,,,,,,,,,,,,,,,,,,,,,,,,,,,,,,,,,94.53151916600109,94.54953929100157,94.54953929100157,94.54953929100157,94.54953929100157,94.54744549966587,94.54953929100157,94.54953929100157,94.54953929100157,94.8386634999988,Incorrect! The correct answer is Speaker4.,0,1,1,0.28691458300090744,None,94.8428629580012,94.85463429100128,96.83913191600004,96.83914658299909,96.83927079099885,[],[],[],[],[],[],[],False,96.85738254099851,,,,,,,,,,,,,,,,,,,,,,,,,,,,,,,,,,,,,103818,001,2024-08-04_15h14.08.018,5-32 ready-Group3 English Trained,2024.1.5,None,2024-08-04 15h14.13.881906 +0900,
Images/Speaker1.jpg,Images/Speaker2.jpg,Images/Speaker3.jpg,Images/Speaker4.jpg,Audio/Speaker3_En/P3-1-En.wav,Speaker3,گوینده۳,,,,,,,,0,0,0,58,0,7,7,40,,,,,96.85738254099851,,,,,,,,,,,,,,,,,,,,,,,,,,,,,,,,,,,,,,,,,,,,,,,,,,,,,,,,,,,,,,,,,,,,96.83969466599956,96.85738254099851,96.85738254099851,96.85738254099851,96.85738254099851,96.85558983266698,96.85738254099851,96.85738254099851,96.85738254099851,97.06385025000054,Incorrect! The correct answer is Speaker3.,0,1,1,0.19792504199722316,None,97.0675705829999,97.0767635000011,99.07098595800198,99.07102104099977,99.07133366600101,[],[],[],[],[],[],[],False,,,,,,,,,,,,,,,,,,,,,,,,,,,,,,,,,,,,,,103818,001,2024-08-04_15h14.08.018,5-32 ready-Group3 English Trained,2024.1.5,None,2024-08-04 15h14.13.881906 +0900,
Images/Speaker1.jpg,Images/Speaker2.jpg,Images/Speaker3.jpg,Images/Speaker4.jpg,Audio/Speaker1_En/P1-9-En.wav,Speaker1,گوینده ۱,,,,,,,,0,0,0,58,0,8,8,8,,,,,99.09204166600102,,,,,,,,,,,,,,,,,,,,,,,,,,,,,,,,,,,,,,,,,,,,,,,,,,,,,,,,,,,,,,,,,,,,99.0726915410014,99.09204166600102,99.09204166600102,99.09204166600102,99.09204166600102,99.08748508266605,99.09204166600102,99.09204166600102,99.09204166600102,99.580271791001,Correct!,1,1,1,0.4866278749977937,None,99.58415891600089,99.59489887499876,101.57864866599994,101.57865674999994,101.57876266599851,[],[],[],[],[],[],[],False,101.59622333299922,,,,,,,,,,,,,,,,,,,,,,,,,,,,,,,,,,,,,103818,001,2024-08-04_15h14.08.018,5-32 ready-Group3 English Trained,2024.1.5,None,2024-08-04 15h14.13.881906 +0900,
Images/Speaker1.jpg,Images/Speaker2.jpg,Images/Speaker3.jpg,Images/Speaker4.jpg,Audio/Speaker4_En/P4-10-En.wav,Speaker4,گوینده۴,,,,,,,,0,0,0,58,0,9,9,69,,,,,101.59622333299922,,,,,,,,,,,,,,,,,,,,,,,,,,,,,,,,,,,,,,,,,,,,,,,,,,,,,,,,,,,,,,,,,,,,101.57916216599915,101.59622333299922,101.59622333299922,101.59622333299922,101.59622333299922,101.5951141666667,101.59622333299922,101.59622333299922,101.59622333299922,101.62984249999863,Incorrect! The correct answer is Speaker4.,0,1,1,0.03122595799868577,None,101.63409537500047,101.64514000000054,103.63577033299953,103.63579791600205,103.63615379100156,[],[],[],[],[],[],[],False,,,,,,,,,,,,,,,,,,,,,,,,,,,,,,,,,,,,,,103818,001,2024-08-04_15h14.08.018,5-32 ready-Group3 English Trained,2024.1.5,None,2024-08-04 15h14.13.881906 +0900,
Images/Speaker1.jpg,Images/Speaker2.jpg,Images/Speaker3.jpg,Images/Speaker4.jpg,Audio/Speaker2_En/P2-5-En.wav,Speaker2,گوینده۲,,,,,,,,0,0,0,58,0,10,10,24,,,,,103.65893812500144,,,,,,,,,,,,,,,,,,,,,,,,,,,,,,,,,,,,,,,,,,,,,,,,,,,,,,,,,,,,,,,,,,,,103.63767770800041,103.65893812500144,103.65893812500144,103.65893812500144,103.65893812500144,103.65224770766532,103.65893812500144,103.65893812500144,103.65893812500144,104.27481900000203,Incorrect! The correct answer is Speaker2.,0,1,1,0.6077928750019055,None,104.27879549999852,104.2902405829991,106.27306687500095,106.27307570799894,106.27318150000065,[],[],[],[],[],[],[],False,106.29001362499912,,,,,,,,,,,,,,,,,,,,,,,,,,,,,,,,,,,,,103818,001,2024-08-04_15h14.08.018,5-32 ready-Group3 English Trained,2024.1.5,None,2024-08-04 15h14.13.881906 +0900,
Images/Speaker1.jpg,Images/Speaker2.jpg,Images/Speaker3.jpg,Images/Speaker4.jpg,Audio/Speaker3_En/P3-17-En.wav,Speaker3,گوینده۳,,,,,,,,0,0,0,58,0,11,11,56,,,,,106.29001362499912,,,,,,,,,,,,,,,,,,,,,,,,,,,,,,,,,,,,,,,,,,,,,,,,,,,,,,,,,,,,,,,,,,,,106.27357649999976,106.29001362499912,106.29001362499912,106.29001362499912,106.29001362499912,106.28953604166624,106.29001362499912,106.29001362499912,106.29001362499912,107.0829249999988,Incorrect! The correct answer is Speaker3.,0,1,1,0.7846245829969121,None,107.0866880829999,107.09806083299918,109.08541087499907,109.08544579099907,109.08572270800141,[],[],[],[],[],[],[],False,109.10442350000085,,,,,,,,,,,,,,,,,,,,,,,,,,,,,,,,,,,,,103818,001,2024-08-04_15h14.08.018,5-32 ready-Group3 English Trained,2024.1.5,None,2024-08-04 15h14.13.881906 +0900,
Images/Speaker1.jpg,Images/Speaker2.jpg,Images/Speaker3.jpg,Images/Speaker4.jpg,Audio/Speaker2_En/P2-15-En.wav,Speaker2,گوینده۲,,,,,,,,0,0,0,58,0,12,12,34,,,,,109.10442350000085,,,,,,,,,,,,,,,,,,,,,,,,,,,,,,,,,,,,,,,,,,,,,,,,,,,,,,,,,,,,,,,,,,,,109.08713424999951,109.10442350000085,109.10442350000085,109.10442350000085,109.10442350000085,109.10107512466517,109.10442350000085,109.10442350000085,109.10442350000085,109.80807541600007,Incorrect! The correct answer is Speaker2.,0,1,1,0.6958312909991946,None,109.81203687499874,109.82308766600181,111.81070691599962,111.81074116599848,111.81104791599864,[],[],[],[],[],[],[],False,111.82942229100081,,,,,,,,,,,,,,,,,,,,,,,,,,,,,,,,,,,,,103818,001,2024-08-04_15h14.08.018,5-32 ready-Group3 English Trained,2024.1.5,None,2024-08-04 15h14.13.881906 +0900,
Images/Speaker1.jpg,Images/Speaker2.jpg,Images/Speaker3.jpg,Images/Speaker4.jpg,Audio/Speaker4_En/P4-12-En.wav,Speaker4,گوینده۴,,,,,,,,0,0,0,58,0,13,13,71,,,,,111.82942229100081,,,,,,,,,,,,,,,,,,,,,,,,,,,,,,,,,,,,,,,,,,,,,,,,,,,,,,,,,,,,,,,,,,,,111.81251187499947,111.82942229100081,111.82942229100081,111.82942229100081,111.82942229100081,111.82653020766544,111.82942229100081,111.82942229100081,111.82942229100081,113.01713445800124,Incorrect! The correct answer is Speaker4.,0,1,1,1.1849897079991933,None,113.02140862500164,113.03294520800046,115.01630504100103,115.01631658300175,115.01642279099906,[],[],[],[],[],[],[],False,115.0366104579989,,,,,,,,,,,,,,,,,,,,,,,,,,,,,,,,,,,,,103818,001,2024-08-04_15h14.08.018,5-32 ready-Group3 English Trained,2024.1.5,None,2024-08-04 15h14.13.881906 +0900,
Images/Speaker1.jpg,Images/Speaker2.jpg,Images/Speaker3.jpg,Images/Speaker4.jpg,Audio/Speaker4_En/P4-20-En.wav,Speaker4,گوینده۴,,,,,,,,0,0,0,58,0,14,14,79,,,,,115.0366104579989,,,,,,,,,,,,,,,,,,,,,,,,,,,,,,,,,,,,,,,,,,,,,,,,,,,,,,,,,,,,,,,,,,,,115.01751979099936,115.0366104579989,115.0366104579989,115.0366104579989,115.0366104579989,115.03271362466718,115.0366104579989,115.0366104579989,115.0366104579989,116.56473449999976,Incorrect! The correct answer is Speaker4.,0,1,1,1.524866457999451,None,116.56872666599884,116.57529179099947,118.55856716600101,118.55859233299998,118.55896508300066,[],[],[],[],[],[],[],False,118.57780254099998,,,,,,,,,,,,,,,,,,,,,,,,,,,,,,,,,,,,,103818,001,2024-08-04_15h14.08.018,5-32 ready-Group3 English Trained,2024.1.5,None,2024-08-04 15h14.13.881906 +0900,
Images/Speaker1.jpg,Images/Speaker2.jpg,Images/Speaker3.jpg,Images/Speaker4.jpg,Audio/Speaker3_En/P3-19-En.wav,Speaker3,گوینده۳,,,,,,,,0,0,0,58,0,15,15,58,,,,,118.57780254099998,,,,,,,,,,,,,,,,,,,,,,,,,,,,,,,,,,,,,,,,,,,,,,,,,,,,,,,,,,,,,,,,,,,,118.56053574999896,118.57780254099998,118.57780254099998,118.57780254099998,118.57780254099998,118.57445770766596,118.57780254099998,118.57780254099998,118.57780254099998,121.3344969159989,Incorrect! The correct answer is Speaker3.,0,1,1,2.746677625000302,None,121.33864591599922,121.35017383300146,123.33699616599915,123.33703316600077,123.33748504100004,[],[],[],[],[],[],[],False,123.35900570800004,,,,,,,,,,,,,,,,,,,,,,,,,,,,,,,,,,,,,103818,001,2024-08-04_15h14.08.018,5-32 ready-Group3 English Trained,2024.1.5,None,2024-08-04 15h14.13.881906 +0900,
Images/Speaker1.jpg,Images/Speaker2.jpg,Images/Speaker3.jpg,Images/Speaker4.jpg,Audio/Speaker3_En/P3-5-En.wav,Speaker3,گوینده۳,,,,,,,,0,0,0,58,0,16,16,44,,,,,123.35900570800004,,,,,,,,,,,,,,,,,,,,,,,,,,,,,,,,,,,,,,,,,,,,,,,,,,,,,,,,,,,,,,,,,,,,123.33905083300124,123.35900570800004,123.35900570800004,123.35900570800004,123.35900570800004,123.35287758266738,123.35900570800004,123.35900570800004,123.35900570800004,124.77419520799958,Incorrect! The correct answer is Speaker3.,0,1,1,1.410246167000878,None,124.77800245799881,124.78437833299904,126.76894504099982,126.76895658300054,126.76906733299984,[],[],[],[],[],[],[],False,126.78849629099932,,,,,,,,,,,,,,,,,,,,,,,,,,,,,,,,,,,,,103818,001,2024-08-04_15h14.08.018,5-32 ready-Group3 English Trained,2024.1.5,None,2024-08-04 15h14.13.881906 +0900,
Images/Speaker1.jpg,Images/Speaker2.jpg,Images/Speaker3.jpg,Images/Speaker4.jpg,Audio/Speaker4_En/P4-14-En.wav,Speaker4,گوینده۴,,,,,,,,0,0,0,58,0,17,17,73,,,,,126.78849629099932,,,,,,,,,,,,,,,,,,,,,,,,,,,,,,,,,,,,,,,,,,,,,,,,,,,,,,,,,,,,,,,,,,,,126.76952279100078,126.78849629099932,126.78849629099932,126.78849629099932,126.78849629099932,126.78531804166802,126.78849629099932,126.78849629099932,126.78849629099932,127.02254437499869,Incorrect! The correct answer is Speaker4.,0,1,1,0.23059183300210861,None,127.02645325000049,127.03807020800014,129.02624637500048,129.0262560830015,129.02634954099995,[],[],[],[],[],[],[],False,129.04495129100178,,,,,,,,,,,,,,,,,,,,,,,,,,,,,,,,,,,,,103818,001,2024-08-04_15h14.08.018,5-32 ready-Group3 English Trained,2024.1.5,None,2024-08-04 15h14.13.881906 +0900,
Images/Speaker1.jpg,Images/Speaker2.jpg,Images/Speaker3.jpg,Images/Speaker4.jpg,Audio/Speaker1_En/P1-15-En.wav,Speaker1,گوینده ۱,,,,,,,,0,0,0,58,0,18,18,14,,,,,129.04495129100178,,,,,,,,,,,,,,,,,,,,,,,,,,,,,,,,,,,,,,,,,,,,,,,,,,,,,,,,,,,,,,,,,,,,129.02681183299865,129.04495129100178,129.04495129100178,129.04495129100178,129.04495129100178,129.0426532496679,129.04495129100178,129.04495129100178,129.04495129100178,129.8743022910021,Correct!,1,1,1,0.8199118330012425,None,129.87802483300038,129.88846095800182,131.87294170799942,131.87295412499952,131.87306787499983,[],[],[],[],[],[],[],False,131.89193145800164,,,,,,,,,,,,,,,,,,,,,,,,,,,,,,,,,,,,,103818,001,2024-08-04_15h14.08.018,5-32 ready-Group3 English Trained,2024.1.5,None,2024-08-04 15h14.13.881906 +0900,
Images/Speaker1.jpg,Images/Speaker2.jpg,Images/Speaker3.jpg,Images/Speaker4.jpg,Audio/Speaker2_En/P2-14-En.wav,Speaker2,گوینده۲,,,,,,,,0,0,0,58,0,19,19,33,,,,,131.89193145800164,,,,,,,,,,,,,,,,,,,,,,,,,,,,,,,,,,,,,,,,,,,,,,,,,,,,,,,,,,,,,,,,,,,,131.87350833299934,131.89193145800164,131.89193145800164,131.89193145800164,131.89193145800164,131.88937095766622,131.89193145800164,131.89193145800164,131.89193145800164,133.58476233300098,Incorrect! The correct answer is Speaker2.,0,1,1,1.6856403339988901,None,133.58869745799893,133.60018395799852,135.5877752080014,135.58781458299927,135.58835762500166,[],[],[],[],[],[],[],False,135.6097082080014,,,,,,,,,,,,,,,,,,,,,,,,,,,,,,,,,,,,,103818,001,2024-08-04_15h14.08.018,5-32 ready-Group3 English Trained,2024.1.5,None,2024-08-04 15h14.13.881906 +0900,
Images/Speaker1.jpg,Images/Speaker2.jpg,Images/Speaker3.jpg,Images/Speaker4.jpg,Audio/Speaker1_En/P1-19-En.wav,Speaker1,گوینده ۱,,,,,,,,0,0,0,58,0,20,20,18,,,,,135.6097082080014,,,,,,,,,,,,,,,,,,,,,,,,,,,,,,,,,,,,,,,,,,,,,,,,,,,,,,,,,,,,,,,,,,,,135.5900104579996,135.6097082080014,135.6097082080014,135.6097082080014,135.6097082080014,135.6035508746684,135.6097082080014,135.6097082080014,135.6097082080014,138.25542270799997,Correct!,1,1,1,2.644725082998775,None,138.2596423750001,138.2699563749993,140.25452770799893,140.25453795800058,140.25464700000157,[],[],[],[],[],[],[],False,140.27273691600203,,,,,,,,,,,,,,,,,,,,,,,,,,,,,,,,,,,,,103818,001,2024-08-04_15h14.08.018,5-32 ready-Group3 English Trained,2024.1.5,None,2024-08-04 15h14.13.881906 +0900,
Images/Speaker1.jpg,Images/Speaker2.jpg,Images/Speaker3.jpg,Images/Speaker4.jpg,Audio/Speaker4_En/P4-11-En.wav,Speaker4,گوینده۴,,,,,,,,0,0,0,58,0,21,21,70,,,,,140.27273691600203,,,,,,,,,,,,,,,,,,,,,,,,,,,,,,,,,,,,,,,,,,,,,,,,,,,,,,,,,,,,,,,,,,,,140.2550584160017,140.27273691600203,140.27273691600203,140.27273691600203,140.27273691600203,140.27100716666635,140.27273691600203,140.27273691600203,140.27273691600203,141.83884495800157,Incorrect! The correct answer is Speaker4.,0,1,1,1.563673958000436,None,141.84308520800187,141.85471333299938,143.84270020799886,143.84272662500007,143.84308620799857,[],[],[],[],[],[],[],False,143.86194033300126,,,,,,,,,,,,,,,,,,,,,,,,,,,,,,,,,,,,,103818,001,2024-08-04_15h14.08.018,5-32 ready-Group3 English Trained,2024.1.5,None,2024-08-04 15h14.13.881906 +0900,
Images/Speaker1.jpg,Images/Speaker2.jpg,Images/Speaker3.jpg,Images/Speaker4.jpg,Audio/Speaker4_En/P4-16-En.wav,Speaker4,گوینده۴,,,,,,,,0,0,0,58,0,22,22,75,,,,,143.86194033300126,,,,,,,,,,,,,,,,,,,,,,,,,,,,,,,,,,,,,,,,,,,,,,,,,,,,,,,,,,,,,,,,,,,,143.84430741599863,143.86194033300126,143.86194033300126,143.86194033300126,143.86194033300126,143.85873041666517,143.86194033300126,143.86194033300126,143.86194033300126,145.24081837500125,Incorrect! The correct answer is Speaker4.,0,1,1,1.3740618340016226,None,145.24471187499876,145.25116266600162,147.23477754100168,147.23480704100075,147.23517887500202,[],[],[],[],[],[],[],False,147.2528071250017,,,,,,,,,,,,,,,,,,,,,,,,,,,,,,,,,,,,,103818,001,2024-08-04_15h14.08.018,5-32 ready-Group3 English Trained,2024.1.5,None,2024-08-04 15h14.13.881906 +0900,
Images/Speaker1.jpg,Images/Speaker2.jpg,Images/Speaker3.jpg,Images/Speaker4.jpg,Audio/Speaker2_En/P2-10-En.wav,Speaker2,گوینده۲,,,,,,,,0,0,0,58,0,23,23,29,,,,,147.2528071250017,,,,,,,,,,,,,,,,,,,,,,,,,,,,,,,,,,,,,,,,,,,,,,,,,,,,,,,,,,,,,,,,,,,,147.23643416599953,147.2528071250017,147.2528071250017,147.2528071250017,147.2528071250017,147.25057549966758,147.2528071250017,147.2528071250017,147.2528071250017,148.26609204100168,Incorrect! The correct answer is Speaker2.,0,1,1,1.0042886250012089,None,148.2699652500014,148.2810975829998,150.27376666599957,150.27377550000165,150.27387562500007,[],[],[],[],[],[],[],False,,,,,,,,,,,,,,,,,,,,,,,,,,,,,,,,,,,,,,103818,001,2024-08-04_15h14.08.018,5-32 ready-Group3 English Trained,2024.1.5,None,2024-08-04 15h14.13.881906 +0900,
Images/Speaker1.jpg,Images/Speaker2.jpg,Images/Speaker3.jpg,Images/Speaker4.jpg,Audio/Speaker4_En/P4-8-En.wav,Speaker4,گوینده۴,,,,,,,,0,0,0,58,0,24,24,67,,,,,150.29130570800044,,,,,,,,,,,,,,,,,,,,,,,,,,,,,,,,,,,,,,,,,,,,,,,,,,,,,,,,,,,,,,,,,,,,150.27426812500198,150.29130570800044,150.29130570800044,150.29130570800044,150.29130570800044,150.29039683266845,150.29130570800044,150.29130570800044,150.29130570800044,150.58496970800115,Incorrect! The correct answer is Speaker4.,0,1,1,0.2876212079972902,None,150.58906624999872,150.60100375000184,152.58965762500156,152.58967050000138,152.58977816599872,[],[],[],[],[],[],[],False,,,,,,,,,,,,,,,,,,,,,,,,,,,,,,,,,,,,,,103818,001,2024-08-04_15h14.08.018,5-32 ready-Group3 English Trained,2024.1.5,None,2024-08-04 15h14.13.881906 +0900,
Images/Speaker1.jpg,Images/Speaker2.jpg,Images/Speaker3.jpg,Images/Speaker4.jpg,Audio/Speaker1_En/P1-3-En.wav,Speaker1,گوینده ۱,,,,,,,,0,0,0,58,0,25,25,2,,,,,152.60692229100096,,,,,,,,,,,,,,,,,,,,,,,,,,,,,,,,,,,,,,,,,,,,,,,,,,,,,,,,,,,,,,,,,,,,152.59021408300032,152.60692229100096,152.60692229100096,152.60692229100096,152.60692229100096,152.60628187466526,152.60692229100096,152.60692229100096,152.60692229100096,153.5072426250008,Correct!,1,1,1,0.8970487500009767,None,153.51124125000206,153.52171487500163,155.51015029100017,155.51017933299954,155.51046391600175,[],[],[],[],[],[],[],False,155.53060449999975,,,,,,,,,,,,,,,,,,,,,,,,,,,,,,,,,,,,,103818,001,2024-08-04_15h14.08.018,5-32 ready-Group3 English Trained,2024.1.5,None,2024-08-04 15h14.13.881906 +0900,
Images/Speaker1.jpg,Images/Speaker2.jpg,Images/Speaker3.jpg,Images/Speaker4.jpg,Audio/Speaker2_En/P2-17-En.wav,Speaker2,گوینده۲,,,,,,,,0,0,0,58,0,26,26,36,,,,,155.53060449999975,,,,,,,,,,,,,,,,,,,,,,,,,,,,,,,,,,,,,,,,,,,,,,,,,,,,,,,,,,,,,,,,,,,,155.5117349159991,155.53060449999975,155.53060449999975,155.53060449999975,155.53060449999975,155.52600045766692,155.53060449999975,155.53060449999975,155.53060449999975,156.20178104099978,Incorrect! The correct answer is Speaker2.,0,1,1,0.669103707998147,None,156.20562737499858,156.21692433299904,158.2040100000013,158.20405137499984,158.20448045800003,[],[],[],[],[],[],[],False,158.22326141600206,,,,,,,,,,,,,,,,,,,,,,,,,,,,,,,,,,,,,103818,001,2024-08-04_15h14.08.018,5-32 ready-Group3 English Trained,2024.1.5,None,2024-08-04 15h14.13.881906 +0900,
Images/Speaker1.jpg,Images/Speaker2.jpg,Images/Speaker3.jpg,Images/Speaker4.jpg,Audio/Speaker3_En/P3-18-En.wav,Speaker3,گوینده۳,,,,,,,,0,0,0,58,0,27,27,57,,,,,158.22326141600206,,,,,,,,,,,,,,,,,,,,,,,,,,,,,,,,,,,,,,,,,,,,,,,,,,,,,,,,,,,,,,,,,,,,158.2060918749994,158.22326141600206,158.22326141600206,158.22326141600206,158.22326141600206,158.21982558266635,158.22326141600206,158.22326141600206,158.22326141600206,158.45028816600097,Incorrect! The correct answer is Speaker3.,0,1,1,0.22604545799913467,None,158.45411012499972,158.46507674999884,160.45857454100042,160.45858475000205,160.4586852499997,[],[],[],[],[],[],[],False,,,,,,,,,,,,,,,,,,,,,,,,,,,,,,,,,,,,,,103818,001,2024-08-04_15h14.08.018,5-32 ready-Group3 English Trained,2024.1.5,None,2024-08-04 15h14.13.881906 +0900,
Images/Speaker1.jpg,Images/Speaker2.jpg,Images/Speaker3.jpg,Images/Speaker4.jpg,Audio/Speaker4_En/P4-1-En.wav,Speaker4,گوینده۴,,,,,,,,0,0,0,58,0,28,28,60,,,,,160.4769359999991,,,,,,,,,,,,,,,,,,,,,,,,,,,,,,,,,,,,,,,,,,,,,,,,,,,,,,,,,,,,,,,,,,,,160.45909137499984,160.4769359999991,160.4769359999991,160.4769359999991,160.4769359999991,160.4752036666653,160.4769359999991,160.4769359999991,160.4769359999991,160.7735016660008,Incorrect! The correct answer is Speaker4.,0,1,1,0.2874180830003752,None,160.77753487500013,160.78682479100098,162.77320474999942,162.7732139159998,162.77332237500013,[],[],[],[],[],[],[],False,162.79050458300117,,,,,,,,,,,,,,,,,,,,,,,,,,,,,,,,,,,,,103818,001,2024-08-04_15h14.08.018,5-32 ready-Group3 English Trained,2024.1.5,None,2024-08-04 15h14.13.881906 +0900,
Images/Speaker1.jpg,Images/Speaker2.jpg,Images/Speaker3.jpg,Images/Speaker4.jpg,Audio/Speaker2_En/P2-9-En.wav,Speaker2,گوینده۲,,,,,,,,0,0,0,58,0,29,29,28,,,,,162.79050458300117,,,,,,,,,,,,,,,,,,,,,,,,,,,,,,,,,,,,,,,,,,,,,,,,,,,,,,,,,,,,,,,,,,,,162.77373475000059,162.79050458300117,162.79050458300117,162.79050458300117,162.79050458300117,162.78959720766605,162.79050458300117,162.79050458300117,162.79050458300117,163.03352095800074,Incorrect! The correct answer is Speaker2.,0,1,1,0.23564583400002448,None,163.03756050000084,163.04832733299918,165.03519462500117,165.03522645799967,165.03552854100053,[],[],[],[],[],[],[],False,165.05444008300037,,,,,,,,,,,,,,,,,,,,,,,,,,,,,,,,,,,,,103818,001,2024-08-04_15h14.08.018,5-32 ready-Group3 English Trained,2024.1.5,None,2024-08-04 15h14.13.881906 +0900,
Images/Speaker1.jpg,Images/Speaker2.jpg,Images/Speaker3.jpg,Images/Speaker4.jpg,Audio/Speaker2_En/P2-13-En.wav,Speaker2,گوینده۲,,,,,,,,0,0,0,58,0,30,30,32,,,,,165.05444008300037,,,,,,,,,,,,,,,,,,,,,,,,,,,,,,,,,,,,,,,,,,,,,,,,,,,,,,,,,,,,,,,,,,,,165.03689904099883,165.05444008300037,165.05444008300037,165.05444008300037,165.05444008300037,165.05084204166658,165.05444008300037,165.05444008300037,165.05444008300037,165.23405524999907,Incorrect! The correct answer is Speaker2.,0,1,1,0.17731341599937878,None,165.23823258300035,165.24509495800157,167.22911666599975,167.22917116600001,167.22959604100106,[],[],[],[],[],[],[],False,167.2481165829995,,,,,,,,,,,,,,,,,,,,,,,,,,,,,,,,,,,,,103818,001,2024-08-04_15h14.08.018,5-32 ready-Group3 English Trained,2024.1.5,None,2024-08-04 15h14.13.881906 +0900,
Images/Speaker1.jpg,Images/Speaker2.jpg,Images/Speaker3.jpg,Images/Speaker4.jpg,Audio/Speaker1_En/P1-7-En.wav,Speaker1,گوینده ۱,,,,,,,,0,0,0,58,0,31,31,6,,,,,167.2481165829995,,,,,,,,,,,,,,,,,,,,,,,,,,,,,,,,,,,,,,,,,,,,,,,,,,,,,,,,,,,,,,,,,,,,167.23123770800157,167.2481165829995,167.2481165829995,167.2481165829995,167.2481165829995,167.24491937466544,167.2481165829995,167.2481165829995,167.2481165829995,167.48351437499878,Correct!,1,1,1,0.23120729099900927,None,167.48724629099888,167.49787875000038,169.484707333002,169.48472770800072,169.4848558750018,[],[],[],[],[],[],[],False,169.50270683300187,,,,,,,,,,,,,,,,,,,,,,,,,,,,,,,,,,,,,103818,001,2024-08-04_15h14.08.018,5-32 ready-Group3 English Trained,2024.1.5,None,2024-08-04 15h14.13.881906 +0900,
Images/Speaker1.jpg,Images/Speaker2.jpg,Images/Speaker3.jpg,Images/Speaker4.jpg,Audio/Speaker1_En/P1-4-En.wav,Speaker1,گوینده ۱,,,,,,,,0,0,0,58,0,32,32,13,,,,,169.50270683300187,,,,,,,,,,,,,,,,,,,,,,,,,,,,,,,,,,,,,,,,,,,,,,,,,,,,,,,,,,,,,,,,,,,,169.4852942079997,169.50270683300187,169.50270683300187,169.50270683300187,169.50270683300187,169.5011130416681,169.50270683300187,169.50270683300187,169.50270683300187,169.7515387909989,Correct!,1,1,1,0.24162562499986961,None,169.75573891599925,169.76255741600107,171.7508925000002,171.75090112500038,171.75099870800113,[],[],[],[],[],[],[],False,171.76820754100117,,,,,,,,,,,,,,,,,,,,,,,,,,,,,,,,,,,,,103818,001,2024-08-04_15h14.08.018,5-32 ready-Group3 English Trained,2024.1.5,None,2024-08-04 15h14.13.881906 +0900,
Images/Speaker1.jpg,Images/Speaker2.jpg,Images/Speaker3.jpg,Images/Speaker4.jpg,Audio/Speaker4_En/P4-19-En.wav,Speaker4,گوینده۴,,,,,,,,0,0,0,58,0,33,33,78,,,,,171.76820754100117,,,,,,,,,,,,,,,,,,,,,,,,,,,,,,,,,,,,,,,,,,,,,,,,,,,,,,,,,,,,,,,,,,,,171.7514170409995,171.76820754100117,171.76820754100117,171.76820754100117,171.76820754100117,171.76734887466617,171.76820754100117,171.76820754100117,171.76820754100117,171.92649987500045,Incorrect! The correct answer is Speaker4.,0,1,1,0.1480715829966357,None,171.93070637500205,171.94192079099957,173.92994441599876,173.9299531659999,173.93006308300028,[],[],[],[],[],[],[],False,173.94774866599982,,,,,,,,,,,,,,,,,,,,,,,,,,,,,,,,,,,,,103818,001,2024-08-04_15h14.08.018,5-32 ready-Group3 English Trained,2024.1.5,None,2024-08-04 15h14.13.881906 +0900,
Images/Speaker1.jpg,Images/Speaker2.jpg,Images/Speaker3.jpg,Images/Speaker4.jpg,Audio/Speaker4_En/P4-9-En.wav,Speaker4,گوینده۴,,,,,,,,0,0,0,58,0,34,34,68,,,,,173.94774866599982,,,,,,,,,,,,,,,,,,,,,,,,,,,,,,,,,,,,,,,,,,,,,,,,,,,,,,,,,,,,,,,,,,,,173.93048920799993,173.94774866599982,173.94774866599982,173.94774866599982,173.94774866599982,173.94640716666643,173.94774866599982,173.94774866599982,173.94774866599982,174.18243216599876,Incorrect! The correct answer is Speaker4.,0,1,1,0.22548216699942714,None,174.18633324999973,174.19053720800002,176.18572895800025,176.18575108300138,176.18600620800134,[],[],[],[],[],[],[],False,176.2055885410009,,,,,,,,,,,,,,,,,,,,,,,,,,,,,,,,,,,,,103818,001,2024-08-04_15h14.08.018,5-32 ready-Group3 English Trained,2024.1.5,None,2024-08-04 15h14.13.881906 +0900,
Images/Speaker1.jpg,Images/Speaker2.jpg,Images/Speaker3.jpg,Images/Speaker4.jpg,Audio/Speaker4_En/P4-2-En.wav,Speaker4,گوینده۴,,,,,,,,0,0,0,58,0,35,35,61,,,,,176.2055885410009,,,,,,,,,,,,,,,,,,,,,,,,,,,,,,,,,,,,,,,,,,,,,,,,,,,,,,,,,,,,,,,,,,,,176.18729012499898,176.2055885410009,176.2055885410009,176.2055885410009,176.2055885410009,176.20152112466556,176.2055885410009,176.2055885410009,176.2055885410009,176.46881641599975,Incorrect! The correct answer is Speaker4.,0,1,1,0.25249854200228583,None,176.4725744999996,176.47799608300193,178.4701603329995,178.4701831659986,178.47049016600067,[],[],[],[],[],[],[],False,178.4878054159999,,,,,,,,,,,,,,,,,,,,,,,,,,,,,,,,,,,,,103818,001,2024-08-04_15h14.08.018,5-32 ready-Group3 English Trained,2024.1.5,None,2024-08-04 15h14.13.881906 +0900,
Images/Speaker1.jpg,Images/Speaker2.jpg,Images/Speaker3.jpg,Images/Speaker4.jpg,Audio/Speaker3_En/P3-10-En.wav,Speaker3,گوینده۳,,,,,,,,0,0,0,58,0,36,36,49,,,,,178.4878054159999,,,,,,,,,,,,,,,,,,,,,,,,,,,,,,,,,,,,,,,,,,,,,,,,,,,,,,,,,,,,,,,,,,,,178.47153941600118,178.4878054159999,178.4878054159999,178.4878054159999,178.4878054159999,178.48585533266694,178.4878054159999,178.4878054159999,178.4878054159999,178.75498983299985,Incorrect! The correct answer is Speaker3.,0,1,1,0.26468104199739173,None,178.75883695800076,178.766777249999,180.753508875001,180.75351829099964,180.75364337499923,[],[],[],[],[],[],[],False,180.7687020000012,,,,,,,,,,,,,,,,,,,,,,,,,,,,,,,,,,,,,103818,001,2024-08-04_15h14.08.018,5-32 ready-Group3 English Trained,2024.1.5,None,2024-08-04 15h14.13.881906 +0900,
Images/Speaker1.jpg,Images/Speaker2.jpg,Images/Speaker3.jpg,Images/Speaker4.jpg,Audio/Speaker2_En/P2-18-En.wav,Speaker2,گوینده۲,,,,,,,,0,0,0,58,0,37,37,37,,,,,180.7687020000012,,,,,,,,,,,,,,,,,,,,,,,,,,,,,,,,,,,,,,,,,,,,,,,,,,,,,,,,,,,,,,,,,,,,180.7540807910009,180.7687020000012,180.7687020000012,180.7687020000012,180.7687020000012,180.7699009576684,180.7687020000012,180.7687020000012,180.7687020000012,180.99572666599852,Incorrect! The correct answer is Speaker2.,0,1,1,0.22477058300137287,None,180.99947574999896,181.00722983300147,182.99199495799985,182.99200895800095,182.99217291600144,[],[],[],[],[],[],[],False,183.01117175000036,,,,,,,,,,,,,,,,,,,,,,,,,,,,,,,,,,,,,103818,001,2024-08-04_15h14.08.018,5-32 ready-Group3 English Trained,2024.1.5,None,2024-08-04 15h14.13.881906 +0900,
Images/Speaker1.jpg,Images/Speaker2.jpg,Images/Speaker3.jpg,Images/Speaker4.jpg,Audio/Speaker2_En/P2-3-En.wav,Speaker2,گوینده۲,,,,,,,,0,0,0,58,0,38,38,22,,,,,183.01117175000036,,,,,,,,,,,,,,,,,,,,,,,,,,,,,,,,,,,,,,,,,,,,,,,,,,,,,,,,,,,,,,,,,,,,182.99265858299987,183.01117175000036,183.01117175000036,183.01117175000036,183.01117175000036,183.0083731246671,183.01117175000036,183.01117175000036,183.01117175000036,183.33177816600073,Incorrect! The correct answer is Speaker2.,0,1,1,0.31609841699901153,None,183.3359177909988,183.3420001250015,185.33551358299883,185.33552329099984,185.33564133300024,[],[],[],[],[],[],[],False,185.35375279100117,,,,,,,,,,,,,,,,,,,,,,,,,,,,,,,,,,,,,103818,001,2024-08-04_15h14.08.018,5-32 ready-Group3 English Trained,2024.1.5,None,2024-08-04 15h14.13.881906 +0900,
Images/Speaker1.jpg,Images/Speaker2.jpg,Images/Speaker3.jpg,Images/Speaker4.jpg,Audio/Speaker4_En/P4-18-En.wav,Speaker4,گوینده۴,,,,,,,,0,0,0,58,0,39,39,77,,,,,185.35375279100117,,,,,,,,,,,,,,,,,,,,,,,,,,,,,,,,,,,,,,,,,,,,,,,,,,,,,,,,,,,,,,,,,,,,185.33605429100135,185.35375279100117,185.35375279100117,185.35375279100117,185.35375279100117,185.35193524966624,185.35375279100117,185.35375279100117,185.35375279100117,185.4389576249996,Incorrect! The correct answer is Speaker4.,0,1,1,0.08317299999907846,None,185.44277924999915,185.45409245799965,187.44446574999893,187.4445068749992,189.50057512499916,[-0.019348268839103868],[-0.17820773930753564],[1],[0],[0],[2.0532120839998242],['checkbox3'],True,,187.45857729099953,0.002035874997091014,187.45857729099953,187.45857729099953,,,,,,,,,,,,,,,,,,,,,,,,,,,,,,,,,103818,001,2024-08-04_15h14.08.018,5-32 ready-Group3 English Trained,2024.1.5,None,2024-08-04 15h14.13.881906 +0900,
Images/Speaker1.jpg,Images/Speaker2.jpg,Images/Speaker3.jpg,Images/Speaker4.jpg,Audio/Speaker3_En/P3-13-En.wav,Speaker3,گوینده۳,,,,,,,,0,0,0,58,0,40,40,52,,,,,189.51808800000072,,,,,,,,,,,,,,,,,,,,,,,,,,,,,,,,,,,,,,,,,,,,,,,,,,,,,,,,,,,,,,,,,,,,189.5010055410021,189.51808800000072,189.51808800000072,189.51808800000072,189.51808800000072,189.51444729166568,189.51808800000072,189.51808800000072,189.51808800000072,190.15911699999924,Incorrect! The correct answer is Speaker3.,0,1,1,0.6313418330028071,None,190.1633461249985,190.17428162500073,192.16081974999906,192.16085433300032,192.1611700829999,[],[],[],[],[],[],[],False,192.1833973749999,,,,,,,,,,,,,,,,,,,,,,,,,,,,,,,,,,,,,103818,001,2024-08-04_15h14.08.018,5-32 ready-Group3 English Trained,2024.1.5,None,2024-08-04 15h14.13.881906 +0900,
Images/Speaker1.jpg,Images/Speaker2.jpg,Images/Speaker3.jpg,Images/Speaker4.jpg,Audio/Speaker1_En/P1-4-En.wav,Speaker1,گوینده ۱,,,,,,,,0,0,0,58,0,41,41,3,,,,,192.1833973749999,,,,,,,,,,,,,,,,,,,,,,,,,,,,,,,,,,,,,,,,,,,,,,,,,,,,,,,,,,,,,,,,,,,,192.16267808300108,192.1833973749999,192.1833973749999,192.1833973749999,192.1833973749999,192.17659649966689,192.1833973749999,192.1833973749999,192.1833973749999,192.4332352909987,Correct!,1,1,1,0.24257770799886202,None,192.43735599999854,192.4475569999995,194.43542554099986,194.43546195800081,194.4357695409999,[],[],[],[],[],[],[],False,194.4564652500012,,,,,,,,,,,,,,,,,,,,,,,,,,,,,,,,,,,,,103818,001,2024-08-04_15h14.08.018,5-32 ready-Group3 English Trained,2024.1.5,None,2024-08-04 15h14.13.881906 +0900,
Images/Speaker1.jpg,Images/Speaker2.jpg,Images/Speaker3.jpg,Images/Speaker4.jpg,Audio/Speaker2_En/P2-12-En.wav,Speaker2,گوینده۲,,,,,,,,0,0,0,58,0,42,42,31,,,,,194.4564652500012,,,,,,,,,,,,,,,,,,,,,,,,,,,,,,,,,,,,,,,,,,,,,,,,,,,,,,,,,,,,,,,,,,,,194.4371748750018,194.4564652500012,194.4564652500012,194.4564652500012,194.4564652500012,194.45120891666764,194.4564652500012,194.4564652500012,194.4564652500012,194.50065683299908,Incorrect! The correct answer is Speaker2.,0,1,1,0.03580016600244562,None,194.50460779100104,194.5154188330016,196.5100755409985,196.51010312500148,196.51048358299886,[],[],[],[],[],[],[],False,,,,,,,,,,,,,,,,,,,,,,,,,,,,,,,,,,,,,,103818,001,2024-08-04_15h14.08.018,5-32 ready-Group3 English Trained,2024.1.5,None,2024-08-04 15h14.13.881906 +0900,
Images/Speaker1.jpg,Images/Speaker2.jpg,Images/Speaker3.jpg,Images/Speaker4.jpg,Audio/Speaker4_En/P4-15-En.wav,Speaker4,گوینده۴,,,,,,,,0,0,0,58,0,43,43,74,,,,,196.53196529100023,,,,,,,,,,,,,,,,,,,,,,,,,,,,,,,,,,,,,,,,,,,,,,,,,,,,,,,,,,,,,,,,,,,,196.51180012500117,196.53196529100023,196.53196529100023,196.53196529100023,196.53196529100023,196.5265550416664,196.53196529100023,196.53196529100023,196.53196529100023,196.74052516600204,Incorrect! The correct answer is Speaker4.,0,1,1,0.20393683300062548,None,196.74428400000033,196.75588020800205,198.74425470799906,198.74428545800038,198.74467495800127,[],[],[],[],[],[],[],False,198.7631440410005,,,,,,,,,,,,,,,,,,,,,,,,,,,,,,,,,,,,,103818,001,2024-08-04_15h14.08.018,5-32 ready-Group3 English Trained,2024.1.5,None,2024-08-04 15h14.13.881906 +0900,
Images/Speaker1.jpg,Images/Speaker2.jpg,Images/Speaker3.jpg,Images/Speaker4.jpg,Audio/Speaker3_En/P3-12-En.wav,Speaker3,گوینده۳,,,,,,,,0,0,0,58,0,44,44,51,,,,,198.7631440410005,,,,,,,,,,,,,,,,,,,,,,,,,,,,,,,,,,,,,,,,,,,,,,,,,,,,,,,,,,,,,,,,,,,,198.74570445800055,198.7631440410005,198.7631440410005,198.7631440410005,198.7631440410005,198.76006249966693,198.7631440410005,198.7631440410005,198.7631440410005,198.82457649999924,Incorrect! The correct answer is Speaker3.,0,1,1,0.055430583997804206,None,198.8283276660004,198.83920604100058,200.83541795800193,200.8354704580015,200.83578083300017,[],[],[],[],[],[],[],False,,,,,,,,,,,,,,,,,,,,,,,,,,,,,,,,,,,,,,103818,001,2024-08-04_15h14.08.018,5-32 ready-Group3 English Trained,2024.1.5,None,2024-08-04 15h14.13.881906 +0900,
Images/Speaker1.jpg,Images/Speaker2.jpg,Images/Speaker3.jpg,Images/Speaker4.jpg,Audio/Speaker3_En/P3-2-En.wav,Speaker3,گوینده۳,,,,,,,,0,0,0,58,0,45,45,41,,,,,200.8597579160014,,,,,,,,,,,,,,,,,,,,,,,,,,,,,,,,,,,,,,,,,,,,,,,,,,,,,,,,,,,,,,,,,,,,200.83711220799887,200.8597579160014,200.8597579160014,200.8597579160014,200.8597579160014,200.86858995833296,200.8597579160014,200.8597579160014,200.8597579160014,201.000167041002,Incorrect! The correct answer is Speaker3.,0,1,1,0.1356775420026679,None,201.0039969999998,201.0104543330017,202.99649416600005,202.99650741599908,202.99664225000015,[],[],[],[],[],[],[],False,203.0159300000014,,,,,,,,,,,,,,,,,,,,,,,,,,,,,,,,,,,,,103818,001,2024-08-04_15h14.08.018,5-32 ready-Group3 English Trained,2024.1.5,None,2024-08-04 15h14.13.881906 +0900,
Images/Speaker1.jpg,Images/Speaker2.jpg,Images/Speaker3.jpg,Images/Speaker4.jpg,Audio/Speaker3_En/P3-16-En.wav,Speaker3,گوینده۳,,,,,,,,0,0,0,58,0,46,46,55,,,,,203.0159300000014,,,,,,,,,,,,,,,,,,,,,,,,,,,,,,,,,,,,,,,,,,,,,,,,,,,,,,,,,,,,,,,,,,,,202.99711029099853,203.0159300000014,203.0159300000014,203.0159300000014,203.0159300000014,203.0128976246672,203.0159300000014,203.0159300000014,203.0159300000014,203.02781887500169,Incorrect! The correct answer is Speaker3.,0,1,1,0.009584666997398017,None,203.03182187499988,203.03865904100167,205.02514470800088,205.0251693329992,205.02553704100137,[],[],[],[],[],[],[],False,205.04663991599955,,,,,,,,,,,,,,,,,,,,,,,,,,,,,,,,,,,,,103818,001,2024-08-04_15h14.08.018,5-32 ready-Group3 English Trained,2024.1.5,None,2024-08-04 15h14.13.881906 +0900,
Images/Speaker1.jpg,Images/Speaker2.jpg,Images/Speaker3.jpg,Images/Speaker4.jpg,Audio/Speaker1_En/P1-8-En.wav,Speaker1,گوینده ۱,,,,,,,,0,0,0,58,0,47,47,7,,,,,205.04663991599955,,,,,,,,,,,,,,,,,,,,,,,,,,,,,,,,,,,,,,,,,,,,,,,,,,,,,,,,,,,,,,,,,,,,205.02676833299847,205.04663991599955,205.04663991599955,205.04663991599955,205.04663991599955,205.04124412466652,205.04663991599955,205.04663991599955,205.04663991599955,205.28342120800153,Correct!,1,1,1,0.23131424999883166,None,205.2874727080016,205.2980507909997,207.28367662500023,207.28368591600156,207.2837771250015,[],[],[],[],[],[],[],False,207.30422183300107,,,,,,,,,,,,,,,,,,,,,,,,,,,,,,,,,,,,,103818,001,2024-08-04_15h14.08.018,5-32 ready-Group3 English Trained,2024.1.5,None,2024-08-04 15h14.13.881906 +0900,
Images/Speaker1.jpg,Images/Speaker2.jpg,Images/Speaker3.jpg,Images/Speaker4.jpg,Audio/Speaker3_En/P3-4-En.wav,Speaker3,گوینده۳,,,,,,,,0,0,0,58,0,48,48,43,,,,,207.30422183300107,,,,,,,,,,,,,,,,,,,,,,,,,,,,,,,,,,,,,,,,,,,,,,,,,,,,,,,,,,,,,,,,,,,,207.28420737499982,207.30422183300107,207.30422183300107,207.30422183300107,207.30422183300107,207.30014466666788,207.30422183300107,207.30422183300107,207.30422183300107,207.48156870800085,Incorrect! The correct answer is Speaker3.,0,1,1,0.1693851669988362,None,207.48528850000002,207.49379170799875,209.477249208001,209.47727049999958,209.47757337499934,[],[],[],[],[],[],[],False,209.50042699999904,,,,,,,,,,,,,,,,,,,,,,,,,,,,,,,,,,,,,103818,001,2024-08-04_15h14.08.018,5-32 ready-Group3 English Trained,2024.1.5,None,2024-08-04 15h14.13.881906 +0900,
Images/Speaker1.jpg,Images/Speaker2.jpg,Images/Speaker3.jpg,Images/Speaker4.jpg,Audio/Speaker3_En/P3-7-En.wav,Speaker3,گوینده۳,,,,,,,,0,0,0,58,0,49,49,46,,,,,209.50042699999904,,,,,,,,,,,,,,,,,,,,,,,,,,,,,,,,,,,,,,,,,,,,,,,,,,,,,,,,,,,,,,,,,,,,209.47897316599847,209.50042699999904,209.50042699999904,209.50042699999904,209.50042699999904,209.50984508333255,209.50042699999904,209.50042699999904,209.50042699999904,209.6584311660008,Incorrect! The correct answer is Speaker3.,0,1,1,0.1566078750001907,None,209.662443833,209.66893320799863,211.6597710829992,211.65978212499977,211.6599028749988,[],[],[],[],[],[],[],False,211.67895774999852,,,,,,,,,,,,,,,,,,,,,,,,,,,,,,,,,,,,,103818,001,2024-08-04_15h14.08.018,5-32 ready-Group3 English Trained,2024.1.5,None,2024-08-04 15h14.13.881906 +0900,
Images/Speaker1.jpg,Images/Speaker2.jpg,Images/Speaker3.jpg,Images/Speaker4.jpg,Audio/Speaker1_En/P1-12-En.wav,Speaker1,گوینده ۱,,,,,,,,0,0,0,58,0,50,50,11,,,,,211.67895774999852,,,,,,,,,,,,,,,,,,,,,,,,,,,,,,,,,,,,,,,,,,,,,,,,,,,,,,,,,,,,,,,,,,,,211.66031083300186,211.67895774999852,211.67895774999852,211.67895774999852,211.67895774999852,211.6762353746674,211.67895774999852,211.67895774999852,211.67895774999852,211.90937895800016,Correct!,1,1,1,0.22841558300206088,None,211.91312220799955,211.92380799999955,213.9163102499988,213.91631899999993,213.91643554099937,[],[],[],[],[],[],[],False,,,,,,,,,,,,,,,,,,,,,,,,,,,,,,,,,,,,,,103818,001,2024-08-04_15h14.08.018,5-32 ready-Group3 English Trained,2024.1.5,None,2024-08-04 15h14.13.881906 +0900,
Images/Speaker1.jpg,Images/Speaker2.jpg,Images/Speaker3.jpg,Images/Speaker4.jpg,Audio/Speaker2_En/P2-8-En.wav,Speaker2,گوینده۲,,,,,,,,0,0,0,58,0,51,51,27,,,,,213.93484691599951,,,,,,,,,,,,,,,,,,,,,,,,,,,,,,,,,,,,,,,,,,,,,,,,,,,,,,,,,,,,,,,,,,,,213.9168546660003,213.93484691599951,213.93484691599951,213.93484691599951,213.93484691599951,213.93294174966675,213.93484691599951,213.93484691599951,213.93484691599951,214.02494758299872,Incorrect! The correct answer is Speaker2.,0,1,1,0.08910779100187938,None,214.02909316600199,214.03976970800068,216.02418645800208,216.0241947909999,216.02428575000158,[],[],[],[],[],[],[],False,216.04318695799884,,,,,,,,,,,,,,,,,,,,,,,,,,,,,,,,,,,,,103818,001,2024-08-04_15h14.08.018,5-32 ready-Group3 English Trained,2024.1.5,None,2024-08-04 15h14.13.881906 +0900,
Images/Speaker1.jpg,Images/Speaker2.jpg,Images/Speaker3.jpg,Images/Speaker4.jpg,Audio/Speaker1_En/P1-20-En.wav,Speaker1,گوینده ۱,,,,,,,,0,0,0,58,0,52,52,19,,,,,216.04318695799884,,,,,,,,,,,,,,,,,,,,,,,,,,,,,,,,,,,,,,,,,,,,,,,,,,,,,,,,,,,,,,,,,,,,216.02471483300178,216.04318695799884,216.04318695799884,216.04318695799884,216.04318695799884,216.04058879166794,216.04318695799884,216.04318695799884,216.04318695799884,216.29305779100105,Correct!,1,1,1,0.24217429199779872,None,216.2971640830001,216.30537187500158,218.2892552910016,218.28926412500005,218.28935762499896,[],[],[],[],[],[],[],False,218.309149875,,,,,,,,,,,,,,,,,,,,,,,,,,,,,,,,,,,,,103818,001,2024-08-04_15h14.08.018,5-32 ready-Group3 English Trained,2024.1.5,None,2024-08-04 15h14.13.881906 +0900,
Images/Speaker1.jpg,Images/Speaker2.jpg,Images/Speaker3.jpg,Images/Speaker4.jpg,Audio/Speaker3_En/P3-15-En.wav,Speaker3,گوینده۳,,,,,,,,0,0,0,58,0,53,53,54,,,,,218.309149875,,,,,,,,,,,,,,,,,,,,,,,,,,,,,,,,,,,,,,,,,,,,,,,,,,,,,,,,,,,,,,,,,,,,218.2897911250002,218.309149875,218.309149875,218.309149875,218.309149875,218.3056652916678,218.309149875,218.309149875,218.309149875,218.517438916002,Incorrect! The correct answer is Speaker3.,0,1,1,0.19990833300107624,None,218.52126433300145,218.53136708300008,220.51863845800108,220.51864774999922,220.5187463330003,[],[],[],[],[],[],[],False,220.5383784580008,,,,,,,,,,,,,,,,,,,,,,,,,,,,,,,,,,,,,103818,001,2024-08-04_15h14.08.018,5-32 ready-Group3 English Trained,2024.1.5,None,2024-08-04 15h14.13.881906 +0900,
Images/Speaker1.jpg,Images/Speaker2.jpg,Images/Speaker3.jpg,Images/Speaker4.jpg,Audio/Speaker2_En/P2-11-En.wav,Speaker2,گوینده۲,,,,,,,,0,0,0,58,0,54,54,30,,,,,220.5383784580008,,,,,,,,,,,,,,,,,,,,,,,,,,,,,,,,,,,,,,,,,,,,,,,,,,,,,,,,,,,,,,,,,,,,220.51914124999894,220.5383784580008,220.5383784580008,220.5383784580008,220.5383784580008,220.53507370766627,220.5383784580008,220.5383784580008,220.5383784580008,220.8826850000005,Incorrect! The correct answer is Speaker2.,0,1,1,0.34328820800146786,None,220.88690304099873,220.89795049999884,222.88379500000156,222.88380437500018,222.88391604099888,[],[],[],[],[],[],[],False,222.90361341600146,,,,,,,,,,,,,,,,,,,,,,,,,,,,,,,,,,,,,103818,001,2024-08-04_15h14.08.018,5-32 ready-Group3 English Trained,2024.1.5,None,2024-08-04 15h14.13.881906 +0900,
Images/Speaker1.jpg,Images/Speaker2.jpg,Images/Speaker3.jpg,Images/Speaker4.jpg,Audio/Speaker3_En/P3-6-En.wav,Speaker3,گوینده۳,,,,,,,,0,0,0,58,0,55,55,45,,,,,222.90361341600146,,,,,,,,,,,,,,,,,,,,,,,,,,,,,,,,,,,,,,,,,,,,,,,,,,,,,,,,,,,,,,,,,,,,222.8843425410014,222.90361341600146,222.90361341600146,222.90361341600146,222.90361341600146,222.90027408266567,222.90361341600146,222.90361341600146,222.90361341600146,223.15764370800025,Incorrect! The correct answer is Speaker3.,0,1,1,0.2503430840006331,None,223.16157437500078,223.1725946660008,225.1589737079994,225.15898220799863,225.15906762500163,[],[],[],[],[],[],[],False,225.17789987500146,,,,,,,,,,,,,,,,,,,,,,,,,,,,,,,,,,,,,103818,001,2024-08-04_15h14.08.018,5-32 ready-Group3 English Trained,2024.1.5,None,2024-08-04 15h14.13.881906 +0900,
Images/Speaker1.jpg,Images/Speaker2.jpg,Images/Speaker3.jpg,Images/Speaker4.jpg,Audio/Speaker3_En/P3-14-En.wav,Speaker3,گوینده۳,,,,,,,,0,0,0,58,0,56,56,53,,,,,225.17789987500146,,,,,,,,,,,,,,,,,,,,,,,,,,,,,,,,,,,,,,,,,,,,,,,,,,,,,,,,,,,,,,,,,,,,225.15944470799877,225.17789987500146,225.17789987500146,225.17789987500146,225.17789987500146,225.1753967076659,225.17789987500146,225.17789987500146,225.17789987500146,225.38049608300207,Incorrect! The correct answer is Speaker3.,0,1,1,0.20007654199798708,None,225.38473724999858,225.39096591600173,227.38400712500152,227.38402074999976,227.38411933300085,[],[],[],[],[],[],[],False,227.40308620799988,,,,,,,,,,,,,,,,,,,,,,,,,,,,,,,,,,,,,103818,001,2024-08-04_15h14.08.018,5-32 ready-Group3 English Trained,2024.1.5,None,2024-08-04 15h14.13.881906 +0900,
Images/Speaker1.jpg,Images/Speaker2.jpg,Images/Speaker3.jpg,Images/Speaker4.jpg,Audio/Speaker1_En/P1-16-En.wav,Speaker1,گوینده ۱,,,,,,,,0,0,0,58,0,57,57,15,,,,,227.40308620799988,,,,,,,,,,,,,,,,,,,,,,,,,,,,,,,,,,,,,,,,,,,,,,,,,,,,,,,,,,,,,,,,,,,,227.38456579099875,227.40308620799988,227.40308620799988,227.40308620799988,227.40308620799988,227.40043808266662,227.40308620799988,227.40308620799988,227.40308620799988,227.58107374999963,Correct!,1,1,1,None,None,227.58549850000054,227.5941789999997,229.58592716600106,229.58597291600017,229.58630474999882,[],[],[],[],[],[],[],False,,,,,,,,,,,,,,,,,,,,,,,,,,,,,,,,,,,,,,103818,001,2024-08-04_15h14.08.018,5-32 ready-Group3 English Trained,2024.1.5,None,2024-08-04 15h14.13.881906 +0900,
Images/Speaker1.jpg,Images/Speaker2.jpg,Images/Speaker3.jpg,Images/Speaker4.jpg,Audio/Speaker1_En/P1-1-En.wav,Speaker1,گوینده ۱,,,,,,,,0,0,0,58,0,58,58,0,,,,,229.61016595800174,,,,,,,,,,,,,,,,,,,,,,,,,,,,,,,,,,,,,,,,,,,,,,,,,,,,,,,,,,,,,,,,,,,,229.58769875000144,229.61016595800174,229.61016595800174,229.61016595800174,229.61016595800174,229.6190939583326,229.61016595800174,229.61016595800174,229.61016595800174,229.85835462500108,Correct!,1,1,1,0.24737258299865061,None,229.86232625000048,229.8688251249987,231.85224112500146,231.85226537500057,231.8525977499994,[],[],[],[],[],[],[],False,231.8729396660019,,,,,,,,,,,,,,,,,,,,,,,,,,,,,,,,,,,,,103818,001,2024-08-04_15h14.08.018,5-32 ready-Group3 English Trained,2024.1.5,None,2024-08-04 15h14.13.881906 +0900,
Images/Speaker1.jpg,Images/Speaker2.jpg,Images/Speaker3.jpg,Images/Speaker4.jpg,Audio/Speaker4_En/P4-3-En.wav,Speaker4,گوینده۴,,,,,,,,0,0,0,58,0,59,59,62,,,,,231.8729396660019,,,,,,,,,,,,,,,,,,,,,,,,,,,,,,,,,,,,,,,,,,,,,,,,,,,,,,,,,,,,,,,,,,,,231.85412358300164,231.8729396660019,231.8729396660019,231.8729396660019,231.8729396660019,231.86797399966625,231.8729396660019,231.8729396660019,231.8729396660019,232.17298820799988,Incorrect! The correct answer is Speaker4.,0,1,1,0.29260016699845437,None,232.17699629100025,232.1862529579994,234.16923229099848,234.16924387499967,234.1693598330021,[],[],[],[],[],[],[],False,234.18950366599893,,,,,,,,,,,,,,,,,,,,,,,,,,,,,,,,,,,,,103818,001,2024-08-04_15h14.08.018,5-32 ready-Group3 English Trained,2024.1.5,None,2024-08-04 15h14.13.881906 +0900,
Images/Speaker1.jpg,Images/Speaker2.jpg,Images/Speaker3.jpg,Images/Speaker4.jpg,Audio/Speaker3_En/P3-8-En.wav,Speaker3,گوینده۳,,,,,,,,0,0,0,58,0,60,60,47,,,,,234.18950366599893,,,,,,,,,,,,,,,,,,,,,,,,,,,,,,,,,,,,,,,,,,,,,,,,,,,,,,,,,,,,,,,,,,,,234.1697803749994,234.18950366599893,234.18950366599893,234.18950366599893,234.18950366599893,234.1855939166674,234.18950366599893,234.18950366599893,234.18950366599893,234.78325429100005,Incorrect! The correct answer is Speaker3.,0,1,1,0.5841514170024311,None,234.78700491600102,234.7978944159986,236.79178200000024,236.79179091599872,236.79188150000118,[],[],[],[],[],[],[],False,,,,,,,,,,,,,,,,,,,,,,,,,,,,,,,,,,,,,,103818,001,2024-08-04_15h14.08.018,5-32 ready-Group3 English Trained,2024.1.5,None,2024-08-04 15h14.13.881906 +0900,
Images/Speaker1.jpg,Images/Speaker2.jpg,Images/Speaker3.jpg,Images/Speaker4.jpg,Audio/Speaker2_En/P2-19-En.wav,Speaker2,گوینده۲,,,,,,,,0,0,0,58,0,61,61,38,,,,,236.8106787910001,,,,,,,,,,,,,,,,,,,,,,,,,,,,,,,,,,,,,,,,,,,,,,,,,,,,,,,,,,,,,,,,,,,,236.79228941600013,236.8106787910001,236.8106787910001,236.8106787910001,236.8106787910001,236.80840904166715,236.8106787910001,236.8106787910001,236.8106787910001,237.0585475830012,Incorrect! The correct answer is Speaker2.,0,1,1,0.2374199169971689,None,237.06234212500203,237.07278587499968,239.0580122499996,239.05802154100093,239.05813245800164,[],[],[],[],[],[],[],False,239.08007095799985,,,,,,,,,,,,,,,,,,,,,,,,,,,,,,,,,,,,,103818,001,2024-08-04_15h14.08.018,5-32 ready-Group3 English Trained,2024.1.5,None,2024-08-04 15h14.13.881906 +0900,
Images/Speaker1.jpg,Images/Speaker2.jpg,Images/Speaker3.jpg,Images/Speaker4.jpg,Audio/Speaker2_En/P2-2-En.wav,Speaker2,گوینده۲,,,,,,,,0,0,0,58,0,62,62,21,,,,,239.08007095799985,,,,,,,,,,,,,,,,,,,,,,,,,,,,,,,,,,,,,,,,,,,,,,,,,,,,,,,,,,,,,,,,,,,,239.05938162500024,239.08007095799985,239.08007095799985,239.08007095799985,239.08007095799985,239.07441679166757,239.08007095799985,239.08007095799985,239.08007095799985,239.28893879099996,Incorrect! The correct answer is Speaker2.,0,1,1,0.2061182090001239,None,239.2929413330021,239.29919504099962,241.2934180000011,241.2934284160001,241.29351833300097,[],[],[],[],[],[],[],False,,,,,,,,,,,,,,,,,,,,,,,,,,,,,,,,,,,,,,103818,001,2024-08-04_15h14.08.018,5-32 ready-Group3 English Trained,2024.1.5,None,2024-08-04 15h14.13.881906 +0900,
Images/Speaker1.jpg,Images/Speaker2.jpg,Images/Speaker3.jpg,Images/Speaker4.jpg,Audio/Speaker3_En/P3-11-En.wav,Speaker3,گوینده۳,,,,,,,,0,0,0,58,0,63,63,50,,,,,241.3131007910015,,,,,,,,,,,,,,,,,,,,,,,,,,,,,,,,,,,,,,,,,,,,,,,,,,,,,,,,,,,,,,,,,,,,241.29391187500005,241.3131007910015,241.3131007910015,241.3131007910015,241.3131007910015,241.3100526246674,241.3131007910015,241.3131007910015,241.3131007910015,241.63484445799986,Incorrect! The correct answer is Speaker3.,0,1,1,0.319491874997766,None,241.63889266600017,241.64960437500122,243.63605916600136,243.63606875000187,243.63620433300093,[],[],[],[],[],[],[],False,243.6551283330009,,,,,,,,,,,,,,,,,,,,,,,,,,,,,,,,,,,,,103818,001,2024-08-04_15h14.08.018,5-32 ready-Group3 English Trained,2024.1.5,None,2024-08-04 15h14.13.881906 +0900,
Images/Speaker1.jpg,Images/Speaker2.jpg,Images/Speaker3.jpg,Images/Speaker4.jpg,Audio/Speaker2_En/P2-6-En.wav,Speaker2,گوینده۲,,,,,,,,0,0,0,58,0,64,64,25,,,,,243.6551283330009,,,,,,,,,,,,,,,,,,,,,,,,,,,,,,,,,,,,,,,,,,,,,,,,,,,,,,,,,,,,,,,,,,,,243.63664320799944,243.6551283330009,243.6551283330009,243.6551283330009,243.6551283330009,243.65239966666584,243.6551283330009,243.6551283330009,243.6551283330009,244.03424758300025,Incorrect! The correct answer is Speaker2.,0,1,1,0.3698783750005532,None,244.03797295800177,244.0489783330013,246.03213233299903,246.03215108299992,246.03225174999898,[],[],[],[],[],[],[],False,246.05100737500106,,,,,,,,,,,,,,,,,,,,,,,,,,,,,,,,,,,,,103818,001,2024-08-04_15h14.08.018,5-32 ready-Group3 English Trained,2024.1.5,None,2024-08-04 15h14.13.881906 +0900,
Images/Speaker1.jpg,Images/Speaker2.jpg,Images/Speaker3.jpg,Images/Speaker4.jpg,Audio/Speaker1_En/P1-17-En.wav,Speaker1,گوینده ۱,,,,,,,,0,0,0,58,0,65,65,16,,,,,246.05100737500106,,,,,,,,,,,,,,,,,,,,,,,,,,,,,,,,,,,,,,,,,,,,,,,,,,,,,,,,,,,,,,,,,,,,246.03266170799907,246.05100737500106,246.05100737500106,246.05100737500106,246.05100737500106,246.04859574966784,246.05100737500106,246.05100737500106,246.05100737500106,246.37210608299938,Correct!,1,1,1,0.31639895899934345,None,246.37608645799992,246.386604583,248.3758659999985,248.37589075000142,248.3763378750009,[],[],[],[],[],[],[],False,248.3961822909987,,,,,,,,,,,,,,,,,,,,,,,,,,,,,,,,,,,,,103818,001,2024-08-04_15h14.08.018,5-32 ready-Group3 English Trained,2024.1.5,None,2024-08-04 15h14.13.881906 +0900,
Images/Speaker1.jpg,Images/Speaker2.jpg,Images/Speaker3.jpg,Images/Speaker4.jpg,Audio/Speaker3_En/P3-9-En.wav,Speaker3,گوینده۳,,,,,,,,0,0,0,58,0,66,66,48,,,,,248.3961822909987,,,,,,,,,,,,,,,,,,,,,,,,,,,,,,,,,,,,,,,,,,,,,,,,,,,,,,,,,,,,,,,,,,,,248.37799529100084,248.3961822909987,248.3961822909987,248.3961822909987,248.3961822909987,248.39166441666774,248.3961822909987,248.3961822909987,248.3961822909987,248.63510762499936,Incorrect! The correct answer is Speaker3.,0,1,1,0.2318535830017936,None,248.6389292499989,248.64758495800197,250.6358796659988,250.63590541600206,250.63621400000193,[],[],[],[],[],[],[],False,250.6546965410016,,,,,,,,,,,,,,,,,,,,,,,,,,,,,,,,,,,,,103818,001,2024-08-04_15h14.08.018,5-32 ready-Group3 English Trained,2024.1.5,None,2024-08-04 15h14.13.881906 +0900,
Images/Speaker1.jpg,Images/Speaker2.jpg,Images/Speaker3.jpg,Images/Speaker4.jpg,Audio/Speaker2_En/P2-7-En.wav,Speaker2,گوینده۲,,,,,,,,0,0,0,58,0,67,67,26,,,,,250.6546965410016,,,,,,,,,,,,,,,,,,,,,,,,,,,,,,,,,,,,,,,,,,,,,,,,,,,,,,,,,,,,,,,,,,,,250.637486874999,250.6546965410016,250.6546965410016,250.6546965410016,250.6546965410016,250.65158212466875,250.6546965410016,250.6546965410016,250.6546965410016,250.891192957999,Incorrect! The correct answer is Speaker2.,0,1,1,0.22762845800025389,None,250.8951413750001,250.90591058300197,252.8934530000006,252.89348674999928,252.893812833001,[],[],[],[],[],[],[],False,252.91407404100028,,,,,,,,,,,,,,,,,,,,,,,,,,,,,,,,,,,,,103818,001,2024-08-04_15h14.08.018,5-32 ready-Group3 English Trained,2024.1.5,None,2024-08-04 15h14.13.881906 +0900,
Images/Speaker1.jpg,Images/Speaker2.jpg,Images/Speaker3.jpg,Images/Speaker4.jpg,Audio/Speaker1_En/P1-6-En.wav,Speaker1,گوینده ۱,,,,,,,,0,0,0,58,0,68,68,5,,,,,252.91407404100028,,,,,,,,,,,,,,,,,,,,,,,,,,,,,,,,,,,,,,,,,,,,,,,,,,,,,,,,,,,,,,,,,,,,252.89509666600134,252.91407404100028,252.91407404100028,252.91407404100028,252.91407404100028,252.90915695766697,252.91407404100028,252.91407404100028,252.91407404100028,253.12199495800087,Correct!,1,1,1,0.20317737499863142,None,253.12611179099986,253.13659545799965,255.12425616600012,255.12426579100065,255.12438666600065,[],[],[],[],[],[],[],False,255.1441893750016,,,,,,,,,,,,,,,,,,,,,,,,,,,,,,,,,,,,,103818,001,2024-08-04_15h14.08.018,5-32 ready-Group3 English Trained,2024.1.5,None,2024-08-04 15h14.13.881906 +0900,
Images/Speaker1.jpg,Images/Speaker2.jpg,Images/Speaker3.jpg,Images/Speaker4.jpg,Audio/Speaker1_En/P1-10-En.wav,Speaker1,گوینده ۱,,,,,,,,0,0,0,58,0,69,69,9,,,,,255.1441893750016,,,,,,,,,,,,,,,,,,,,,,,,,,,,,,,,,,,,,,,,,,,,,,,,,,,,,,,,,,,,,,,,,,,,255.12481162499898,255.1441893750016,255.1441893750016,255.1441893750016,255.1441893750016,255.1407034576662,255.1441893750016,255.1441893750016,255.1441893750016,255.3415880829998,Correct!,1,1,1,0.18618754199997056,None,255.34584229100074,255.3522965000011,257.34655662500154,257.34658883299926,257.3469449580007,[],[],[],[],[],[],[],False,,,,,,,,,,,,,,,,,,,,,,,,,,,,,,,,,,,,,,103818,001,2024-08-04_15h14.08.018,5-32 ready-Group3 English Trained,2024.1.5,None,2024-08-04 15h14.13.881906 +0900,
Images/Speaker1.jpg,Images/Speaker2.jpg,Images/Speaker3.jpg,Images/Speaker4.jpg,Audio/Speaker1_En/P1-11-En.wav,Speaker1,گوینده ۱,,,,,,,,0,0,0,58,0,70,70,10,,,,,257.3671501659992,,,,,,,,,,,,,,,,,,,,,,,,,,,,,,,,,,,,,,,,,,,,,,,,,,,,,,,,,,,,,,,,,,,,257.3484924580007,257.3671501659992,257.3671501659992,257.3671501659992,257.3671501659992,257.36305095766534,257.3671501659992,257.3671501659992,257.3671501659992,257.58876020800017,Correct!,1,1,1,0.21276066700011143,None,257.59302783300154,257.59643016599875,259.58725658299954,259.5872962909998,259.58783016600137,[],[],[],[],[],[],[],False,259.6092800410006,,,,,,,,,,,,,,,,,,,,,,,,,,,,,,,,,,,,,103818,001,2024-08-04_15h14.08.018,5-32 ready-Group3 English Trained,2024.1.5,None,2024-08-04 15h14.13.881906 +0900,
Images/Speaker1.jpg,Images/Speaker2.jpg,Images/Speaker3.jpg,Images/Speaker4.jpg,Audio/Speaker4_En/P4-4-En.wav,Speaker4,گوینده۴,,,,,,,,0,0,0,58,0,71,71,63,,,,,259.6092800410006,,,,,,,,,,,,,,,,,,,,,,,,,,,,,,,,,,,,,,,,,,,,,,,,,,,,,,,,,,,,,,,,,,,,259.58920379100164,259.6092800410006,259.6092800410006,259.6092800410006,259.6092800410006,259.60311191666574,259.6092800410006,259.6092800410006,259.6092800410006,259.82461933300146,Incorrect! The correct answer is Speaker4.,0,1,1,0.208602916001837,None,259.8283367080003,259.8397764580004,261.8268046660014,261.8268134579994,261.8269153330002,[],[],[],[],[],[],[],False,261.8449783750002,,,,,,,,,,,,,,,,,,,,,,,,,,,,,,,,,,,,,103818,001,2024-08-04_15h14.08.018,5-32 ready-Group3 English Trained,2024.1.5,None,2024-08-04 15h14.13.881906 +0900,
Images/Speaker1.jpg,Images/Speaker2.jpg,Images/Speaker3.jpg,Images/Speaker4.jpg,Audio/Speaker3_En/P3-20-En.wav,Speaker3,گوینده۳,,,,,,,,0,0,0,58,0,72,72,59,,,,,261.8449783750002,,,,,,,,,,,,,,,,,,,,,,,,,,,,,,,,,,,,,,,,,,,,,,,,,,,,,,,,,,,,,,,,,,,,261.8273377080004,261.8449783750002,261.8449783750002,261.8449783750002,261.8449783750002,261.84315962466667,261.8449783750002,261.8449783750002,261.8449783750002,262.07628241600105,Incorrect! The correct answer is Speaker3.,0,1,1,0.21948079199864878,None,262.0802557909992,262.0913681659986,264.077337499999,264.0773649160001,264.0776540000006,[],[],[],[],[],[],[],False,264.09911816599924,,,,,,,,,,,,,,,,,,,,,,,,,,,,,,,,,,,,,103818,001,2024-08-04_15h14.08.018,5-32 ready-Group3 English Trained,2024.1.5,None,2024-08-04 15h14.13.881906 +0900,
Images/Speaker1.jpg,Images/Speaker2.jpg,Images/Speaker3.jpg,Images/Speaker4.jpg,Audio/Speaker4_En/P4-7-En.wav,Speaker4,گوینده۴,,,,,,,,0,0,0,58,0,73,73,66,,,,,264.09911816599924,,,,,,,,,,,,,,,,,,,,,,,,,,,,,,,,,,,,,,,,,,,,,,,,,,,,,,,,,,,,,,,,,,,,264.0789717500011,264.09911816599924,264.09911816599924,264.09911816599924,264.09911816599924,264.09299037466576,264.09911816599924,264.09911816599924,264.09911816599924,264.2631523330019,Incorrect! The correct answer is Speaker4.,0,1,1,0.1625705830010702,None,264.2671512500019,264.2786482500014,266.2673130410003,266.26732779099984,266.2674300409999,[],[],[],[],[],[],[],False,,,,,,,,,,,,,,,,,,,,,,,,,,,,,,,,,,,,,,103818,001,2024-08-04_15h14.08.018,5-32 ready-Group3 English Trained,2024.1.5,None,2024-08-04 15h14.13.881906 +0900,
Images/Speaker1.jpg,Images/Speaker2.jpg,Images/Speaker3.jpg,Images/Speaker4.jpg,Audio/Speaker4_En/P4-5-En.wav,Speaker4,گوینده۴,,,,,,,,0,0,0,58,0,74,74,64,,,,,266.28643108300093,,,,,,,,,,,,,,,,,,,,,,,,,,,,,,,,,,,,,,,,,,,,,,,,,,,,,,,,,,,,,,,,,,,,266.26784204100113,266.28643108300093,266.28643108300093,266.28643108300093,266.28643108300093,266.28391633266824,266.28643108300093,266.28643108300093,266.28643108300093,266.5568776660002,Incorrect! The correct answer is Speaker4.,0,1,1,0.26934354200056987,None,266.56120287500016,266.5676457080008,268.5618875,268.56191504100207,268.5622656660016,[],[],[],[],[],[],[],False,,,,,,,,,,,,,,,,,,,,,,,,,,,,,,,,,,,,,,103818,001,2024-08-04_15h14.08.018,5-32 ready-Group3 English Trained,2024.1.5,None,2024-08-04 15h14.13.881906 +0900,
Images/Speaker1.jpg,Images/Speaker2.jpg,Images/Speaker3.jpg,Images/Speaker4.jpg,Audio/Speaker1_En/P1-2-En.wav,Speaker1,گوینده ۱,,,,,,,,0,0,0,58,0,75,75,1,,,,,268.5865789160016,,,,,,,,,,,,,,,,,,,,,,,,,,,,,,,,,,,,,,,,,,,,,,,,,,,,,,,,,,,,,,,,,,,,268.5638344580002,268.5865789160016,268.5865789160016,268.5865789160016,268.5865789160016,268.5950217083341,268.5865789160016,268.5865789160016,268.5865789160016,268.8513431249994,Correct!,1,1,1,0.2521838339998794,None,268.8555489999999,268.8659054999989,270.8495393330013,270.84954908299915,270.8496494579995,[],[],[],[],[],[],[],False,270.8688841660005,,,,,,,,,,,,,,,,,,,,,,,,,,,,,,,,,,,,,103818,001,2024-08-04_15h14.08.018,5-32 ready-Group3 English Trained,2024.1.5,None,2024-08-04 15h14.13.881906 +0900,
Images/Speaker1.jpg,Images/Speaker2.jpg,Images/Speaker3.jpg,Images/Speaker4.jpg,Audio/Speaker3_En/P3-3-En.wav,Speaker3,گوینده۳,,,,,,,,0,0,0,58,0,76,76,42,,,,,270.8688841660005,,,,,,,,,,,,,,,,,,,,,,,,,,,,,,,,,,,,,,,,,,,,,,,,,,,,,,,,,,,,,,,,,,,,270.850058,270.8688841660005,270.8688841660005,270.8688841660005,270.8688841660005,270.86597337466833,270.8688841660005,270.8688841660005,270.8688841660005,271.2133615410021,Incorrect! The correct answer is Speaker3.,0,1,1,0.3397560830017028,None,271.21716804099924,271.2288743329991,273.21143379099885,273.21144383299907,273.2115437079992,[],[],[],[],[],[],[],False,273.23070158300106,,,,,,,,,,,,,,,,,,,,,,,,,,,,,,,,,,,,,103818,001,2024-08-04_15h14.08.018,5-32 ready-Group3 English Trained,2024.1.5,None,2024-08-04 15h14.13.881906 +0900,
Images/Speaker1.jpg,Images/Speaker2.jpg,Images/Speaker3.jpg,Images/Speaker4.jpg,Audio/Speaker1_En/P1-13-En.wav,Speaker1,گوینده ۱,,,,,,,,0,0,0,58,0,77,77,12,,,,,273.23070158300106,,,,,,,,,,,,,,,,,,,,,,,,,,,,,,,,,,,,,,,,,,,,,,,,,,,,,,,,,,,,,,,,,,,,273.21195487500154,273.23070158300106,273.23070158300106,273.23070158300106,273.23070158300106,273.22790291666774,273.23070158300106,273.23070158300106,273.23070158300106,273.41708070800087,Correct!,1,1,1,0.17974583400064148,None,273.42122333299994,273.431584416001,275.4151353749985,275.41514570800064,275.4152447080014,[],[],[],[],[],[],[],False,275.43408404100046,,,,,,,,,,,,,,,,,,,,,,,,,,,,,,,,,,,,,103818,001,2024-08-04_15h14.08.018,5-32 ready-Group3 English Trained,2024.1.5,None,2024-08-04 15h14.13.881906 +0900,
Images/Speaker1.jpg,Images/Speaker2.jpg,Images/Speaker3.jpg,Images/Speaker4.jpg,Audio/Speaker4_En/P4-13-En.wav,Speaker4,گوینده۴,,,,,,,,0,0,0,58,0,78,78,72,,,,,275.43408404100046,,,,,,,,,,,,,,,,,,,,,,,,,,,,,,,,,,,,,,,,,,,,,,,,,,,,,,,,,,,,,,,,,,,,275.4156394999991,275.43408404100046,275.43408404100046,275.43408404100046,275.43408404100046,275.43158899966534,275.43408404100046,275.43408404100046,275.43408404100046,275.72617674999856,Incorrect! The correct answer is Speaker4.,0,1,1,0.28672616699986975,None,275.73004500000025,275.7415337499988,277.72569108300013,277.7256997910008,277.72579420799957,[],[],[],[],[],[],[],False,277.7442322499992,,,,,,,,,,,,,,,,,,,,,,,,,,,,,,,,,,,,,103818,001,2024-08-04_15h14.08.018,5-32 ready-Group3 English Trained,2024.1.5,None,2024-08-04 15h14.13.881906 +0900,
Images/Speaker1.jpg,Images/Speaker2.jpg,Images/Speaker3.jpg,Images/Speaker4.jpg,Audio/Speaker2_En/P2-16-En.wav,Speaker2,گوینده۲,,,,,,,,0,0,0,58,0,79,79,35,,,,,277.7442322499992,,,,,,,,,,,,,,,,,,,,,,,,,,,,,,,,,,,,,,,,,,,,,,,,,,,,,,,,,,,,,,,,,,,,277.7261952500012,277.7442322499992,277.7442322499992,277.7442322499992,277.7442322499992,277.7421120826659,277.7442322499992,277.7442322499992,277.7442322499992,278.22455179100143,Incorrect! The correct answer is Speaker2.,0,1,1,0.4776124999989406,None,278.2284070829992,278.23989124999935,280.22866220799915,280.22870141599924,280.22906341600174,[],[],[],[],[],[],[],False,,,,,,,,,,,,,,,,,,,,,,,,,,,,,,,,,,,,,,103818,001,2024-08-04_15h14.08.018,5-32 ready-Group3 English Trained,2024.1.5,None,2024-08-04 15h14.13.881906 +0900,
Images/Speaker1.jpg,Images/Speaker2.jpg,Images/Speaker3.jpg,Images/Speaker4.jpg,Audio/Speaker3_En/P3-19-En.wav,Speaker3,گوینده۳,,,,,,,,0,0,0,58,,,,,,,,,,,,,,,,,,,,,,,,,,,,,,,,,,,,,,,,,,,,,,,,,,,,,,,,,,,,,,,,,,,,,,,,,,,,,,,,,,,,,,,,,,,,,,,,,,,,,,,,,,,,,,,280.23049329100104,0.0,False,280.23164820799866,,,,,,,,,,,,,,,,,,,,,,,,,,,,,103818,001,2024-08-04_15h14.08.018,5-32 ready-Group3 English Trained,2024.1.5,None,2024-08-04 15h14.13.881906 +0900,
Images/Speaker1.jpg,Images/Speaker2.jpg,Images/Speaker3.jpg,Images/Speaker4.jpg,Audio/Speaker3_En/P3-6-En.wav,Speaker3,گوینده۳,,,,,,,,0,1,1,4,0,0,0,45,,,,,280.27223016599964,,,,,,,,,,,,,,,,,,,,,,,,,,,,,,,,,,,,,,,,,,,,,,,,,,,,,,,,,,,,,,,,,,,,280.25510341599875,280.27223016599964,280.27223016599964,280.27223016599964,280.27223016599964,280.27849691599914,280.27223016599964,280.27223016599964,280.27223016599964,287.02299120799944,Correct!,1,1,3,6.744876000000659,None,287.0233861660017,287.03351233300054,289.0176709160005,289.01769683300154,289.0181530000009,[],[],[],[],[],[],[],False,289.03716387500026,,,,,,,,,,,,,,,,,,,,,,,,,,,,,,,,,,,,,103818,001,2024-08-04_15h14.08.018,5-32 ready-Group3 English Trained,2024.1.5,None,2024-08-04 15h14.13.881906 +0900,
Images/Speaker1.jpg,Images/Speaker2.jpg,Images/Speaker3.jpg,Images/Speaker4.jpg,Audio/Speaker3_En/P3-12-En.wav,Speaker3,گوینده۳,,,,,,,,0,1,1,4,0,1,1,51,,,,,289.03716387500026,,,,,,,,,,,,,,,,,,,,,,,,,,,,,,,,,,,,,,,,,,,,,,,,,,,,,,,,,,,,,,,,,,,,289.0204972499996,289.03716387500026,289.03716387500026,289.03716387500026,289.03716387500026,289.0335375416655,289.03716387500026,289.03716387500026,289.03716387500026,290.5033778750003,Correct!,1,1,3,1.4590884579993144,None,290.50759220799955,290.51466558299944,292.49887629099976,292.49890058299934,292.49924391600143,[],[],[],[],[],[],[],False,292.51762816599876,,,,,,,,,,,,,,,,,,,,,,,,,,,,,,,,,,,,,103818,001,2024-08-04_15h14.08.018,5-32 ready-Group3 English Trained,2024.1.5,None,2024-08-04 15h14.13.881906 +0900,
Images/Speaker1.jpg,Images/Speaker2.jpg,Images/Speaker3.jpg,Images/Speaker4.jpg,Audio/Speaker3_En/P3-16-En.wav,Speaker3,گوینده۳,,,,,,,,0,1,1,4,0,2,2,55,,,,,292.51762816599876,,,,,,,,,,,,,,,,,,,,,,,,,,,,,,,,,,,,,,,,,,,,,,,,,,,,,,,,,,,,,,,,,,,,292.5005895409995,292.51762816599876,292.51762816599876,292.51762816599876,292.51762816599876,292.5147733326669,292.51762816599876,292.51762816599876,292.51762816599876,295.3514945829993,Correct!,1,1,3,2.826648916998238,None,295.35170283299885,295.3581668750012,297.3422113330016,297.34222116599994,297.34232133299884,[],[],[],[],[],[],[],False,297.3611451659999,,,,,,,,,,,,,,,,,,,,,,,,,,,,,,,,,,,,,103818,001,2024-08-04_15h14.08.018,5-32 ready-Group3 English Trained,2024.1.5,None,2024-08-04 15h14.13.881906 +0900,
Images/Speaker1.jpg,Images/Speaker2.jpg,Images/Speaker3.jpg,Images/Speaker4.jpg,Audio/Speaker1_En/P1-4-En.wav,Speaker1,گوینده ۱,,,,,,,,0,1,1,4,0,3,3,13,,,,,297.3611451659999,,,,,,,,,,,,,,,,,,,,,,,,,,,,,,,,,,,,,,,,,,,,,,,,,,,,,,,,,,,,,,,,,,,,297.3427965830015,297.3611451659999,297.3611451659999,297.3611451659999,297.3611451659999,297.35868458266873,297.3611451659999,297.3611451659999,297.3611451659999,298.3716443750018,Correct!,1,1,1,1.00907591700161,None,298.3754560000016,298.38193520799905,300.3650546249992,300.3650701250008,300.3651703329997,[],[],[],[],[],[],[],False,300.38330241600124,,,,,,,,,,,,,,,,,,,,,,,,,,,,,,,,,,,,,103818,001,2024-08-04_15h14.08.018,5-32 ready-Group3 English Trained,2024.1.5,None,2024-08-04 15h14.13.881906 +0900,
Images/Speaker1.jpg,Images/Speaker2.jpg,Images/Speaker3.jpg,Images/Speaker4.jpg,Audio/Speaker1_En/P1-11-En.wav,Speaker1,گوینده ۱,,,,,,,,0,1,1,4,0,4,4,10,,,,,300.38330241600124,,,,,,,,,,,,,,,,,,,,,,,,,,,,,,,,,,,,,,,,,,,,,,,,,,,,,,,,,,,,,,,,,,,,300.36558462500034,300.38330241600124,300.38330241600124,300.38330241600124,300.38330241600124,300.38150904166855,300.38330241600124,300.38330241600124,300.38330241600124,301.82587854099984,Correct!,1,1,1,1.4385819999988598,None,301.8298383330002,301.8364218329989,303.8230068330013,303.823016958002,303.82311804100027,[],[],[],[],[],[],[],False,303.84054008300154,,,,,,,,,,,,,,,,,,,,,,,,,,,,,,,,,,,,,103818,001,2024-08-04_15h14.08.018,5-32 ready-Group3 English Trained,2024.1.5,None,2024-08-04 15h14.13.881906 +0900,
Images/Speaker1.jpg,Images/Speaker2.jpg,Images/Speaker3.jpg,Images/Speaker4.jpg,Audio/Speaker3_En/P3-8-En.wav,Speaker3,گوینده۳,,,,,,,,0,1,1,4,0,5,5,47,,,,,303.84054008300154,,,,,,,,,,,,,,,,,,,,,,,,,,,,,,,,,,,,,,,,,,,,,,,,,,,,,,,,,,,,,,,,,,,,303.8235209580016,303.84054008300154,303.84054008300154,303.84054008300154,303.84054008300154,303.8394302916679,303.84054008300154,303.84054008300154,303.84054008300154,305.898273666,Correct!,1,1,3,2.0535333340012585,None,305.90215233300114,305.9088248750013,307.89917145800064,307.8991810410007,307.8992878329991,[],[],[],[],[],[],[],False,307.91858449999927,,,,,,,,,,,,,,,,,,,,,,,,,,,,,,,,,,,,,103818,001,2024-08-04_15h14.08.018,5-32 ready-Group3 English Trained,2024.1.5,None,2024-08-04 15h14.13.881906 +0900,
Images/Speaker1.jpg,Images/Speaker2.jpg,Images/Speaker3.jpg,Images/Speaker4.jpg,Audio/Speaker3_En/P3-18-En.wav,Speaker3,گوینده۳,,,,,,,,0,1,1,4,0,6,6,57,,,,,307.91858449999927,,,,,,,,,,,,,,,,,,,,,,,,,,,,,,,,,,,,,,,,,,,,,,,,,,,,,,,,,,,,,,,,,,,,307.89970495799935,307.91858449999927,307.91858449999927,307.91858449999927,307.91858449999927,307.91563149966555,307.91858449999927,307.91858449999927,307.91858449999927,309.093982958002,Incorrect! The correct answer is Speaker3.,0,1,4,1.1686472090004827,None,309.09799720799856,309.1089327080008,311.09430670800066,311.0943289579991,311.09463808299915,[],[],[],[],[],[],[],False,311.1175720409992,,,,,,,,,,,,,,,,,,,,,,,,,,,,,,,,,,,,,103818,001,2024-08-04_15h14.08.018,5-32 ready-Group3 English Trained,2024.1.5,None,2024-08-04 15h14.13.881906 +0900,
Images/Speaker1.jpg,Images/Speaker2.jpg,Images/Speaker3.jpg,Images/Speaker4.jpg,Audio/Speaker4_En/P4-14-En.wav,Speaker4,گوینده۴,,,,,,,,0,1,1,4,0,7,7,73,,,,,311.1175720409992,,,,,,,,,,,,,,,,,,,,,,,,,,,,,,,,,,,,,,,,,,,,,,,,,,,,,,,,,,,,,,,,,,,,311.0959112080018,311.1175720409992,311.1175720409992,311.1175720409992,311.1175720409992,311.1268573333332,311.1175720409992,311.1175720409992,311.1175720409992,312.7259113330001,Correct!,1,1,4,1.6025634159996116,None,312.72995666600036,312.7409532080019,314.73338583299847,314.73339516600026,314.7335010409988,[],[],[],[],[],[],[],False,,,,,,,,,,,,,,,,,,,,,,,,,,,,,,,,,,,,,,103818,001,2024-08-04_15h14.08.018,5-32 ready-Group3 English Trained,2024.1.5,None,2024-08-04 15h14.13.881906 +0900,
Images/Speaker1.jpg,Images/Speaker2.jpg,Images/Speaker3.jpg,Images/Speaker4.jpg,Audio/Speaker4_En/P4-19-En.wav,Speaker4,گوینده۴,,,,,,,,0,1,1,4,0,8,8,78,,,,,314.7534381660007,,,,,,,,,,,,,,,,,,,,,,,,,,,,,,,,,,,,,,,,,,,,,,,,,,,,,,,,,,,,,,,,,,,,314.7338815000003,314.7534381660007,314.7534381660007,314.7534381660007,314.7534381660007,314.750013416666,314.7534381660007,314.7534381660007,314.7534381660007,316.32255933299894,Correct!,1,1,4,1.5660319169983268,None,316.3267811660007,316.3331230830008,318.32808724999995,318.3281204160012,318.3284955829986,[],[],[],[],[],[],[],False,,,,,,,,,,,,,,,,,,,,,,,,,,,,,,,,,,,,,,103818,001,2024-08-04_15h14.08.018,5-32 ready-Group3 English Trained,2024.1.5,None,2024-08-04 15h14.13.881906 +0900,
Images/Speaker1.jpg,Images/Speaker2.jpg,Images/Speaker3.jpg,Images/Speaker4.jpg,Audio/Speaker3_En/P3-7-En.wav,Speaker3,گوینده۳,,,,,,,,0,1,1,4,0,9,9,46,,,,,318.3504846249998,,,,,,,,,,,,,,,,,,,,,,,,,,,,,,,,,,,,,,,,,,,,,,,,,,,,,,,,,,,,,,,,,,,,318.33014520800134,318.3504846249998,318.3504846249998,318.3504846249998,318.3504846249998,318.34455299966817,318.3504846249998,318.3504846249998,318.3504846249998,319.79233250000107,Incorrect! The correct answer is Speaker3.,0,1,4,1.4402602499976638,None,319.79649820800114,319.8074005410017,321.7964705830018,321.7965188749986,321.7970065410009,[],[],[],[],[],[],[],False,321.8178927910012,,,,,,,,,,,,,,,,,,,,,,,,,,,,,,,,,,,,,103818,001,2024-08-04_15h14.08.018,5-32 ready-Group3 English Trained,2024.1.5,None,2024-08-04 15h14.13.881906 +0900,
Images/Speaker1.jpg,Images/Speaker2.jpg,Images/Speaker3.jpg,Images/Speaker4.jpg,Audio/Speaker3_En/P3-5-En.wav,Speaker3,گوینده۳,,,,,,,,0,1,1,4,0,10,10,44,,,,,321.8178927910012,,,,,,,,,,,,,,,,,,,,,,,,,,,,,,,,,,,,,,,,,,,,,,,,,,,,,,,,,,,,,,,,,,,,321.79848050000146,321.8178927910012,321.8178927910012,321.8178927910012,321.8178927910012,321.8122731666665,321.8178927910012,321.8178927910012,321.8178927910012,323.008103250002,Correct!,1,1,3,1.1843560410015925,None,323.01213149999967,323.02282299999933,325.01483058300073,325.01483958300014,325.0149455409992,[],[],[],[],[],[],[],False,,,,,,,,,,,,,,,,,,,,,,,,,,,,,,,,,,,,,,103818,001,2024-08-04_15h14.08.018,5-32 ready-Group3 English Trained,2024.1.5,None,2024-08-04 15h14.13.881906 +0900,
Images/Speaker1.jpg,Images/Speaker2.jpg,Images/Speaker3.jpg,Images/Speaker4.jpg,Audio/Speaker1_En/P1-4-En.wav,Speaker1,گوینده ۱,,,,,,,,0,1,1,4,0,11,11,3,,,,,325.03257020800083,,,,,,,,,,,,,,,,,,,,,,,,,,,,,,,,,,,,,,,,,,,,,,,,,,,,,,,,,,,,,,,,,,,,325.0153583329993,325.03257020800083,325.03257020800083,325.03257020800083,325.03257020800083,325.03145704166695,325.03257020800083,325.03257020800083,325.03257020800083,326.37711950000084,Correct!,1,1,1,1.3423769999972137,None,326.3812266249988,326.3878928330014,328.3846804160021,328.3847137080011,328.3850799159991,[],[],[],[],[],[],[],False,,,,,,,,,,,,,,,,,,,,,,,,,,,,,,,,,,,,,,103818,001,2024-08-04_15h14.08.018,5-32 ready-Group3 English Trained,2024.1.5,None,2024-08-04 15h14.13.881906 +0900,
Images/Speaker1.jpg,Images/Speaker2.jpg,Images/Speaker3.jpg,Images/Speaker4.jpg,Audio/Speaker1_En/P1-2-En.wav,Speaker1,گوینده ۱,,,,,,,,0,1,1,4,0,12,12,1,,,,,328.40431462500055,,,,,,,,,,,,,,,,,,,,,,,,,,,,,,,,,,,,,,,,,,,,,,,,,,,,,,,,,,,,,,,,,,,,328.38630012499925,328.40431462500055,328.40431462500055,328.40431462500055,328.40431462500055,328.40113116666566,328.40431462500055,328.40431462500055,328.40431462500055,330.3597752909991,Correct!,1,1,1,1.9473583750004764,None,330.3640541249988,330.3710461660012,332.3616718330013,332.36168050000197,332.36179504100073,[],[],[],[],[],[],[],False,332.37971670800107,,,,,,,,,,,,,,,,,,,,,,,,,,,,,,,,,,,,,103818,001,2024-08-04_15h14.08.018,5-32 ready-Group3 English Trained,2024.1.5,None,2024-08-04 15h14.13.881906 +0900,
Images/Speaker1.jpg,Images/Speaker2.jpg,Images/Speaker3.jpg,Images/Speaker4.jpg,Audio/Speaker3_En/P3-4-En.wav,Speaker3,گوینده۳,,,,,,,,0,1,1,4,0,13,13,43,,,,,332.37971670800107,,,,,,,,,,,,,,,,,,,,,,,,,,,,,,,,,,,,,,,,,,,,,,,,,,,,,,,,,,,,,,,,,,,,332.36219004099985,332.37971670800107,332.37971670800107,332.37971670800107,332.37971670800107,332.3781238326667,332.37971670800107,332.37971670800107,332.37971670800107,335.85066045799977,Correct!,1,1,3,3.466726499998913,None,335.85471904099904,335.8617747499993,337.8518971250014,337.8519069159993,337.8520341250005,[],[],[],[],[],[],[],False,337.8685302080012,,,,,,,,,,,,,,,,,,,,,,,,,,,,,,,,,,,,,103818,001,2024-08-04_15h14.08.018,5-32 ready-Group3 English Trained,2024.1.5,None,2024-08-04 15h14.13.881906 +0900,
Images/Speaker1.jpg,Images/Speaker2.jpg,Images/Speaker3.jpg,Images/Speaker4.jpg,Audio/Speaker2_En/P2-12-En.wav,Speaker2,گوینده۲,,,,,,,,0,1,1,4,0,14,14,31,,,,,337.8685302080012,,,,,,,,,,,,,,,,,,,,,,,,,,,,,,,,,,,,,,,,,,,,,,,,,,,,,,,,,,,,,,,,,,,,337.85244229100135,337.8685302080012,337.8685302080012,337.8685302080012,337.8685302080012,337.86831933266535,337.8685302080012,337.8685302080012,337.8685302080012,339.2930410000008,Correct!,1,1,2,1.422066833001736,None,339.2981968749991,339.3060305409999,341.2894419580007,341.289451749999,341.289557291002,[],[],[],[],[],[],[],False,341.3066712910004,,,,,,,,,,,,,,,,,,,,,,,,,,,,,,,,,,,,,103818,001,2024-08-04_15h14.08.018,5-32 ready-Group3 English Trained,2024.1.5,None,2024-08-04 15h14.13.881906 +0900,
Images/Speaker1.jpg,Images/Speaker2.jpg,Images/Speaker3.jpg,Images/Speaker4.jpg,Audio/Speaker1_En/P1-20-En.wav,Speaker1,گوینده ۱,,,,,,,,0,1,1,4,0,15,15,19,,,,,341.3066712910004,,,,,,,,,,,,,,,,,,,,,,,,,,,,,,,,,,,,,,,,,,,,,,,,,,,,,,,,,,,,,,,,,,,,341.28996299999926,341.3066712910004,341.3066712910004,341.3066712910004,341.3066712910004,341.305891041666,341.3066712910004,341.3066712910004,341.3066712910004,342.43758554099986,Correct!,1,1,1,1.1195238340005744,None,342.44163912500153,342.4485183329998,344.43622983300156,344.4362394580021,344.4363423750001,[],[],[],[],[],[],[],False,344.45330170799934,,,,,,,,,,,,,,,,,,,,,,,,,,,,,,,,,,,,,103818,001,2024-08-04_15h14.08.018,5-32 ready-Group3 English Trained,2024.1.5,None,2024-08-04 15h14.13.881906 +0900,
Images/Speaker1.jpg,Images/Speaker2.jpg,Images/Speaker3.jpg,Images/Speaker4.jpg,Audio/Speaker4_En/P4-18-En.wav,Speaker4,گوینده۴,,,,,,,,0,1,1,4,0,16,16,77,,,,,344.45330170799934,,,,,,,,,,,,,,,,,,,,,,,,,,,,,,,,,,,,,,,,,,,,,,,,,,,,,,,,,,,,,,,,,,,,344.43678487500074,344.45330170799934,344.45330170799934,344.45330170799934,344.45330170799934,344.45266949966776,344.45330170799934,344.45330170799934,344.45330170799934,346.0719868330016,Correct!,1,1,4,1.6141049580000981,None,346.0763067500011,346.082584374999,348.07773333300065,348.0777683330016,348.07814233300087,[],[],[],[],[],[],[],False,,,,,,,,,,,,,,,,,,,,,,,,,,,,,,,,,,,,,,103818,001,2024-08-04_15h14.08.018,5-32 ready-Group3 English Trained,2024.1.5,None,2024-08-04 15h14.13.881906 +0900,
Images/Speaker1.jpg,Images/Speaker2.jpg,Images/Speaker3.jpg,Images/Speaker4.jpg,Audio/Speaker1_En/P1-6-En.wav,Speaker1,گوینده ۱,,,,,,,,0,1,1,4,0,17,17,5,,,,,348.098788583,,,,,,,,,,,,,,,,,,,,,,,,,,,,,,,,,,,,,,,,,,,,,,,,,,,,,,,,,,,,,,,,,,,,348.0797089160005,348.098788583,348.098788583,348.098788583,348.098788583,348.0942400826682,348.098788583,348.098788583,348.098788583,349.6460473750012,Correct!,1,1,1,1.533610791000683,None,349.650395208002,349.6574929999988,351.6483547079988,351.6483645410008,351.64846795799895,[],[],[],[],[],[],[],False,351.66816050000125,,,,,,,,,,,,,,,,,,,,,,,,,,,,,,,,,,,,,103818,001,2024-08-04_15h14.08.018,5-32 ready-Group3 English Trained,2024.1.5,None,2024-08-04 15h14.13.881906 +0900,
Images/Speaker1.jpg,Images/Speaker2.jpg,Images/Speaker3.jpg,Images/Speaker4.jpg,Audio/Speaker4_En/P4-10-En.wav,Speaker4,گوینده۴,,,,,,,,0,1,1,4,0,18,18,69,,,,,351.66816050000125,,,,,,,,,,,,,,,,,,,,,,,,,,,,,,,,,,,,,,,,,,,,,,,,,,,,,,,,,,,,,,,,,,,,351.6489611249999,351.66816050000125,351.66816050000125,351.66816050000125,351.66816050000125,351.66477070766655,351.66816050000125,351.66816050000125,351.66816050000125,353.4761482499998,Incorrect! The correct answer is Speaker4.,0,1,3,1.807011208999029,None,353.48009699999966,353.4915532080013,355.4852582909989,355.4853022499992,355.4856795830019,[],[],[],[],[],[],[],False,,,,,,,,,,,,,,,,,,,,,,,,,,,,,,,,,,,,,,103818,001,2024-08-04_15h14.08.018,5-32 ready-Group3 English Trained,2024.1.5,None,2024-08-04 15h14.13.881906 +0900,
Images/Speaker1.jpg,Images/Speaker2.jpg,Images/Speaker3.jpg,Images/Speaker4.jpg,Audio/Speaker2_En/P2-2-En.wav,Speaker2,گوینده۲,,,,,,,,0,1,1,4,0,19,19,21,,,,,355.504116125001,,,,,,,,,,,,,,,,,,,,,,,,,,,,,,,,,,,,,,,,,,,,,,,,,,,,,,,,,,,,,,,,,,,,355.48699150000175,355.504116125001,355.504116125001,355.504116125001,355.504116125001,355.50175245766536,355.504116125001,355.504116125001,355.504116125001,357.1828859160014,Correct!,1,1,2,1.6686637499988137,None,357.1869546250018,357.19775466600186,359.18158637500164,359.18159979100164,359.1817162080006,[],[],[],[],[],[],[],False,359.20098558300015,,,,,,,,,,,,,,,,,,,,,,,,,,,,,,,,,,,,,103818,001,2024-08-04_15h14.08.018,5-32 ready-Group3 English Trained,2024.1.5,None,2024-08-04 15h14.13.881906 +0900,
Images/Speaker1.jpg,Images/Speaker2.jpg,Images/Speaker3.jpg,Images/Speaker4.jpg,Audio/Speaker4_En/P4-20-En.wav,Speaker4,گوینده۴,,,,,,,,0,1,1,4,0,20,20,79,,,,,359.20098558300015,,,,,,,,,,,,,,,,,,,,,,,,,,,,,,,,,,,,,,,,,,,,,,,,,,,,,,,,,,,,,,,,,,,,359.1821365830001,359.20098558300015,359.20098558300015,359.20098558300015,359.20098558300015,359.19801520766873,359.20098558300015,359.20098558300015,359.20098558300015,360.60535366600016,Incorrect! The correct answer is Speaker4.,0,1,3,1.4032714999993914,None,360.6091999579985,360.62117475000196,362.6093132909991,362.609322332999,362.6094085830009,[],[],[],[],[],[],[],False,362.62751495799967,,,,,,,,,,,,,,,,,,,,,,,,,,,,,,,,,,,,,103818,001,2024-08-04_15h14.08.018,5-32 ready-Group3 English Trained,2024.1.5,None,2024-08-04 15h14.13.881906 +0900,
Images/Speaker1.jpg,Images/Speaker2.jpg,Images/Speaker3.jpg,Images/Speaker4.jpg,Audio/Speaker3_En/P3-17-En.wav,Speaker3,گوینده۳,,,,,,,,0,1,1,4,0,21,21,56,,,,,362.62751495799967,,,,,,,,,,,,,,,,,,,,,,,,,,,,,,,,,,,,,,,,,,,,,,,,,,,,,,,,,,,,,,,,,,,,362.6097993330004,362.62751495799967,362.62751495799967,362.62751495799967,362.62751495799967,362.6257319576655,362.62751495799967,362.62751495799967,362.62751495799967,364.552845000002,Correct!,1,1,3,1.9139472500028205,None,364.5567335830019,364.56509712499974,366.5612443329992,366.5612529159989,366.56136666599923,[],[],[],[],[],[],[],False,,,,,,,,,,,,,,,,,,,,,,,,,,,,,,,,,,,,,,103818,001,2024-08-04_15h14.08.018,5-32 ready-Group3 English Trained,2024.1.5,None,2024-08-04 15h14.13.881906 +0900,
Images/Speaker1.jpg,Images/Speaker2.jpg,Images/Speaker3.jpg,Images/Speaker4.jpg,Audio/Speaker4_En/P4-8-En.wav,Speaker4,گوینده۴,,,,,,,,0,1,1,4,0,22,22,67,,,,,366.5805981250014,,,,,,,,,,,,,,,,,,,,,,,,,,,,,,,,,,,,,,,,,,,,,,,,,,,,,,,,,,,,,,,,,,,,366.5617812909986,366.5805981250014,366.5805981250014,366.5805981250014,366.5805981250014,366.5778754576679,366.5805981250014,366.5805981250014,366.5805981250014,369.0885711250012,Correct!,1,1,4,2.506658124999376,None,369.0926713330009,369.0989509579995,371.08859683300034,371.0886360410004,371.08915562499897,[],[],[],[],[],[],[],False,371.10782200000176,,,,,,,,,,,,,,,,,,,,,,,,,,,,,,,,,,,,,103818,001,2024-08-04_15h14.08.018,5-32 ready-Group3 English Trained,2024.1.5,None,2024-08-04 15h14.13.881906 +0900,
Images/Speaker1.jpg,Images/Speaker2.jpg,Images/Speaker3.jpg,Images/Speaker4.jpg,Audio/Speaker1_En/P1-17-En.wav,Speaker1,گوینده ۱,,,,,,,,0,1,1,4,0,23,23,16,,,,,371.10782200000176,,,,,,,,,,,,,,,,,,,,,,,,,,,,,,,,,,,,,,,,,,,,,,,,,,,,,,,,,,,,,,,,,,,,371.09073579100004,371.10782200000176,371.10782200000176,371.10782200000176,371.10782200000176,371.1044132916652,371.10782200000176,371.10782200000176,371.10782200000176,372.17334958300125,Correct!,1,1,1,1.0615733330014336,None,372.1777477079995,372.1839515829997,374.17548420800085,374.1754942080006,374.17561708300127,[],[],[],[],[],[],[],False,374.1968694999996,,,,,,,,,,,,,,,,,,,,,,,,,,,,,,,,,,,,,103818,001,2024-08-04_15h14.08.018,5-32 ready-Group3 English Trained,2024.1.5,None,2024-08-04 15h14.13.881906 +0900,
Images/Speaker1.jpg,Images/Speaker2.jpg,Images/Speaker3.jpg,Images/Speaker4.jpg,Audio/Speaker4_En/P4-9-En.wav,Speaker4,گوینده۴,,,,,,,,0,1,1,4,0,24,24,68,,,,,374.1968694999996,,,,,,,,,,,,,,,,,,,,,,,,,,,,,,,,,,,,,,,,,,,,,,,,,,,,,,,,,,,,,,,,,,,,374.1760173750008,374.1968694999996,374.1968694999996,374.1968694999996,374.1968694999996,374.1919149996686,374.1968694999996,374.1968694999996,374.1968694999996,376.30107654099993,Correct!,1,1,4,2.0974228749983013,None,376.30490879100034,376.3118584160002,378.29641012499997,378.2964406249994,378.2968867080017,[],[],[],[],[],[],[],False,378.3179088750003,,,,,,,,,,,,,,,,,,,,,,,,,,,,,,,,,,,,,103818,001,2024-08-04_15h14.08.018,5-32 ready-Group3 English Trained,2024.1.5,None,2024-08-04 15h14.13.881906 +0900,
Images/Speaker1.jpg,Images/Speaker2.jpg,Images/Speaker3.jpg,Images/Speaker4.jpg,Audio/Speaker4_En/P4-12-En.wav,Speaker4,گوینده۴,,,,,,,,0,1,1,4,0,25,25,71,,,,,378.3179088750003,,,,,,,,,,,,,,,,,,,,,,,,,,,,,,,,,,,,,,,,,,,,,,,,,,,,,,,,,,,,,,,,,,,,378.298395875001,378.3179088750003,378.3179088750003,378.3179088750003,378.3179088750003,378.3122659576659,378.3179088750003,378.3179088750003,378.3179088750003,380.99245874999906,Correct!,1,1,4,2.6641821670018544,None,380.99620666600094,381.00278949999847,382.99582437500067,382.9958540000007,382.9963387079988,[],[],[],[],[],[],[],False,383.01672779100045,,,,,,,,,,,,,,,,,,,,,,,,,,,,,,,,,,,,,103818,001,2024-08-04_15h14.08.018,5-32 ready-Group3 English Trained,2024.1.5,None,2024-08-04 15h14.13.881906 +0900,
Images/Speaker1.jpg,Images/Speaker2.jpg,Images/Speaker3.jpg,Images/Speaker4.jpg,Audio/Speaker1_En/P1-9-En.wav,Speaker1,گوینده ۱,,,,,,,,0,1,1,4,0,26,26,8,,,,,383.01672779100045,,,,,,,,,,,,,,,,,,,,,,,,,,,,,,,,,,,,,,,,,,,,,,,,,,,,,,,,,,,,,,,,,,,,382.9975159159985,383.01672779100045,383.01672779100045,383.01672779100045,383.01672779100045,383.01171595766596,383.01672779100045,383.01672779100045,383.01672779100045,384.18442595799934,Correct!,1,1,1,1.161149874998955,None,384.18837737500144,384.1952691250008,386.17859541600046,386.1786203750016,386.17896333300087,[],[],[],[],[],[],[],False,386.1977058750017,,,,,,,,,,,,,,,,,,,,,,,,,,,,,,,,,,,,,103818,001,2024-08-04_15h14.08.018,5-32 ready-Group3 English Trained,2024.1.5,None,2024-08-04 15h14.13.881906 +0900,
Images/Speaker1.jpg,Images/Speaker2.jpg,Images/Speaker3.jpg,Images/Speaker4.jpg,Audio/Speaker1_En/P1-10-En.wav,Speaker1,گوینده ۱,,,,,,,,0,1,1,4,0,27,27,9,,,,,386.1977058750017,,,,,,,,,,,,,,,,,,,,,,,,,,,,,,,,,,,,,,,,,,,,,,,,,,,,,,,,,,,,,,,,,,,,386.1801440829986,386.1977058750017,386.1977058750017,386.1977058750017,386.1977058750017,386.19452379166637,386.1977058750017,386.1977058750017,386.1977058750017,387.3995937079999,Correct!,1,1,1,1.1980076669970003,None,387.40335412499917,387.410401041001,389.3945732079992,389.39460083299855,389.39490750000186,[],[],[],[],[],[],[],False,389.41624412500096,,,,,,,,,,,,,,,,,,,,,,,,,,,,,,,,,,,,,103818,001,2024-08-04_15h14.08.018,5-32 ready-Group3 English Trained,2024.1.5,None,2024-08-04 15h14.13.881906 +0900,
Images/Speaker1.jpg,Images/Speaker2.jpg,Images/Speaker3.jpg,Images/Speaker4.jpg,Audio/Speaker1_En/P1-18-En.wav,Speaker1,گوینده ۱,,,,,,,,0,1,1,4,0,28,28,17,,,,,389.41624412500096,,,,,,,,,,,,,,,,,,,,,,,,,,,,,,,,,,,,,,,,,,,,,,,,,,,,,,,,,,,,,,,,,,,,389.3965046250014,389.41624412500096,389.41624412500096,389.41624412500096,389.41624412500096,389.41042162466715,389.41624412500096,389.41624412500096,389.41624412500096,390.31518516600045,Correct!,1,1,1,0.8948564579986851,None,390.3194745410001,390.3260509159991,392.3199474159992,392.3199757910006,392.32031529099913,[],[],[],[],[],[],[],False,392.34028712500003,,,,,,,,,,,,,,,,,,,,,,,,,,,,,,,,,,,,,103818,001,2024-08-04_15h14.08.018,5-32 ready-Group3 English Trained,2024.1.5,None,2024-08-04 15h14.13.881906 +0900,
Images/Speaker1.jpg,Images/Speaker2.jpg,Images/Speaker3.jpg,Images/Speaker4.jpg,Audio/Speaker2_En/P2-17-En.wav,Speaker2,گوینده۲,,,,,,,,0,1,1,4,0,29,29,36,,,,,392.34028712500003,,,,,,,,,,,,,,,,,,,,,,,,,,,,,,,,,,,,,,,,,,,,,,,,,,,,,,,,,,,,,,,,,,,,392.32185916600065,392.34028712500003,392.34028712500003,392.34028712500003,392.34028712500003,392.335854707668,392.34028712500003,392.34028712500003,392.34028712500003,393.5082086250004,Correct!,1,1,2,1.1669842499977676,None,393.5121310409995,393.51840179099963,395.50422766599877,395.5042698750003,395.5047220000015,[],[],[],[],[],[],[],False,395.52451912499964,,,,,,,,,,,,,,,,,,,,,,,,,,,,,,,,,,,,,103818,001,2024-08-04_15h14.08.018,5-32 ready-Group3 English Trained,2024.1.5,None,2024-08-04 15h14.13.881906 +0900,
Images/Speaker1.jpg,Images/Speaker2.jpg,Images/Speaker3.jpg,Images/Speaker4.jpg,Audio/Speaker3_En/P3-11-En.wav,Speaker3,گوینده۳,,,,,,,,0,1,1,4,0,30,30,50,,,,,395.52451912499964,,,,,,,,,,,,,,,,,,,,,,,,,,,,,,,,,,,,,,,,,,,,,,,,,,,,,,,,,,,,,,,,,,,,395.50613741599955,395.52451912499964,395.52451912499964,395.52451912499964,395.52451912499964,395.52003037466807,395.52451912499964,395.52451912499964,395.52451912499964,397.0547886659988,Correct!,1,1,3,1.5254805000004126,None,397.05876437500046,397.0650267909987,399.0579889159999,399.0579988749996,399.05810708300123,[],[],[],[],[],[],[],False,399.07665291599915,,,,,,,,,,,,,,,,,,,,,,,,,,,,,,,,,,,,,103818,001,2024-08-04_15h14.08.018,5-32 ready-Group3 English Trained,2024.1.5,None,2024-08-04 15h14.13.881906 +0900,
Images/Speaker1.jpg,Images/Speaker2.jpg,Images/Speaker3.jpg,Images/Speaker4.jpg,Audio/Speaker2_En/P2-18-En.wav,Speaker2,گوینده۲,,,,,,,,0,1,1,4,0,31,31,37,,,,,399.07665291599915,,,,,,,,,,,,,,,,,,,,,,,,,,,,,,,,,,,,,,,,,,,,,,,,,,,,,,,,,,,,,,,,,,,,399.0585728750011,399.07665291599915,399.07665291599915,399.07665291599915,399.07665291599915,399.074397499666,399.07665291599915,399.07665291599915,399.07665291599915,400.4457986660018,Correct!,1,1,2,1.3653904999991937,None,400.4506545410004,400.45890479100126,402.45330558299975,402.4533487080007,402.4537023330013,[],[],[],[],[],[],[],False,,,,,,,,,,,,,,,,,,,,,,,,,,,,,,,,,,,,,,103818,001,2024-08-04_15h14.08.018,5-32 ready-Group3 English Trained,2024.1.5,None,2024-08-04 15h14.13.881906 +0900,
Images/Speaker1.jpg,Images/Speaker2.jpg,Images/Speaker3.jpg,Images/Speaker4.jpg,Audio/Speaker2_En/P2-4-En.wav,Speaker2,گوینده۲,,,,,,,,0,1,1,4,0,32,32,23,,,,,402.4756953750002,,,,,,,,,,,,,,,,,,,,,,,,,,,,,,,,,,,,,,,,,,,,,,,,,,,,,,,,,,,,,,,,,,,,402.45517687499887,402.4756953750002,402.4756953750002,402.4756953750002,402.4756953750002,402.4698012496667,402.4756953750002,402.4756953750002,402.4756953750002,403.85974879100104,Correct!,1,1,2,1.3804756250028731,None,403.8638098750016,403.87077283300096,405.8543002080005,405.85430925000037,405.8544182910009,[],[],[],[],[],[],[],False,405.8735196660018,,,,,,,,,,,,,,,,,,,,,,,,,,,,,,,,,,,,,103818,001,2024-08-04_15h14.08.018,5-32 ready-Group3 English Trained,2024.1.5,None,2024-08-04 15h14.13.881906 +0900,
Images/Speaker1.jpg,Images/Speaker2.jpg,Images/Speaker3.jpg,Images/Speaker4.jpg,Audio/Speaker2_En/P2-5-En.wav,Speaker2,گوینده۲,,,,,,,,0,1,1,4,0,33,33,24,,,,,405.8735196660018,,,,,,,,,,,,,,,,,,,,,,,,,,,,,,,,,,,,,,,,,,,,,,,,,,,,,,,,,,,,,,,,,,,,405.8548469160014,405.8735196660018,405.8735196660018,405.8735196660018,405.8735196660018,405.87060591666545,405.8735196660018,405.8735196660018,405.8735196660018,407.03314370799853,Correct!,1,1,2,1.1573594579967903,None,407.0369091249995,407.0436168330016,409.02966500000184,409.02971437499946,409.0302485409993,[],[],[],[],[],[],[],False,409.0516173750002,,,,,,,,,,,,,,,,,,,,,,,,,,,,,,,,,,,,,103818,001,2024-08-04_15h14.08.018,5-32 ready-Group3 English Trained,2024.1.5,None,2024-08-04 15h14.13.881906 +0900,
Images/Speaker1.jpg,Images/Speaker2.jpg,Images/Speaker3.jpg,Images/Speaker4.jpg,Audio/Speaker4_En/P4-3-En.wav,Speaker4,گوینده۴,,,,,,,,0,1,1,4,0,34,34,62,,,,,409.0516173750002,,,,,,,,,,,,,,,,,,,,,,,,,,,,,,,,,,,,,,,,,,,,,,,,,,,,,,,,,,,,,,,,,,,,409.03186149999965,409.0516173750002,409.0516173750002,409.0516173750002,409.0516173750002,409.0454679166653,409.0516173750002,409.0516173750002,409.0516173750002,410.6054406660005,Correct!,1,1,4,1.5520258340002329,None,410.609461,410.6155182500006,412.5992931660003,412.5993067499985,412.5994085829989,[],[],[],[],[],[],[],False,412.6174100829994,,,,,,,,,,,,,,,,,,,,,,,,,,,,,,,,,,,,,103818,001,2024-08-04_15h14.08.018,5-32 ready-Group3 English Trained,2024.1.5,None,2024-08-04 15h14.13.881906 +0900,
Images/Speaker1.jpg,Images/Speaker2.jpg,Images/Speaker3.jpg,Images/Speaker4.jpg,Audio/Speaker3_En/P3-3-En.wav,Speaker3,گوینده۳,,,,,,,,0,1,1,4,0,35,35,42,,,,,412.6174100829994,,,,,,,,,,,,,,,,,,,,,,,,,,,,,,,,,,,,,,,,,,,,,,,,,,,,,,,,,,,,,,,,,,,,412.59980245800034,412.6174100829994,412.6174100829994,412.6174100829994,412.6174100829994,412.6157589996658,412.6174100829994,412.6174100829994,412.6174100829994,414.39217754100173,Correct!,1,1,3,1.7722467499988852,None,414.3963714579986,414.4029362500005,416.3953734579991,416.39540175,416.39581979099967,[],[],[],[],[],[],[],False,416.41757004100145,,,,,,,,,,,,,,,,,,,,,,,,,,,,,,,,,,,,,103818,001,2024-08-04_15h14.08.018,5-32 ready-Group3 English Trained,2024.1.5,None,2024-08-04 15h14.13.881906 +0900,
Images/Speaker1.jpg,Images/Speaker2.jpg,Images/Speaker3.jpg,Images/Speaker4.jpg,Audio/Speaker4_En/P4-1-En.wav,Speaker4,گوینده۴,,,,,,,,0,1,1,4,0,36,36,60,,,,,416.41757004100145,,,,,,,,,,,,,,,,,,,,,,,,,,,,,,,,,,,,,,,,,,,,,,,,,,,,,,,,,,,,,,,,,,,,416.39738520800165,416.41757004100145,416.41757004100145,416.41757004100145,416.41757004100145,416.41123149966757,416.41757004100145,416.41757004100145,416.41757004100145,418.4253637080001,Correct!,1,1,4,2.002086624997901,None,418.42951479100157,418.43636762499955,420.4211644579991,420.42117425000106,420.42128158299965,[],[],[],[],[],[],[],False,420.4404999159997,,,,,,,,,,,,,,,,,,,,,,,,,,,,,,,,,,,,,103818,001,2024-08-04_15h14.08.018,5-32 ready-Group3 English Trained,2024.1.5,None,2024-08-04 15h14.13.881906 +0900,
Images/Speaker1.jpg,Images/Speaker2.jpg,Images/Speaker3.jpg,Images/Speaker4.jpg,Audio/Speaker4_En/P4-6-En.wav,Speaker4,گوینده۴,,,,,,,,0,1,1,4,0,37,37,65,,,,,420.4404999159997,,,,,,,,,,,,,,,,,,,,,,,,,,,,,,,,,,,,,,,,,,,,,,,,,,,,,,,,,,,,,,,,,,,,420.4216974580013,420.4404999159997,420.4404999159997,420.4404999159997,420.4404999159997,420.4375343326685,420.4404999159997,420.4404999159997,420.4404999159997,421.9467074999993,Correct!,1,1,4,1.5050313339997956,None,421.9507434160005,421.9569026659992,423.941249083,423.9412578750016,423.94135950000054,[],[],[],[],[],[],[],False,423.95870487499997,,,,,,,,,,,,,,,,,,,,,,,,,,,,,,,,,,,,,103818,001,2024-08-04_15h14.08.018,5-32 ready-Group3 English Trained,2024.1.5,None,2024-08-04 15h14.13.881906 +0900,
Images/Speaker1.jpg,Images/Speaker2.jpg,Images/Speaker3.jpg,Images/Speaker4.jpg,Audio/Speaker1_En/P1-12-En.wav,Speaker1,گوینده ۱,,,,,,,,0,1,1,4,0,38,38,11,,,,,423.95870487499997,,,,,,,,,,,,,,,,,,,,,,,,,,,,,,,,,,,,,,,,,,,,,,,,,,,,,,,,,,,,,,,,,,,,423.9417872080012,423.95870487499997,423.95870487499997,423.95870487499997,423.95870487499997,423.9575971666675,423.95870487499997,423.95870487499997,423.95870487499997,425.46576416600146,Correct!,1,1,1,1.505336083999282,None,425.4697395410003,425.4760323750015,427.45968391600036,427.4597254580003,427.46009270799914,[],[],[],[],[],[],[],False,427.47990891600057,,,,,,,,,,,,,,,,,,,,,,,,,,,,,,,,,,,,,103818,001,2024-08-04_15h14.08.018,5-32 ready-Group3 English Trained,2024.1.5,None,2024-08-04 15h14.13.881906 +0900,
Images/Speaker1.jpg,Images/Speaker2.jpg,Images/Speaker3.jpg,Images/Speaker4.jpg,Audio/Speaker2_En/P2-19-En.wav,Speaker2,گوینده۲,,,,,,,,0,1,1,4,0,39,39,38,,,,,427.47990891600057,,,,,,,,,,,,,,,,,,,,,,,,,,,,,,,,,,,,,,,,,,,,,,,,,,,,,,,,,,,,,,,,,,,,427.46129825000025,427.47990891600057,427.47990891600057,427.47990891600057,427.47990891600057,427.4755135826674,427.47990891600057,427.47990891600057,427.47990891600057,428.92227220800123,Correct!,1,1,2,1.441027082997607,None,428.9260929160009,428.93257712500053,430.91667104099906,430.91667958299877,437.3138304999993,[-0.01120162932790224],[-0.1710794297352342],[1],[0],[0],[6.38633016699896],['checkbox3'],True,430.9269634580014,430.9269634580014,0.0009074589979718439,430.9269634580014,430.9269634580014,,,,,,,,,,,,,,,,,,,,,,,,,,,,,,,,,103818,001,2024-08-04_15h14.08.018,5-32 ready-Group3 English Trained,2024.1.5,None,2024-08-04 15h14.13.881906 +0900,
