SpeakerImage1,SpeakerImage2,SpeakerImage3,SpeakerImage4,TrainingSound,EnglishCorrectAnswer,PersianCorrectAnswer,SpeakerPhoto1,SpeakerPhoto2,SpeakerPhoto3,SpeakerPhoto4,TestingSound,EnglishCorrectResponse,PersianCorrectResponse,repeated_TrainingLoopGroup1.thisRepN,repeated_TrainingLoopGroup1.thisTrialN,repeated_TrainingLoopGroup1.thisN,repeated_TrainingLoopGroup1.thisIndex,TrainingLoopGroup1.thisRepN,TrainingLoopGroup1.thisTrialN,TrainingLoopGroup1.thisN,TrainingLoopGroup1.thisIndex,testPhase1Loop.thisRepN,testPhase1Loop.thisTrialN,testPhase1Loop.thisN,testPhase1Loop.thisIndex,thisRow.t,notes,trial.started,trial.stopped,GroupSelection.started,GroupInstructions.started,key_resp.started,GroupSelection.stopped,key_resp.keys,key_resp.rt,key_resp.duration,HeadphoneCheck.started,text_13.started,mouse.started,checkbox.started,HeadphoneCheck.stopped,mouse.x,mouse.y,mouse.leftButton,mouse.midButton,mouse.rightButton,mouse.time,mouse.clicked_name,Headphone_Used,Introduction.started,text_2.started,text_2.stopped,image.started,sound_8.started,text_4.started,image.stopped,text_4.stopped,image_7.started,sound_10.started,text_5.started,image_7.stopped,text_5.stopped,image_8.started,sound_12.started,text_6.started,image_8.stopped,text_6.stopped,image_9.started,sound_14.started,text_7.started,image_9.stopped,text_7.stopped,Introduction.stopped,Instructions.started,InstructionText.started,InstructionText.stopped,Instructions.stopped,Countdown.started,number1.started,number1.stopped,number2.started,number2.stopped,number3.started,number3.stopped,start.started,start.stopped,silence.started,silence.stopped,Countdown.stopped,InitializeExperiment.started,InitializeExperiment.stopped,TrainingGroup1.started,image_1.started,image_2.started,image_3.started,image_4.started,sound1.started,Instruction.started,ResponseKey.started,SessionNumberText.started,TrainingGroup1.stopped,feedbackText,correct_responses_group1,total_trials_group1,ResponseKey.keys,ResponseKey.rt,ResponseKey.duration,FeedbackRoutine1.started,FeedbackText.started,FeedbackRoutine1.stopped,Break.started,Break.stopped,mouse1.x,mouse1.y,mouse1.leftButton,mouse1.midButton,mouse1.rightButton,mouse1.time,mouse1.clicked_name,Proceed_Break,FeedbackText.stopped,break_message.started,checkbox1.started,text_component.started,mouse1.started,CheckAccuracy1.started,accuracy_group1,proceed_to_test,CheckAccuracy1.stopped,WelcomeTest.started,text_12.started,text_12.stopped,WelcomeTest.stopped,TestPhase1.started,test1_image1.started,test1_image2.started,test1_image3.started,test1_image4.started,test1_sound.started,text_3.started,test1_response_keyboard.started,TestPhase1.stopped,test1_response_keyboard.keys,test1_response_keyboard.rt,test1_response_keyboard.duration,test1_response,test1_image_file1,test1_image_file2,test1_image_file3,test1_image_file4,test1_sound_file,english_correct_answer,persian_correct_answer,Finish.started,text_11.started,Finish.stopped,participant,session,date,expName,psychopyVersion,frameRate,expStart,
,,,,,,,,,,,,,,,,,,,,,,,,,,,,0.00897116599662695,0.009332374997029547,,,,,,,,,,,,,,,,,,,,,,,,,,,,,,,,,,,,,,,,,,,,,,,,,,,,,,,,,,,,,,,,,,,,,,,,,,,,,,,,,,,,,,,,,,,,,,,,,,,,,,,,,,,,,,,,,,,,,,,,,,,,,,,,358248,001,2024-08-04_14h51.22.104,5-34 ready-monolingual persian speaker,2024.1.5,None,2024-08-04 14h51.26.586555 +0900,
,,,,,,,,,,,,,,,,,,,,,,,,,,,,,,0.009348915998998564,0.013701207997655729,0.013701207997655729,0.4470557499989809,1,0.3941432920000807,None,,,,,,,,,,,,,,,,,,,,,,,,,,,,,,,,,,,,,,,,,,,,,,,,,,,,,,,,,,,,,,,,,,,,,,,,,,,,,,,,,,,,,,,,,,,,,,,,,,,,,,,,,,,,,,,,,,,,,,,,,358248,001,2024-08-04_14h51.22.104,5-34 ready-monolingual persian speaker,2024.1.5,None,2024-08-04 14h51.26.586555 +0900,
,,,,,,,,,,,,,,,,,,,,,,,,,,,,,,,,,,,,,0.44708662499760976,0.4575546249980107,0.0001989170013985131,0.4575546249980107,0.8797869579975668,[-0.12525458248472504],[0.25661914460285135],[1],[0],[0],[0.43211804200109327],[],False,,,,,,,,,,,,,,,,,,,,,,,,,,,,,,,,,,,,,,,,,,,,,,,,,,,,,,,,,,,,,,,,,,,,,,,,,,,,,,,,,,,,,,,,,,,,,,,,,,,,,,,,,,,,358248,001,2024-08-04_14h51.22.104,5-34 ready-monolingual persian speaker,2024.1.5,None,2024-08-04 14h51.26.586555 +0900,
,,,,,,,,,,,,,,,,,,,,,,,,,,,,,,,,,,,,,,,,,,,,,,,,,,0.8798944159971143,0.9233427909966849,5.921128291000059,7.878692915997817,7.882097582664088,7.878692915997817,12.869245040998067,12.869245040998067,15.877894249999372,15.887125291665386,15.877894249999372,20.868075374997716,20.868075374997716,23.873785957999644,23.882274374664362,23.873785957999644,28.869564374999754,28.869564374999754,31.875060040998505,31.883656332666092,31.875060040998505,36.87391395799932,36.87391395799932,36.869829165996634,,,,,,,,,,,,,,,,,,,,,,,,,,,,,,,,,,,,,,,,,,,,,,,,,,,,,,,,,,,,,,,,,,,,,,,,,,,,,,,,,,,,358248,001,2024-08-04_14h51.22.104,5-34 ready-monolingual persian speaker,2024.1.5,None,2024-08-04 14h51.26.586555 +0900,
,,,,,,,,,,,,,,,,,,,,,,,,,,,,,,,,,,,,,,,,,,,,,,,,,,,,,,,,,,,,,,,,,,,,,,,,,,36.869853374999366,36.87391395799932,46.87053208299767,46.86436699999831,,,,,,,,,,,,,,,,,,,,,,,,,,,,,,,,,,,,,,,,,,,,,,,,,,,,,,,,,,,,,,,,,,,,,,,,,,,,,,,,358248,001,2024-08-04_14h51.22.104,5-34 ready-monolingual persian speaker,2024.1.5,None,2024-08-04 14h51.26.586555 +0900,
,,,,,,,,,,,,,,,,,,,,,,,,,,,,,,,,,,,,,,,,,,,,,,,,,,,,,,,,,,,,,,,,,,,,,,,,,,,,,,46.86441004099834,46.87053208299767,47.85957674999736,48.382721957998,49.3787524579966,49.8741339579974,50.8699757079994,51.37916870799745,53.37047637499927,53.37047637499927,55.445031290997576,55.362737583000126,,,,,,,,,,,,,,,,,,,,,,,,,,,,,,,,,,,,,,,,,,,,,,,,,,,,,,,,,,,,,,,,,,,,358248,001,2024-08-04_14h51.22.104,5-34 ready-monolingual persian speaker,2024.1.5,None,2024-08-04 14h51.26.586555 +0900,
,,,,,,,,,,,,,,,,,,,,,,,,,,,,,,,,,,,,,,,,,,,,,,,,,,,,,,,,,,,,,,,,,,,,,,,,,,,,,,,,,,,,,,,,,,55.362771000000066,55.36305508299847,,,,,,,,,,,,,,,,,,,,,,,,,,,,,,,,,,,,,,,,,,,,,,,,,,,,,,,,,,,,,,,,,,358248,001,2024-08-04_14h51.22.104,5-34 ready-monolingual persian speaker,2024.1.5,None,2024-08-04 14h51.26.586555 +0900,
Images/Speaker1.jpg,Images/Speaker2.jpg,Images/Speaker3.jpg,Images/Speaker4.jpg,Audio/Speaker2_Per/P2-10-Per.wav,Speaker2,گوینده۲,,,,,,,,0,0,0,68,0,0,0,29,,,,,55.445031290997576,,,,,,,,,,,,,,,,,,,,,,,,,,,,,,,,,,,,,,,,,,,,,,,,,,,,,,,,,,,,,,,,,,55.41679487500005,55.445031290997576,55.445031290997576,55.445031290997576,55.445031290997576,55.44515837433331,55.445031290997576,55.445031290997576,55.445031290997576,56.287394582999696,نادرست! پاسخ صحیح گوینده۲ است,0,1,1,0.8401179590000538,None,56.293213832999754,56.310975915999734,58.30554445799862,58.30555479099712,58.30567299999893,[],[],[],[],[],[],[],False,,,,,,,,,,,,,,,,,,,,,,,,,,,,,,,,,,,,,358248,001,2024-08-04_14h51.22.104,5-34 ready-monolingual persian speaker,2024.1.5,None,2024-08-04 14h51.26.586555 +0900,
Images/Speaker1.jpg,Images/Speaker2.jpg,Images/Speaker3.jpg,Images/Speaker4.jpg,Audio/Speaker3_Per/P3-2-Per.wav,Speaker3,گوینده۳,,,,,,,,0,0,0,68,0,1,1,41,,,,,58.33578933299941,,,,,,,,,,,,,,,,,,,,,,,,,,,,,,,,,,,,,,,,,,,,,,,,,,,,,,,,,,,,,,,,,,58.30643633299769,58.33578933299941,58.33578933299941,58.33578933299941,58.33578933299941,58.33883037433091,58.33578933299941,58.33578933299941,58.33578933299941,58.54971120799746,نادرست! پاسخ صحیح گوینده۳ است,0,2,1,0.21017879200007883,None,58.55393108299904,58.56515891599702,60.55352366599982,60.55354729099781,60.553705540998635,[],[],[],[],[],[],[],False,60.57926533299906,,,,,,,,,,,,,,,,,,,,,,,,,,,,,,,,,,,,358248,001,2024-08-04_14h51.22.104,5-34 ready-monolingual persian speaker,2024.1.5,None,2024-08-04 14h51.26.586555 +0900,
Images/Speaker1.jpg,Images/Speaker2.jpg,Images/Speaker3.jpg,Images/Speaker4.jpg,Audio/Speaker3_Per/P3-5-Per.wav,Speaker3,گوینده۳,,,,,,,,0,0,0,68,0,2,2,44,,,,,60.57926533299906,,,,,,,,,,,,,,,,,,,,,,,,,,,,,,,,,,,,,,,,,,,,,,,,,,,,,,,,,,,,,,,,,,60.55423662499743,60.57926533299906,60.57926533299906,60.57926533299906,60.57926533299906,60.58573391633084,60.57926533299906,60.57926533299906,60.57926533299906,60.679929124999035,نادرست! پاسخ صحیح گوینده۳ است,0,3,1,0.09624824999991688,None,60.68378145799943,60.69530437499998,62.682663332998345,62.68269574999795,62.68317991599906,[],[],[],[],[],[],[],False,62.70793741599846,,,,,,,,,,,,,,,,,,,,,,,,,,,,,,,,,,,,358248,001,2024-08-04_14h51.22.104,5-34 ready-monolingual persian speaker,2024.1.5,None,2024-08-04 14h51.26.586555 +0900,
Images/Speaker1.jpg,Images/Speaker2.jpg,Images/Speaker3.jpg,Images/Speaker4.jpg,Audio/Speaker3_Per/P3-17-Per.wav,Speaker3,گوینده۳,,,,,,,,0,0,0,68,0,3,3,56,,,,,62.70793741599846,,,,,,,,,,,,,,,,,,,,,,,,,,,,,,,,,,,,,,,,,,,,,,,,,,,,,,,,,,,,,,,,,,62.684397749999334,62.70793741599846,62.70793741599846,62.70793741599846,62.70793741599846,62.71519612433306,62.70793741599846,62.70793741599846,62.70793741599846,62.88162462499895,نادرست! پاسخ صحیح گوینده۳ است,0,4,1,0.17254995800249162,None,62.885823874999915,62.89731687499807,64.89362929099661,64.89366241599782,64.89400554099848,[],[],[],[],[],[],[],False,,,,,,,,,,,,,,,,,,,,,,,,,,,,,,,,,,,,,358248,001,2024-08-04_14h51.22.104,5-34 ready-monolingual persian speaker,2024.1.5,None,2024-08-04 14h51.26.586555 +0900,
Images/Speaker1.jpg,Images/Speaker2.jpg,Images/Speaker3.jpg,Images/Speaker4.jpg,Audio/Speaker1_Per/P1-4-Per.wav,Speaker1,گوینده ۱,,,,,,,,0,0,0,68,0,4,4,13,,,,,64.9203338749976,,,,,,,,,,,,,,,,,,,,,,,,,,,,,,,,,,,,,,,,,,,,,,,,,,,,,,,,,,,,,,,,,,64.89545112499763,64.9203338749976,64.9203338749976,64.9203338749976,64.9203338749976,64.9267827493318,64.9203338749976,64.9203338749976,64.9203338749976,65.06723458299894,صحیح است,1,5,1,0.14589591599724372,None,65.07147724999959,65.08288299999913,67.07531587499761,67.07533495799726,67.07546420799918,[],[],[],[],[],[],[],False,,,,,,,,,,,,,,,,,,,,,,,,,,,,,,,,,,,,,358248,001,2024-08-04_14h51.22.104,5-34 ready-monolingual persian speaker,2024.1.5,None,2024-08-04 14h51.26.586555 +0900,
Images/Speaker1.jpg,Images/Speaker2.jpg,Images/Speaker3.jpg,Images/Speaker4.jpg,Audio/Speaker3_Per/P3-11-Per.wav,Speaker3,گوینده۳,,,,,,,,0,0,0,68,0,5,5,50,,,,,67.10084149999966,,,,,,,,,,,,,,,,,,,,,,,,,,,,,,,,,,,,,,,,,,,,,,,,,,,,,,,,,,,,,,,,,,67.07589991599889,67.10084149999966,67.10084149999966,67.10084149999966,67.10084149999966,67.10858091633102,67.10084149999966,67.10084149999966,67.10084149999966,67.43249820799974,نادرست! پاسخ صحیح گوینده۳ است,1,6,1,0.3296410830007517,None,67.43650554099804,67.44760633299666,69.43275374999939,69.4327663749973,69.43288116599797,[],[],[],[],[],[],[],False,69.45620908299679,,,,,,,,,,,,,,,,,,,,,,,,,,,,,,,,,,,,358248,001,2024-08-04_14h51.22.104,5-34 ready-monolingual persian speaker,2024.1.5,None,2024-08-04 14h51.26.586555 +0900,
Images/Speaker1.jpg,Images/Speaker2.jpg,Images/Speaker3.jpg,Images/Speaker4.jpg,Audio/Speaker4_Per/P4-7-Per.wav,Speaker4,گوینده۴,,,,,,,,0,0,0,68,0,6,6,66,,,,,69.45620908299679,,,,,,,,,,,,,,,,,,,,,,,,,,,,,,,,,,,,,,,,,,,,,,,,,,,,,,,,,,,,,,,,,,69.43330633299774,69.45620908299679,69.45620908299679,69.45620908299679,69.45620908299679,69.46584079133075,69.45620908299679,69.45620908299679,69.45620908299679,69.79510775000017,نادرست! پاسخ صحیح گوینده۴ است,1,7,1,0.3376388329998008,None,69.79932237499816,69.81141337499866,71.80066212499878,71.800689124997,71.80102270799762,[],[],[],[],[],[],[],False,,,,,,,,,,,,,,,,,,,,,,,,,,,,,,,,,,,,,358248,001,2024-08-04_14h51.22.104,5-34 ready-monolingual persian speaker,2024.1.5,None,2024-08-04 14h51.26.586555 +0900,
Images/Speaker1.jpg,Images/Speaker2.jpg,Images/Speaker3.jpg,Images/Speaker4.jpg,Audio/Speaker2_Per/P2-1-Per.wav,Speaker2,گوینده۲,,,,,,,,0,0,0,68,0,7,7,20,,,,,71.8275353329991,,,,,,,,,,,,,,,,,,,,,,,,,,,,,,,,,,,,,,,,,,,,,,,,,,,,,,,,,,,,,,,,,,71.80235470799744,71.8275353329991,71.8275353329991,71.8275353329991,71.8275353329991,71.83379837432997,71.8275353329991,71.8275353329991,71.8275353329991,72.0417581249967,نادرست! پاسخ صحیح گوینده۲ است,1,8,1,0.21071912499974133,None,72.04556633299944,72.05642729099782,74.04078629099968,74.04079654099769,74.04088974999831,[],[],[],[],[],[],[],False,74.06531687499955,,,,,,,,,,,,,,,,,,,,,,,,,,,,,,,,,,,,358248,001,2024-08-04_14h51.22.104,5-34 ready-monolingual persian speaker,2024.1.5,None,2024-08-04 14h51.26.586555 +0900,
Images/Speaker1.jpg,Images/Speaker2.jpg,Images/Speaker3.jpg,Images/Speaker4.jpg,Audio/Speaker3_Per/P3-15-Per.wav,Speaker3,گوینده۳,,,,,,,,0,0,0,68,0,8,8,54,,,,,74.06531687499955,,,,,,,,,,,,,,,,,,,,,,,,,,,,,,,,,,,,,,,,,,,,,,,,,,,,,,,,,,,,,,,,,,74.04131095799676,74.06531687499955,74.06531687499955,74.06531687499955,74.06531687499955,74.0738458743331,74.06531687499955,74.06531687499955,74.06531687499955,74.62909529099852,نادرست! پاسخ صحیح گوینده۳ است,1,9,1,0.5623034160016687,None,74.63309083299828,74.64472845799901,76.63444229099696,76.63445274999685,76.63456266599678,[],[],[],[],[],[],[],False,,,,,,,,,,,,,,,,,,,,,,,,,,,,,,,,,,,,,358248,001,2024-08-04_14h51.22.104,5-34 ready-monolingual persian speaker,2024.1.5,None,2024-08-04 14h51.26.586555 +0900,
Images/Speaker1.jpg,Images/Speaker2.jpg,Images/Speaker3.jpg,Images/Speaker4.jpg,Audio/Speaker3_Per/P3-7-Per.wav,Speaker3,گوینده۳,,,,,,,,0,0,0,68,0,9,9,46,,,,,76.65798741599792,,,,,,,,,,,,,,,,,,,,,,,,,,,,,,,,,,,,,,,,,,,,,,,,,,,,,,,,,,,,,,,,,,76.6349867079989,76.65798741599792,76.65798741599792,76.65798741599792,76.65798741599792,76.65106341666639,76.65798741599792,76.65798741599792,76.65798741599792,76.95188224999947,نادرست! پاسخ صحیح گوینده۳ است,1,10,1,0.2847606249997625,None,76.95590579099735,76.96702291600013,78.95976637499916,78.95979729099781,78.96015091599838,[],[],[],[],[],[],[],False,,,,,,,,,,,,,,,,,,,,,,,,,,,,,,,,,,,,,358248,001,2024-08-04_14h51.22.104,5-34 ready-monolingual persian speaker,2024.1.5,None,2024-08-04 14h51.26.586555 +0900,
Images/Speaker1.jpg,Images/Speaker2.jpg,Images/Speaker3.jpg,Images/Speaker4.jpg,Audio/Speaker4_Per/P4-19-Per.wav,Speaker4,گوینده۴,,,,,,,,0,0,0,68,0,10,10,78,,,,,78.98920583299696,,,,,,,,,,,,,,,,,,,,,,,,,,,,,,,,,,,,,,,,,,,,,,,,,,,,,,,,,,,,,,,,,,78.96167974999844,78.98920583299696,78.98920583299696,78.98920583299696,78.98920583299696,78.99294808333119,78.98920583299696,78.98920583299696,78.98920583299696,79.23941729099897,نادرست! پاسخ صحیح گوینده۴ است,1,11,1,0.24159470800077543,None,79.24341912499949,79.25524120799673,81.24245937499654,81.24246937499993,81.24257620799835,[],[],[],[],[],[],[],False,81.26583008299713,,,,,,,,,,,,,,,,,,,,,,,,,,,,,,,,,,,,358248,001,2024-08-04_14h51.22.104,5-34 ready-monolingual persian speaker,2024.1.5,None,2024-08-04 14h51.26.586555 +0900,
Images/Speaker1.jpg,Images/Speaker2.jpg,Images/Speaker3.jpg,Images/Speaker4.jpg,Audio/Speaker1_Per/P1-4-Per.wav,Speaker1,گوینده ۱,,,,,,,,0,0,0,68,0,11,11,3,,,,,81.26583008299713,,,,,,,,,,,,,,,,,,,,,,,,,,,,,,,,,,,,,,,,,,,,,,,,,,,,,,,,,,,,,,,,,,81.24298895799802,81.26583008299713,81.26583008299713,81.26583008299713,81.26583008299713,81.25889420766568,81.26583008299713,81.26583008299713,81.26583008299713,81.52449233299922,صحیح است,2,12,1,0.2577275420007936,None,81.52839312499782,81.53801929099791,83.52248424999925,83.52249449999726,83.52260929099793,[],[],[],[],[],[],[],False,83.54551708299914,,,,,,,,,,,,,,,,,,,,,,,,,,,,,,,,,,,,358248,001,2024-08-04_14h51.22.104,5-34 ready-monolingual persian speaker,2024.1.5,None,2024-08-04 14h51.26.586555 +0900,
Images/Speaker1.jpg,Images/Speaker2.jpg,Images/Speaker3.jpg,Images/Speaker4.jpg,Audio/Speaker2_Per/P2-19-Per.wav,Speaker2,گوینده۲,,,,,,,,0,0,0,68,0,12,12,38,,,,,83.54551708299914,,,,,,,,,,,,,,,,,,,,,,,,,,,,,,,,,,,,,,,,,,,,,,,,,,,,,,,,,,,,,,,,,,83.52302004099693,83.54551708299914,83.54551708299914,83.54551708299914,83.54551708299914,83.53893845766676,83.54551708299914,83.54551708299914,83.54551708299914,83.71746754099877,نادرست! پاسخ صحیح گوینده۲ است,2,13,1,0.1701009169992176,None,83.72155441599898,83.7324141249992,85.72206899999946,85.7220788329978,85.722173457998,[],[],[],[],[],[],[],False,,,,,,,,,,,,,,,,,,,,,,,,,,,,,,,,,,,,,358248,001,2024-08-04_14h51.22.104,5-34 ready-monolingual persian speaker,2024.1.5,None,2024-08-04 14h51.26.586555 +0900,
Images/Speaker1.jpg,Images/Speaker2.jpg,Images/Speaker3.jpg,Images/Speaker4.jpg,Audio/Speaker2_Per/P2-3-Per.wav,Speaker2,گوینده۲,,,,,,,,0,0,0,68,0,13,13,22,,,,,85.74549729099817,,,,,,,,,,,,,,,,,,,,,,,,,,,,,,,,,,,,,,,,,,,,,,,,,,,,,,,,,,,,,,,,,,85.72255966599914,85.74549729099817,85.74549729099817,85.74549729099817,85.74549729099817,85.7386967916648,85.74549729099817,85.74549729099817,85.74549729099817,85.9078953749995,نادرست! پاسخ صحیح گوینده۲ است,2,14,1,0.15996754200023133,None,85.91220587499993,85.92373691600005,87.90945724999983,87.90948204099914,87.90980554099951,[],[],[],[],[],[],[],False,87.93330662500011,,,,,,,,,,,,,,,,,,,,,,,,,,,,,,,,,,,,358248,001,2024-08-04_14h51.22.104,5-34 ready-monolingual persian speaker,2024.1.5,None,2024-08-04 14h51.26.586555 +0900,
Images/Speaker1.jpg,Images/Speaker2.jpg,Images/Speaker3.jpg,Images/Speaker4.jpg,Audio/Speaker2_Per/P2-20-Per.wav,Speaker2,گوینده۲,,,,,,,,0,0,0,68,0,14,14,39,,,,,87.93330662500011,,,,,,,,,,,,,,,,,,,,,,,,,,,,,,,,,,,,,,,,,,,,,,,,,,,,,,,,,,,,,,,,,,87.91093016599916,87.93330662500011,87.93330662500011,87.93330662500011,87.93330662500011,87.94178654133114,87.93330662500011,87.93330662500011,87.93330662500011,88.1869074999995,نادرست! پاسخ صحیح گوینده۲ است,2,15,1,0.2514818749987171,None,88.19065570800012,88.2022471249984,90.19103424999776,90.19106933299918,90.19145824999941,[],[],[],[],[],[],[],False,,,,,,,,,,,,,,,,,,,,,,,,,,,,,,,,,,,,,358248,001,2024-08-04_14h51.22.104,5-34 ready-monolingual persian speaker,2024.1.5,None,2024-08-04 14h51.26.586555 +0900,
Images/Speaker1.jpg,Images/Speaker2.jpg,Images/Speaker3.jpg,Images/Speaker4.jpg,Audio/Speaker2_Per/P2-9-Per.wav,Speaker2,گوینده۲,,,,,,,,0,0,0,68,0,15,15,28,,,,,90.21652670799813,,,,,,,,,,,,,,,,,,,,,,,,,,,,,,,,,,,,,,,,,,,,,,,,,,,,,,,,,,,,,,,,,,90.192668124997,90.21652670799813,90.21652670799813,90.21652670799813,90.21652670799813,90.22418616633198,90.21652670799813,90.21652670799813,90.21652670799813,90.4124754159966,نادرست! پاسخ صحیح گوینده۲ است,2,16,1,0.1931130420016416,None,90.41628237499754,90.42776208299983,92.41029220799828,92.41030537499682,92.41043870799695,[],[],[],[],[],[],[],False,92.43501116599873,,,,,,,,,,,,,,,,,,,,,,,,,,,,,,,,,,,,358248,001,2024-08-04_14h51.22.104,5-34 ready-monolingual persian speaker,2024.1.5,None,2024-08-04 14h51.26.586555 +0900,
Images/Speaker1.jpg,Images/Speaker2.jpg,Images/Speaker3.jpg,Images/Speaker4.jpg,Audio/Speaker1_Per/P1-11-Per.wav,Speaker1,گوینده ۱,,,,,,,,0,0,0,68,0,16,16,10,,,,,92.43501116599873,,,,,,,,,,,,,,,,,,,,,,,,,,,,,,,,,,,,,,,,,,,,,,,,,,,,,,,,,,,,,,,,,,92.41087779099689,92.43501116599873,92.43501116599873,92.43501116599873,92.43501116599873,92.44343095833077,92.43501116599873,92.43501116599873,92.43501116599873,92.64923504099716,صحیح است,3,17,1,0.2076768750011979,None,92.65326458299751,92.66363895799805,94.64960883299864,94.6496418329989,94.6501258749995,[],[],[],[],[],[],[],False,94.67510591599785,,,,,,,,,,,,,,,,,,,,,,,,,,,,,,,,,,,,358248,001,2024-08-04_14h51.22.104,5-34 ready-monolingual persian speaker,2024.1.5,None,2024-08-04 14h51.26.586555 +0900,
Images/Speaker1.jpg,Images/Speaker2.jpg,Images/Speaker3.jpg,Images/Speaker4.jpg,Audio/Speaker1_Per/P1-2-Per.wav,Speaker1,گوینده ۱,,,,,,,,0,0,0,68,0,17,17,1,,,,,94.67510591599785,,,,,,,,,,,,,,,,,,,,,,,,,,,,,,,,,,,,,,,,,,,,,,,,,,,,,,,,,,,,,,,,,,94.65111029099717,94.67510591599785,94.67510591599785,94.67510591599785,94.67510591599785,94.68216474933118,94.67510591599785,94.67510591599785,94.67510591599785,94.68986324999787,صحیح است,4,18,1,0.006149417000415269,None,94.6937964159988,94.7020824579995,96.68767999999909,96.68768970800011,96.68780137499925,[],[],[],[],[],[],[],False,96.71116658299798,,,,,,,,,,,,,,,,,,,,,,,,,,,,,,,,,,,,358248,001,2024-08-04_14h51.22.104,5-34 ready-monolingual persian speaker,2024.1.5,None,2024-08-04 14h51.26.586555 +0900,
Images/Speaker1.jpg,Images/Speaker2.jpg,Images/Speaker3.jpg,Images/Speaker4.jpg,Audio/Speaker1_Per/P1-15-Per.wav,Speaker1,گوینده ۱,,,,,,,,0,0,0,68,0,18,18,14,,,,,96.71116658299798,,,,,,,,,,,,,,,,,,,,,,,,,,,,,,,,,,,,,,,,,,,,,,,,,,,,,,,,,,,,,,,,,,96.6881994159994,96.71116658299798,96.71116658299798,96.71116658299798,96.71116658299798,96.70414395766444,96.71116658299798,96.71116658299798,96.71116658299798,96.99847349999982,صحیح است,5,19,1,0.27718675000141957,None,97.00260466599866,97.01314483299939,99.00196795800002,99.00200699999914,99.00244091599961,[],[],[],[],[],[],[],False,99.02726737499688,,,,,,,,,,,,,,,,,,,,,,,,,,,,,,,,,,,,358248,001,2024-08-04_14h51.22.104,5-34 ready-monolingual persian speaker,2024.1.5,None,2024-08-04 14h51.26.586555 +0900,
Images/Speaker1.jpg,Images/Speaker2.jpg,Images/Speaker3.jpg,Images/Speaker4.jpg,Audio/Speaker1_Per/P1-8-Per.wav,Speaker1,گوینده ۱,,,,,,,,0,0,0,68,0,19,19,7,,,,,99.02726737499688,,,,,,,,,,,,,,,,,,,,,,,,,,,,,,,,,,,,,,,,,,,,,,,,,,,,,,,,,,,,,,,,,,99.00353083299706,99.02726737499688,99.02726737499688,99.02726737499688,99.02726737499688,99.03444262433234,99.02726737499688,99.02726737499688,99.02726737499688,99.13505666599667,صحیح است,6,20,1,0.1001397910004016,None,99.13881949999995,99.14943941599995,101.13274395799817,101.13275512499968,101.1328521659998,[],[],[],[],[],[],[],False,101.15534687499894,,,,,,,,,,,,,,,,,,,,,,,,,,,,,,,,,,,,358248,001,2024-08-04_14h51.22.104,5-34 ready-monolingual persian speaker,2024.1.5,None,2024-08-04 14h51.26.586555 +0900,
Images/Speaker1.jpg,Images/Speaker2.jpg,Images/Speaker3.jpg,Images/Speaker4.jpg,Audio/Speaker3_Per/P3-20-Per.wav,Speaker3,گوینده۳,,,,,,,,0,0,0,68,0,20,20,59,,,,,101.15534687499894,,,,,,,,,,,,,,,,,,,,,,,,,,,,,,,,,,,,,,,,,,,,,,,,,,,,,,,,,,,,,,,,,,101.13326095799857,101.15534687499894,101.15534687499894,101.15534687499894,101.15534687499894,101.14919745766407,101.15534687499894,101.15534687499894,101.15534687499894,101.48748958299984,نادرست! پاسخ صحیح گوینده۳ است,6,21,1,0.33120966700153076,None,101.49134654099907,101.50258516599934,103.49149866599691,103.4915582499998,103.49214008299896,[],[],[],[],[],[],[],False,103.51581329100009,,,,,,,,,,,,,,,,,,,,,,,,,,,,,,,,,,,,358248,001,2024-08-04_14h51.22.104,5-34 ready-monolingual persian speaker,2024.1.5,None,2024-08-04 14h51.26.586555 +0900,
Images/Speaker1.jpg,Images/Speaker2.jpg,Images/Speaker3.jpg,Images/Speaker4.jpg,Audio/Speaker1_Per/P1-9-Per.wav,Speaker1,گوینده ۱,,,,,,,,0,0,0,68,0,21,21,8,,,,,103.51581329100009,,,,,,,,,,,,,,,,,,,,,,,,,,,,,,,,,,,,,,,,,,,,,,,,,,,,,,,,,,,,,,,,,,103.49280004100001,103.51581329100009,103.51581329100009,103.51581329100009,103.51581329100009,103.52375491633259,103.51581329100009,103.51581329100009,103.51581329100009,103.6169051249999,صحیح است,7,22,1,0.08934799999769893,None,103.6210122909979,103.6311961249994,105.61603245799779,105.61605929099824,105.6164773749988,[],[],[],[],[],[],[],False,105.64248941599726,,,,,,,,,,,,,,,,,,,,,,,,,,,,,,,,,,,,358248,001,2024-08-04_14h51.22.104,5-34 ready-monolingual persian speaker,2024.1.5,None,2024-08-04 14h51.26.586555 +0900,
Images/Speaker1.jpg,Images/Speaker2.jpg,Images/Speaker3.jpg,Images/Speaker4.jpg,Audio/Speaker3_Per/P3-18-Per.wav,Speaker3,گوینده۳,,,,,,,,0,0,0,68,0,22,22,57,,,,,105.64248941599726,,,,,,,,,,,,,,,,,,,,,,,,,,,,,,,,,,,,,,,,,,,,,,,,,,,,,,,,,,,,,,,,,,105.61813579099908,105.64248941599726,105.64248941599726,105.64248941599726,105.64248941599726,105.64859724933243,105.64248941599726,105.64248941599726,105.64248941599726,106.06277458299883,نادرست! پاسخ صحیح گوینده۳ است,7,23,1,0.41824354200070957,None,106.06671129099777,106.0785377079992,108.06118854099986,108.06119733299784,108.06130345799829,[],[],[],[],[],[],[],False,108.08486570799869,,,,,,,,,,,,,,,,,,,,,,,,,,,,,,,,,,,,358248,001,2024-08-04_14h51.22.104,5-34 ready-monolingual persian speaker,2024.1.5,None,2024-08-04 14h51.26.586555 +0900,
Images/Speaker1.jpg,Images/Speaker2.jpg,Images/Speaker3.jpg,Images/Speaker4.jpg,Audio/Speaker4_Per/P4-12-Per.wav,Speaker4,گوینده۴,,,,,,,,0,0,0,68,0,23,23,71,,,,,108.08486570799869,,,,,,,,,,,,,,,,,,,,,,,,,,,,,,,,,,,,,,,,,,,,,,,,,,,,,,,,,,,,,,,,,,108.06174533299782,108.08486570799869,108.08486570799869,108.08486570799869,108.08486570799869,108.09425095833333,108.08486570799869,108.08486570799869,108.08486570799869,108.54788587499934,نادرست! پاسخ صحیح گوینده۴ است,7,24,1,0.4604604999985895,None,108.55172433299958,108.56318566599657,110.54854662499929,110.54855616599889,110.54865254099786,[],[],[],[],[],[],[],False,110.57110474999718,,,,,,,,,,,,,,,,,,,,,,,,,,,,,,,,,,,,358248,001,2024-08-04_14h51.22.104,5-34 ready-monolingual persian speaker,2024.1.5,None,2024-08-04 14h51.26.586555 +0900,
Images/Speaker1.jpg,Images/Speaker2.jpg,Images/Speaker3.jpg,Images/Speaker4.jpg,Audio/Speaker2_Per/P2-12-Per.wav,Speaker2,گوینده۲,,,,,,,,0,0,0,68,0,24,24,31,,,,,110.57110474999718,,,,,,,,,,,,,,,,,,,,,,,,,,,,,,,,,,,,,,,,,,,,,,,,,,,,,,,,,,,,,,,,,,110.54905612499715,110.57110474999718,110.57110474999718,110.57110474999718,110.57110474999718,110.56501320766644,110.57110474999718,110.57110474999718,110.57110474999718,111.02070199999798,نادرست! پاسخ صحیح گوینده۲ است,7,25,1,0.444467249999434,None,111.02462354099771,111.03601887499826,113.02539291599896,113.02541841599668,113.02571054099826,[],[],[],[],[],[],[],False,113.05082179099918,,,,,,,,,,,,,,,,,,,,,,,,,,,,,,,,,,,,358248,001,2024-08-04_14h51.22.104,5-34 ready-monolingual persian speaker,2024.1.5,None,2024-08-04 14h51.26.586555 +0900,
Images/Speaker1.jpg,Images/Speaker2.jpg,Images/Speaker3.jpg,Images/Speaker4.jpg,Audio/Speaker4_Per/P4-5-Per.wav,Speaker4,گوینده۴,,,,,,,,0,0,0,68,0,25,25,64,,,,,113.05082179099918,,,,,,,,,,,,,,,,,,,,,,,,,,,,,,,,,,,,,,,,,,,,,,,,,,,,,,,,,,,,,,,,,,113.02692974999809,113.05082179099918,113.05082179099918,113.05082179099918,113.05082179099918,113.05776324933007,113.05082179099918,113.05082179099918,113.05082179099918,113.24214504099655,نادرست! پاسخ صحیح گوینده۴ است,7,26,1,0.17976045799878193,None,113.24609516599958,113.2571832499998,115.24113649999708,115.24115887500011,115.24157541599925,[],[],[],[],[],[],[],False,115.26512045799973,,,,,,,,,,,,,,,,,,,,,,,,,,,,,,,,,,,,358248,001,2024-08-04_14h51.22.104,5-34 ready-monolingual persian speaker,2024.1.5,None,2024-08-04 14h51.26.586555 +0900,
Images/Speaker1.jpg,Images/Speaker2.jpg,Images/Speaker3.jpg,Images/Speaker4.jpg,Audio/Speaker4_Per/P4-9-Per.wav,Speaker4,گوینده۴,,,,,,,,0,0,0,68,0,26,26,68,,,,,115.26512045799973,,,,,,,,,,,,,,,,,,,,,,,,,,,,,,,,,,,,,,,,,,,,,,,,,,,,,,,,,,,,,,,,,,115.2425979159998,115.26512045799973,115.26512045799973,115.26512045799973,115.26512045799973,115.27371137433195,115.26512045799973,115.26512045799973,115.26512045799973,115.60390049999842,نادرست! پاسخ صحیح گوینده۴ است,7,27,1,0.33770524999999907,None,115.60797233299672,115.61909916599689,117.60413295799663,117.60414274999857,117.60425491599744,[],[],[],[],[],[],[],False,117.62807508299738,,,,,,,,,,,,,,,,,,,,,,,,,,,,,,,,,,,,358248,001,2024-08-04_14h51.22.104,5-34 ready-monolingual persian speaker,2024.1.5,None,2024-08-04 14h51.26.586555 +0900,
Images/Speaker1.jpg,Images/Speaker2.jpg,Images/Speaker3.jpg,Images/Speaker4.jpg,Audio/Speaker4_Per/P4-4-Per.wav,Speaker4,گوینده۴,,,,,,,,0,0,0,68,0,27,27,63,,,,,117.62807508299738,,,,,,,,,,,,,,,,,,,,,,,,,,,,,,,,,,,,,,,,,,,,,,,,,,,,,,,,,,,,,,,,,,117.60470458299824,117.62807508299738,117.62807508299738,117.62807508299738,117.62807508299738,117.63725383333124,117.62807508299738,117.62807508299738,117.62807508299738,117.85941862499749,نادرست! پاسخ صحیح گوینده۴ است,7,28,1,0.22733175000030315,None,117.86359533299765,117.87518854099835,119.86027804100013,119.86028929099848,119.86040624999805,[],[],[],[],[],[],[],False,119.88362679099737,,,,,,,,,,,,,,,,,,,,,,,,,,,,,,,,,,,,358248,001,2024-08-04_14h51.22.104,5-34 ready-monolingual persian speaker,2024.1.5,None,2024-08-04 14h51.26.586555 +0900,
Images/Speaker1.jpg,Images/Speaker2.jpg,Images/Speaker3.jpg,Images/Speaker4.jpg,Audio/Speaker3_Per/P3-16-Per.wav,Speaker3,گوینده۳,,,,,,,,0,0,0,68,0,28,28,55,,,,,119.88362679099737,,,,,,,,,,,,,,,,,,,,,,,,,,,,,,,,,,,,,,,,,,,,,,,,,,,,,,,,,,,,,,,,,,119.8608362499981,119.88362679099737,119.88362679099737,119.88362679099737,119.88362679099737,119.87672862466594,119.88362679099737,119.88362679099737,119.88362679099737,120.23281645799943,نادرست! پاسخ صحیح گوینده۳ است,7,29,1,0.34740129100100603,None,120.23673912499726,120.24800108299678,122.24104887499925,122.24109158299689,122.24148137500015,[],[],[],[],[],[],[],False,,,,,,,,,,,,,,,,,,,,,,,,,,,,,,,,,,,,,358248,001,2024-08-04_14h51.22.104,5-34 ready-monolingual persian speaker,2024.1.5,None,2024-08-04 14h51.26.586555 +0900,
Images/Speaker1.jpg,Images/Speaker2.jpg,Images/Speaker3.jpg,Images/Speaker4.jpg,Audio/Speaker1_Per/P1-3-Per.wav,Speaker1,گوینده ۱,,,,,,,,0,0,0,68,0,29,29,2,,,,,122.26909324999724,,,,,,,,,,,,,,,,,,,,,,,,,,,,,,,,,,,,,,,,,,,,,,,,,,,,,,,,,,,,,,,,,,122.24274716599757,122.26909324999724,122.26909324999724,122.26909324999724,122.26909324999724,122.27422499933212,122.26909324999724,122.26909324999724,122.26909324999724,122.58721487499861,صحیح است,8,30,1,0.31307675000061863,None,122.59114087499984,122.60179949999656,124.59038441599841,124.59039429099721,124.59050812499845,[],[],[],[],[],[],[],False,124.61474474999704,,,,,,,,,,,,,,,,,,,,,,,,,,,,,,,,,,,,358248,001,2024-08-04_14h51.22.104,5-34 ready-monolingual persian speaker,2024.1.5,None,2024-08-04 14h51.26.586555 +0900,
Images/Speaker1.jpg,Images/Speaker2.jpg,Images/Speaker3.jpg,Images/Speaker4.jpg,Audio/Speaker4_Per/P4-8-Per.wav,Speaker4,گوینده۴,,,,,,,,0,0,0,68,0,30,30,67,,,,,124.61474474999704,,,,,,,,,,,,,,,,,,,,,,,,,,,,,,,,,,,,,,,,,,,,,,,,,,,,,,,,,,,,,,,,,,124.59093087499787,124.61474474999704,124.61474474999704,124.61474474999704,124.61474474999704,124.62348108333074,124.61474474999704,124.61474474999704,124.61474474999704,124.9427607079997,نادرست! پاسخ صحیح گوینده۴ است,8,31,1,0.3247245409984316,None,124.94707945799746,124.9583223749978,126.9411995829978,126.94121495799845,126.94137754099938,[],[],[],[],[],[],[],False,126.965399040997,,,,,,,,,,,,,,,,,,,,,,,,,,,,,,,,,,,,358248,001,2024-08-04_14h51.22.104,5-34 ready-monolingual persian speaker,2024.1.5,None,2024-08-04 14h51.26.586555 +0900,
Images/Speaker1.jpg,Images/Speaker2.jpg,Images/Speaker3.jpg,Images/Speaker4.jpg,Audio/Speaker4_Per/P4-14-Per.wav,Speaker4,گوینده۴,,,,,,,,0,0,0,68,0,31,31,73,,,,,126.965399040997,,,,,,,,,,,,,,,,,,,,,,,,,,,,,,,,,,,,,,,,,,,,,,,,,,,,,,,,,,,,,,,,,,126.9418129159967,126.965399040997,126.965399040997,126.965399040997,126.965399040997,126.97434104133256,126.965399040997,126.965399040997,126.965399040997,127.53678670799854,نادرست! پاسخ صحیح گوینده۴ است,8,32,1,0.5696868749982968,None,127.54054020799958,127.55234174999714,129.53592329099774,129.5359353749991,129.536053541,[],[],[],[],[],[],[],False,129.55908016600006,,,,,,,,,,,,,,,,,,,,,,,,,,,,,,,,,,,,358248,001,2024-08-04_14h51.22.104,5-34 ready-monolingual persian speaker,2024.1.5,None,2024-08-04 14h51.26.586555 +0900,
Images/Speaker1.jpg,Images/Speaker2.jpg,Images/Speaker3.jpg,Images/Speaker4.jpg,Audio/Speaker2_Per/P2-4-Per.wav,Speaker2,گوینده۲,,,,,,,,0,0,0,68,0,32,32,23,,,,,129.55908016600006,,,,,,,,,,,,,,,,,,,,,,,,,,,,,,,,,,,,,,,,,,,,,,,,,,,,,,,,,,,,,,,,,,129.53644595799778,129.55908016600006,129.55908016600006,129.55908016600006,129.55908016600006,129.55240258266375,129.55908016600006,129.55908016600006,129.55908016600006,130.51260424999782,نادرست! پاسخ صحیح گوینده۲ است,8,33,1,0.9506248329998925,None,130.51680854099686,130.5279407079979,132.51840141599678,132.5184303749993,132.51878754099744,[],[],[],[],[],[],[],False,,,,,,,,,,,,,,,,,,,,,,,,,,,,,,,,,,,,,358248,001,2024-08-04_14h51.22.104,5-34 ready-monolingual persian speaker,2024.1.5,None,2024-08-04 14h51.26.586555 +0900,
Images/Speaker1.jpg,Images/Speaker2.jpg,Images/Speaker3.jpg,Images/Speaker4.jpg,Audio/Speaker3_Per/P3-12-Per.wav,Speaker3,گوینده۳,,,,,,,,0,0,0,68,0,33,33,51,,,,,132.543441040998,,,,,,,,,,,,,,,,,,,,,,,,,,,,,,,,,,,,,,,,,,,,,,,,,,,,,,,,,,,,,,,,,,132.52019624999957,132.543441040998,132.543441040998,132.543441040998,132.543441040998,132.55155312433322,132.543441040998,132.543441040998,132.543441040998,132.58710391599743,نادرست! پاسخ صحیح گوینده۳ است,8,34,1,0.038927375000639586,None,132.59084258299845,132.60147637499904,134.58853308299877,134.58854337499724,134.58863095799825,[],[],[],[],[],[],[],False,134.61169562499708,,,,,,,,,,,,,,,,,,,,,,,,,,,,,,,,,,,,358248,001,2024-08-04_14h51.22.104,5-34 ready-monolingual persian speaker,2024.1.5,None,2024-08-04 14h51.26.586555 +0900,
Images/Speaker1.jpg,Images/Speaker2.jpg,Images/Speaker3.jpg,Images/Speaker4.jpg,Audio/Speaker1_Per/P1-10-Per.wav,Speaker1,گوینده ۱,,,,,,,,0,0,0,68,0,34,34,9,,,,,134.61169562499708,,,,,,,,,,,,,,,,,,,,,,,,,,,,,,,,,,,,,,,,,,,,,,,,,,,,,,,,,,,,,,,,,,134.58902749999834,134.61169562499708,134.61169562499708,134.61169562499708,134.61169562499708,134.60494433266675,134.61169562499708,134.61169562499708,134.61169562499708,134.95390191599654,صحیح است,9,35,1,0.340873917000863,None,134.95774354099922,134.96826212499946,136.9518622079995,136.95187108299797,136.9519984159997,[],[],[],[],[],[],[],False,136.97583620799924,,,,,,,,,,,,,,,,,,,,,,,,,,,,,,,,,,,,358248,001,2024-08-04_14h51.22.104,5-34 ready-monolingual persian speaker,2024.1.5,None,2024-08-04 14h51.26.586555 +0900,
Images/Speaker1.jpg,Images/Speaker2.jpg,Images/Speaker3.jpg,Images/Speaker4.jpg,Audio/Speaker3_Per/P3-13-Per.wav,Speaker3,گوینده۳,,,,,,,,0,0,0,68,0,35,35,52,,,,,136.97583620799924,,,,,,,,,,,,,,,,,,,,,,,,,,,,,,,,,,,,,,,,,,,,,,,,,,,,,,,,,,,,,,,,,,136.95243458299956,136.97583620799924,136.97583620799924,136.97583620799924,136.97583620799924,136.98498366633117,136.97583620799924,136.97583620799924,136.97583620799924,137.258008290999,نادرست! پاسخ صحیح گوینده۳ است,9,36,1,0.27899779200015473,None,137.26181837499826,137.27272637499846,139.2581396659989,139.25816320800004,139.258461333,[],[],[],[],[],[],[],False,139.28317049999896,,,,,,,,,,,,,,,,,,,,,,,,,,,,,,,,,,,,358248,001,2024-08-04_14h51.22.104,5-34 ready-monolingual persian speaker,2024.1.5,None,2024-08-04 14h51.26.586555 +0900,
Images/Speaker1.jpg,Images/Speaker2.jpg,Images/Speaker3.jpg,Images/Speaker4.jpg,Audio/Speaker4_Per/P4-10-Per.wav,Speaker4,گوینده۴,,,,,,,,0,0,0,68,0,36,36,69,,,,,139.28317049999896,,,,,,,,,,,,,,,,,,,,,,,,,,,,,,,,,,,,,,,,,,,,,,,,,,,,,,,,,,,,,,,,,,139.25961487499808,139.28317049999896,139.28317049999896,139.28317049999896,139.28317049999896,139.29091237433073,139.28317049999896,139.28317049999896,139.28317049999896,139.52584020799986,نادرست! پاسخ صحیح گوینده۴ است,9,37,1,0.23516645800191327,None,139.5299583749984,139.54081062499972,141.53465829099878,141.53469899999982,141.53501879099713,[],[],[],[],[],[],[],False,,,,,,,,,,,,,,,,,,,,,,,,,,,,,,,,,,,,,358248,001,2024-08-04_14h51.22.104,5-34 ready-monolingual persian speaker,2024.1.5,None,2024-08-04 14h51.26.586555 +0900,
Images/Speaker1.jpg,Images/Speaker2.jpg,Images/Speaker3.jpg,Images/Speaker4.jpg,Audio/Speaker1_Per/P1-18-Per.wav,Speaker1,گوینده ۱,,,,,,,,0,0,0,68,0,37,37,17,,,,,141.56035841599805,,,,,,,,,,,,,,,,,,,,,,,,,,,,,,,,,,,,,,,,,,,,,,,,,,,,,,,,,,,,,,,,,,141.53621166599987,141.56035841599805,141.56035841599805,141.56035841599805,141.56035841599805,141.5677962493324,141.56035841599805,141.56035841599805,141.56035841599805,141.84928949999812,صحیح است,10,38,1,0.28794908299823874,None,141.85310345799735,141.86390299999766,143.84930816599808,143.84931795800003,143.84941704099765,[],[],[],[],[],[],[],False,143.87138437499743,,,,,,,,,,,,,,,,,,,,,,,,,,,,,,,,,,,,358248,001,2024-08-04_14h51.22.104,5-34 ready-monolingual persian speaker,2024.1.5,None,2024-08-04 14h51.26.586555 +0900,
Images/Speaker1.jpg,Images/Speaker2.jpg,Images/Speaker3.jpg,Images/Speaker4.jpg,Audio/Speaker2_Per/P2-17-Per.wav,Speaker2,گوینده۲,,,,,,,,0,0,0,68,0,38,38,36,,,,,143.87138437499743,,,,,,,,,,,,,,,,,,,,,,,,,,,,,,,,,,,,,,,,,,,,,,,,,,,,,,,,,,,,,,,,,,143.84983799999827,143.87138437499743,143.87138437499743,143.87138437499743,143.87138437499743,143.86578029166438,143.87138437499743,143.87138437499743,143.87138437499743,144.12452174999999,نادرست! پاسخ صحیح گوینده۲ است,10,39,1,0.25218300000051386,None,144.1283809159977,144.13950762499735,146.13242429099773,146.13243724999847,146.1325329579995,[],[],[],[],[],[],[],False,,,,,,,,,,,,,,,,,,,,,,,,,,,,,,,,,,,,,358248,001,2024-08-04_14h51.22.104,5-34 ready-monolingual persian speaker,2024.1.5,None,2024-08-04 14h51.26.586555 +0900,
Images/Speaker1.jpg,Images/Speaker2.jpg,Images/Speaker3.jpg,Images/Speaker4.jpg,Audio/Speaker2_Per/P2-13-Per.wav,Speaker2,گوینده۲,,,,,,,,0,0,0,68,0,39,39,32,,,,,146.15580595799838,,,,,,,,,,,,,,,,,,,,,,,,,,,,,,,,,,,,,,,,,,,,,,,,,,,,,,,,,,,,,,,,,,146.13293916600014,146.15580595799838,146.15580595799838,146.15580595799838,146.15580595799838,146.1490549996636,146.15580595799838,146.15580595799838,146.15580595799838,146.45398541599934,نادرست! پاسخ صحیح گوینده۲ است,10,40,1,0.2957694579999952,None,146.4581022079983,146.46943716599708,148.45320804099902,148.45321920799688,149.32789849999972,[-0.12525458248472504],[0.25661914460285135],[1],[0],[0],[0.8561957080019056],[],False,148.46806683299656,148.46806683299656,148.46806683299656,148.46806683299656,0.010004750001826324,,,,,,,,,,,,,,,,,,,,,,,,,,,,,,,,358248,001,2024-08-04_14h51.22.104,5-34 ready-monolingual persian speaker,2024.1.5,None,2024-08-04 14h51.26.586555 +0900,
Images/Speaker1.jpg,Images/Speaker2.jpg,Images/Speaker3.jpg,Images/Speaker4.jpg,Audio/Speaker3_Per/P3-4-Per.wav,Speaker3,گوینده۳,,,,,,,,0,0,0,68,0,40,40,43,,,,,149.34622216599746,,,,,,,,,,,,,,,,,,,,,,,,,,,,,,,,,,,,,,,,,,,,,,,,,,,,,,,,,,,,,,,,,,149.32828658299695,149.34622216599746,149.34622216599746,149.34622216599746,149.34622216599746,149.35729537433195,149.34622216599746,149.34622216599746,149.34622216599746,150.1627007499992,نادرست! پاسخ صحیح گوینده۳ است,10,41,1,0.8155039580015,None,150.1665582909991,150.17765074999988,152.17237804099932,152.17239045799943,152.17250562499976,[],[],[],[],[],[],[],False,,,,,,,,,,,,,,,,,,,,,,,,,,,,,,,,,,,,,358248,001,2024-08-04_14h51.22.104,5-34 ready-monolingual persian speaker,2024.1.5,None,2024-08-04 14h51.26.586555 +0900,
Images/Speaker1.jpg,Images/Speaker2.jpg,Images/Speaker3.jpg,Images/Speaker4.jpg,Audio/Speaker1_Per/P1-7-Per.wav,Speaker1,گوینده ۱,,,,,,,,0,0,0,68,0,41,41,6,,,,,152.19573562499863,,,,,,,,,,,,,,,,,,,,,,,,,,,,,,,,,,,,,,,,,,,,,,,,,,,,,,,,,,,,,,,,,,152.17293904100006,152.19573562499863,152.19573562499863,152.19573562499863,152.19573562499863,152.18901187466352,152.19573562499863,152.19573562499863,152.19573562499863,152.45113262499945,صحیح است,11,42,1,0.24814933300149278,None,152.4551423749981,152.46391287499864,154.44858091599963,154.44859045799967,154.4486964159987,[],[],[],[],[],[],[],False,154.4726374999991,,,,,,,,,,,,,,,,,,,,,,,,,,,,,,,,,,,,358248,001,2024-08-04_14h51.22.104,5-34 ready-monolingual persian speaker,2024.1.5,None,2024-08-04 14h51.26.586555 +0900,
Images/Speaker1.jpg,Images/Speaker2.jpg,Images/Speaker3.jpg,Images/Speaker4.jpg,Audio/Speaker4_Per/P4-13-Per.wav,Speaker4,گوینده۴,,,,,,,,0,0,0,68,0,42,42,72,,,,,154.4726374999991,,,,,,,,,,,,,,,,,,,,,,,,,,,,,,,,,,,,,,,,,,,,,,,,,,,,,,,,,,,,,,,,,,154.44910495799923,154.4726374999991,154.4726374999991,154.4726374999991,154.4726374999991,154.48170283333144,154.4726374999991,154.4726374999991,154.4726374999991,154.50552679099928,نادرست! پاسخ صحیح گوینده۴ است,11,43,1,0.029122332998667844,None,154.50971779099928,154.5201079159997,156.51300279099814,156.51304391599842,156.51344337499904,[],[],[],[],[],[],[],False,,,,,,,,,,,,,,,,,,,,,,,,,,,,,,,,,,,,,358248,001,2024-08-04_14h51.22.104,5-34 ready-monolingual persian speaker,2024.1.5,None,2024-08-04 14h51.26.586555 +0900,
Images/Speaker1.jpg,Images/Speaker2.jpg,Images/Speaker3.jpg,Images/Speaker4.jpg,Audio/Speaker1_Per/P1-20-Per.wav,Speaker1,گوینده ۱,,,,,,,,0,0,0,68,0,43,43,19,,,,,156.53989091599942,,,,,,,,,,,,,,,,,,,,,,,,,,,,,,,,,,,,,,,,,,,,,,,,,,,,,,,,,,,,,,,,,,156.51476849999744,156.53989091599942,156.53989091599942,156.53989091599942,156.53989091599942,156.54615716633322,156.53989091599942,156.53989091599942,156.53989091599942,156.7873657909986,صحیح است,12,44,1,0.24471216700112564,None,156.79128141599722,156.80160433299898,158.79182858299828,158.79186624999784,158.7923631659978,[],[],[],[],[],[],[],False,158.81726333299957,,,,,,,,,,,,,,,,,,,,,,,,,,,,,,,,,,,,358248,001,2024-08-04_14h51.22.104,5-34 ready-monolingual persian speaker,2024.1.5,None,2024-08-04 14h51.26.586555 +0900,
Images/Speaker1.jpg,Images/Speaker2.jpg,Images/Speaker3.jpg,Images/Speaker4.jpg,Audio/Speaker4_Per/P4-1-Per.wav,Speaker4,گوینده۴,,,,,,,,0,0,0,68,0,44,44,60,,,,,158.81726333299957,,,,,,,,,,,,,,,,,,,,,,,,,,,,,,,,,,,,,,,,,,,,,,,,,,,,,,,,,,,,,,,,,,158.79376495799806,158.81726333299957,158.81726333299957,158.81726333299957,158.81726333299957,158.8241963333317,158.81726333299957,158.81726333299957,158.81726333299957,159.00488720799694,نادرست! پاسخ صحیح گوینده۴ است,12,45,1,0.18243470800007344,None,159.008814290999,159.0203960409999,161.009280708,161.00932483299766,161.00966674999654,[],[],[],[],[],[],[],False,,,,,,,,,,,,,,,,,,,,,,,,,,,,,,,,,,,,,358248,001,2024-08-04_14h51.22.104,5-34 ready-monolingual persian speaker,2024.1.5,None,2024-08-04 14h51.26.586555 +0900,
Images/Speaker1.jpg,Images/Speaker2.jpg,Images/Speaker3.jpg,Images/Speaker4.jpg,Audio/Speaker4_Per/P4-18-Per.wav,Speaker4,گوینده۴,,,,,,,,0,0,0,68,0,45,45,77,,,,,161.03458758299894,,,,,,,,,,,,,,,,,,,,,,,,,,,,,,,,,,,,,,,,,,,,,,,,,,,,,,,,,,,,,,,,,,161.01112699999794,161.03458758299894,161.03458758299894,161.03458758299894,161.03458758299894,161.0424685413314,161.03458758299894,161.03458758299894,161.03458758299894,161.29999391599995,نادرست! پاسخ صحیح گوینده۴ است,12,46,1,0.2634882920028758,None,161.30380829099886,161.31516258299962,163.3066565409972,163.3066912079994,163.30704404099743,[],[],[],[],[],[],[],False,,,,,,,,,,,,,,,,,,,,,,,,,,,,,,,,,,,,,358248,001,2024-08-04_14h51.22.104,5-34 ready-monolingual persian speaker,2024.1.5,None,2024-08-04 14h51.26.586555 +0900,
Images/Speaker1.jpg,Images/Speaker2.jpg,Images/Speaker3.jpg,Images/Speaker4.jpg,Audio/Speaker4_Per/P4-3-Per.wav,Speaker4,گوینده۴,,,,,,,,0,0,0,68,0,46,46,62,,,,,163.33265629099697,,,,,,,,,,,,,,,,,,,,,,,,,,,,,,,,,,,,,,,,,,,,,,,,,,,,,,,,,,,,,,,,,,163.3085434579989,163.33265629099697,163.33265629099697,163.33265629099697,163.33265629099697,163.33979958333344,163.33265629099697,163.33265629099697,163.33265629099697,163.62878070799707,نادرست! پاسخ صحیح گوینده۴ است,12,47,1,0.28915354200216825,None,163.63259154099796,163.6411860829976,165.62847299999703,165.62848666599893,165.6285865409991,[],[],[],[],[],[],[],False,165.65186179099692,,,,,,,,,,,,,,,,,,,,,,,,,,,,,,,,,,,,358248,001,2024-08-04_14h51.22.104,5-34 ready-monolingual persian speaker,2024.1.5,None,2024-08-04 14h51.26.586555 +0900,
Images/Speaker1.jpg,Images/Speaker2.jpg,Images/Speaker3.jpg,Images/Speaker4.jpg,Audio/Speaker2_Per/P2-5-Per.wav,Speaker2,گوینده۲,,,,,,,,0,0,0,68,0,47,47,24,,,,,165.65186179099692,,,,,,,,,,,,,,,,,,,,,,,,,,,,,,,,,,,,,,,,,,,,,,,,,,,,,,,,,,,,,,,,,,165.6289741249966,165.65186179099692,165.65186179099692,165.65186179099692,165.65186179099692,165.64494349966506,165.65186179099692,165.65186179099692,165.65186179099692,165.87110570799996,نادرست! پاسخ صحیح گوینده۲ است,12,48,1,0.2074722079996718,None,165.87508304099902,165.88659324999753,167.8731722079974,167.87320854099744,167.87368474999676,[],[],[],[],[],[],[],False,167.89900795799986,,,,,,,,,,,,,,,,,,,,,,,,,,,,,,,,,,,,358248,001,2024-08-04_14h51.22.104,5-34 ready-monolingual persian speaker,2024.1.5,None,2024-08-04 14h51.26.586555 +0900,
Images/Speaker1.jpg,Images/Speaker2.jpg,Images/Speaker3.jpg,Images/Speaker4.jpg,Audio/Speaker3_Per/P3-9-Per.wav,Speaker3,گوینده۳,,,,,,,,0,0,0,68,0,48,48,48,,,,,167.89900795799986,,,,,,,,,,,,,,,,,,,,,,,,,,,,,,,,,,,,,,,,,,,,,,,,,,,,,,,,,,,,,,,,,,167.87523391599825,167.89900795799986,167.89900795799986,167.89900795799986,167.89900795799986,167.90570616633028,167.89900795799986,167.89900795799986,167.89900795799986,168.11307658299847,نادرست! پاسخ صحیح گوینده۳ است,12,49,1,0.2098253330004809,None,168.11703224999656,168.12837308300004,170.12176529099816,170.12181375,170.12215549999746,[],[],[],[],[],[],[],False,,,,,,,,,,,,,,,,,,,,,,,,,,,,,,,,,,,,,358248,001,2024-08-04_14h51.22.104,5-34 ready-monolingual persian speaker,2024.1.5,None,2024-08-04 14h51.26.586555 +0900,
Images/Speaker1.jpg,Images/Speaker2.jpg,Images/Speaker3.jpg,Images/Speaker4.jpg,Audio/Speaker2_Per/P2-16-Per.wav,Speaker2,گوینده۲,,,,,,,,0,0,0,68,0,49,49,35,,,,,170.1483353329968,,,,,,,,,,,,,,,,,,,,,,,,,,,,,,,,,,,,,,,,,,,,,,,,,,,,,,,,,,,,,,,,,,170.1235199579969,170.1483353329968,170.1483353329968,170.1483353329968,170.1483353329968,170.15493424933135,170.1483353329968,170.1483353329968,170.1483353329968,170.41332458299803,نادرست! پاسخ صحیح گوینده۲ است,12,50,1,0.2581220840002061,None,170.41755674999877,170.42830766599945,172.41982566599836,172.41983579099906,172.41994133299886,[],[],[],[],[],[],[],False,,,,,,,,,,,,,,,,,,,,,,,,,,,,,,,,,,,,,358248,001,2024-08-04_14h51.22.104,5-34 ready-monolingual persian speaker,2024.1.5,None,2024-08-04 14h51.26.586555 +0900,
Images/Speaker1.jpg,Images/Speaker2.jpg,Images/Speaker3.jpg,Images/Speaker4.jpg,Audio/Speaker2_Per/P2-8-Per.wav,Speaker2,گوینده۲,,,,,,,,0,0,0,68,0,50,50,27,,,,,172.44302062499992,,,,,,,,,,,,,,,,,,,,,,,,,,,,,,,,,,,,,,,,,,,,,,,,,,,,,,,,,,,,,,,,,,172.42032641599872,172.44302062499992,172.44302062499992,172.44302062499992,172.44302062499992,172.43645762466647,172.44302062499992,172.44302062499992,172.44302062499992,172.6975798329986,نادرست! پاسخ صحیح گوینده۲ است,12,51,1,0.24660791700080154,None,172.70136512499812,172.71231491599974,174.70472845799668,174.70476920799774,174.70517437499802,[],[],[],[],[],[],[],False,,,,,,,,,,,,,,,,,,,,,,,,,,,,,,,,,,,,,358248,001,2024-08-04_14h51.22.104,5-34 ready-monolingual persian speaker,2024.1.5,None,2024-08-04 14h51.26.586555 +0900,
Images/Speaker1.jpg,Images/Speaker2.jpg,Images/Speaker3.jpg,Images/Speaker4.jpg,Audio/Speaker2_Per/P2-14-Per.wav,Speaker2,گوینده۲,,,,,,,,0,0,0,68,0,51,51,33,,,,,174.73247754099793,,,,,,,,,,,,,,,,,,,,,,,,,,,,,,,,,,,,,,,,,,,,,,,,,,,,,,,,,,,,,,,,,,174.70645095799773,174.73247754099793,174.73247754099793,174.73247754099793,174.73247754099793,174.73787083333133,174.73247754099793,174.73247754099793,174.73247754099793,174.92945224999858,نادرست! پاسخ صحیح گوینده۲ است,12,52,1,0.1947892080024758,None,174.9335640829995,174.94476383299843,176.9299974159985,176.930007166,176.93012395799815,[],[],[],[],[],[],[],False,176.95453866599928,,,,,,,,,,,,,,,,,,,,,,,,,,,,,,,,,,,,358248,001,2024-08-04_14h51.22.104,5-34 ready-monolingual persian speaker,2024.1.5,None,2024-08-04 14h51.26.586555 +0900,
Images/Speaker1.jpg,Images/Speaker2.jpg,Images/Speaker3.jpg,Images/Speaker4.jpg,Audio/Speaker4_Per/P4-11-Per.wav,Speaker4,گوینده۴,,,,,,,,0,0,0,68,0,52,52,70,,,,,176.95453866599928,,,,,,,,,,,,,,,,,,,,,,,,,,,,,,,,,,,,,,,,,,,,,,,,,,,,,,,,,,,,,,,,,,176.93058079099865,176.95453866599928,176.95453866599928,176.95453866599928,176.95453866599928,176.96309891633115,176.95453866599928,176.95453866599928,176.95453866599928,177.22501108299912,نادرست! پاسخ صحیح گوینده۴ است,12,53,1,0.2679864579986315,None,177.22887491599977,177.23988112499865,179.22326149999935,179.22327137499815,179.22340754099787,[],[],[],[],[],[],[],False,179.246482999999,,,,,,,,,,,,,,,,,,,,,,,,,,,,,,,,,,,,358248,001,2024-08-04_14h51.22.104,5-34 ready-monolingual persian speaker,2024.1.5,None,2024-08-04 14h51.26.586555 +0900,
Images/Speaker1.jpg,Images/Speaker2.jpg,Images/Speaker3.jpg,Images/Speaker4.jpg,Audio/Speaker4_Per/P4-17-Per.wav,Speaker4,گوینده۴,,,,,,,,0,0,0,68,0,53,53,76,,,,,179.246482999999,,,,,,,,,,,,,,,,,,,,,,,,,,,,,,,,,,,,,,,,,,,,,,,,,,,,,,,,,,,,,,,,,,179.22384925000006,179.246482999999,179.246482999999,179.246482999999,179.246482999999,179.23972308266482,179.246482999999,179.246482999999,179.246482999999,179.37029937499756,نادرست! پاسخ صحیح گوینده۴ است,12,54,1,0.11150920799991582,None,179.3745191249982,179.38320399999793,181.37346016599986,181.3734716250001,181.37358416599818,[],[],[],[],[],[],[],False,181.39717133299928,,,,,,,,,,,,,,,,,,,,,,,,,,,,,,,,,,,,358248,001,2024-08-04_14h51.22.104,5-34 ready-monolingual persian speaker,2024.1.5,None,2024-08-04 14h51.26.586555 +0900,
Images/Speaker1.jpg,Images/Speaker2.jpg,Images/Speaker3.jpg,Images/Speaker4.jpg,Audio/Speaker3_Per/P3-19-Per.wav,Speaker3,گوینده۳,,,,,,,,0,0,0,68,0,54,54,58,,,,,181.39717133299928,,,,,,,,,,,,,,,,,,,,,,,,,,,,,,,,,,,,,,,,,,,,,,,,,,,,,,,,,,,,,,,,,,181.37397979099842,181.39717133299928,181.39717133299928,181.39717133299928,181.39717133299928,181.4065446243299,181.39717133299928,181.39717133299928,181.39717133299928,181.66210187499746,نادرست! پاسخ صحیح گوینده۳ است,12,55,1,0.2584452919982141,None,181.6660807499975,181.67637379099688,183.6603439999999,183.6603887909987,183.66097249999802,[],[],[],[],[],[],[],False,183.68539479099854,,,,,,,,,,,,,,,,,,,,,,,,,,,,,,,,,,,,358248,001,2024-08-04_14h51.22.104,5-34 ready-monolingual persian speaker,2024.1.5,None,2024-08-04 14h51.26.586555 +0900,
Images/Speaker1.jpg,Images/Speaker2.jpg,Images/Speaker3.jpg,Images/Speaker4.jpg,Audio/Speaker1_Per/P1-13-Per.wav,Speaker1,گوینده ۱,,,,,,,,0,0,0,68,0,55,55,12,,,,,183.68539479099854,,,,,,,,,,,,,,,,,,,,,,,,,,,,,,,,,,,,,,,,,,,,,,,,,,,,,,,,,,,,,,,,,,183.66221374999805,183.68539479099854,183.68539479099854,183.68539479099854,183.68539479099854,183.69262008333004,183.68539479099854,183.68539479099854,183.68539479099854,183.8954957499991,صحیح است,13,56,1,0.2014110409982095,None,183.899531957999,183.90774349999992,185.89477762499882,185.8947898749975,185.89490162499715,[],[],[],[],[],[],[],False,185.91867187499884,,,,,,,,,,,,,,,,,,,,,,,,,,,,,,,,,,,,358248,001,2024-08-04_14h51.22.104,5-34 ready-monolingual persian speaker,2024.1.5,None,2024-08-04 14h51.26.586555 +0900,
Images/Speaker1.jpg,Images/Speaker2.jpg,Images/Speaker3.jpg,Images/Speaker4.jpg,Audio/Speaker1_Per/P1-12-Per.wav,Speaker1,گوینده ۱,,,,,,,,0,0,0,68,0,56,56,11,,,,,185.91867187499884,,,,,,,,,,,,,,,,,,,,,,,,,,,,,,,,,,,,,,,,,,,,,,,,,,,,,,,,,,,,,,,,,,185.89530062499762,185.91867187499884,185.91867187499884,185.91867187499884,185.91867187499884,185.92783666633164,185.91867187499884,185.91867187499884,185.91867187499884,186.11647445799827,صحیح است,14,57,1,0.19602749999830849,None,186.1203879579989,186.13141608299702,188.1197543749986,188.11976399999912,188.1198839159988,[],[],[],[],[],[],[],False,188.14365354099937,,,,,,,,,,,,,,,,,,,,,,,,,,,,,,,,,,,,358248,001,2024-08-04_14h51.22.104,5-34 ready-monolingual persian speaker,2024.1.5,None,2024-08-04 14h51.26.586555 +0900,
Images/Speaker1.jpg,Images/Speaker2.jpg,Images/Speaker3.jpg,Images/Speaker4.jpg,Audio/Speaker2_Per/P2-15-Per.wav,Speaker2,گوینده۲,,,,,,,,0,0,0,68,0,57,57,34,,,,,188.14365354099937,,,,,,,,,,,,,,,,,,,,,,,,,,,,,,,,,,,,,,,,,,,,,,,,,,,,,,,,,,,,,,,,,,188.12031808299798,188.14365354099937,188.14365354099937,188.14365354099937,188.14365354099937,188.15287249933004,188.14365354099937,188.14365354099937,188.14365354099937,188.38586229099747,نادرست! پاسخ صحیح گوینده۲ است,14,58,1,0.23757183400084614,None,188.38984912499654,188.40103991599972,190.39462945799824,190.39465420799752,190.39496541599874,[],[],[],[],[],[],[],False,,,,,,,,,,,,,,,,,,,,,,,,,,,,,,,,,,,,,358248,001,2024-08-04_14h51.22.104,5-34 ready-monolingual persian speaker,2024.1.5,None,2024-08-04 14h51.26.586555 +0900,
Images/Speaker1.jpg,Images/Speaker2.jpg,Images/Speaker3.jpg,Images/Speaker4.jpg,Audio/Speaker4_Per/P4-2-Per.wav,Speaker4,گوینده۴,,,,,,,,0,0,0,68,0,58,58,61,,,,,190.4222074999998,,,,,,,,,,,,,,,,,,,,,,,,,,,,,,,,,,,,,,,,,,,,,,,,,,,,,,,,,,,,,,,,,,190.3963305829966,190.4222074999998,190.4222074999998,190.4222074999998,190.4222074999998,190.42780966633342,190.4222074999998,190.4222074999998,190.4222074999998,190.65848066599938,نادرست! پاسخ صحیح گوینده۴ است,14,59,1,0.2310352500026056,None,190.6623743329983,190.67344220799714,192.65724837499874,192.65725783299786,192.65735249999852,[],[],[],[],[],[],[],False,192.68000687499807,,,,,,,,,,,,,,,,,,,,,,,,,,,,,,,,,,,,358248,001,2024-08-04_14h51.22.104,5-34 ready-monolingual persian speaker,2024.1.5,None,2024-08-04 14h51.26.586555 +0900,
Images/Speaker1.jpg,Images/Speaker2.jpg,Images/Speaker3.jpg,Images/Speaker4.jpg,Audio/Speaker1_Per/P1-19-Per.wav,Speaker1,گوینده ۱,,,,,,,,0,0,0,68,0,59,59,18,,,,,192.68000687499807,,,,,,,,,,,,,,,,,,,,,,,,,,,,,,,,,,,,,,,,,,,,,,,,,,,,,,,,,,,,,,,,,,192.65775699999722,192.68000687499807,192.68000687499807,192.68000687499807,192.68000687499807,192.67364379166636,192.68000687499807,192.68000687499807,192.68000687499807,193.42489387499882,صحیح است,15,60,1,0.73987599999964,None,193.42896254099833,193.4397883749989,195.43046545799734,195.43050595800014,195.43085524999697,[],[],[],[],[],[],[],False,,,,,,,,,,,,,,,,,,,,,,,,,,,,,,,,,,,,,358248,001,2024-08-04_14h51.22.104,5-34 ready-monolingual persian speaker,2024.1.5,None,2024-08-04 14h51.26.586555 +0900,
Images/Speaker1.jpg,Images/Speaker2.jpg,Images/Speaker3.jpg,Images/Speaker4.jpg,Audio/Speaker4_Per/P4-6-Per.wav,Speaker4,گوینده۴,,,,,,,,0,0,0,68,0,60,60,65,,,,,195.4567131249969,,,,,,,,,,,,,,,,,,,,,,,,,,,,,,,,,,,,,,,,,,,,,,,,,,,,,,,,,,,,,,,,,,195.43229083299957,195.4567131249969,195.4567131249969,195.4567131249969,195.4567131249969,195.46362129133246,195.4567131249969,195.4567131249969,195.4567131249969,195.67020695799874,نادرست! پاسخ صحیح گوینده۴ است,15,61,1,0.20805749999999534,None,195.67429366599754,195.68552599999748,197.6778171249971,197.67782679099764,197.67792604099668,[],[],[],[],[],[],[],False,,,,,,,,,,,,,,,,,,,,,,,,,,,,,,,,,,,,,358248,001,2024-08-04_14h51.22.104,5-34 ready-monolingual persian speaker,2024.1.5,None,2024-08-04 14h51.26.586555 +0900,
Images/Speaker1.jpg,Images/Speaker2.jpg,Images/Speaker3.jpg,Images/Speaker4.jpg,Audio/Speaker2_Per/P2-11-Per.wav,Speaker2,گوینده۲,,,,,,,,0,0,0,68,0,61,61,30,,,,,197.7017093329996,,,,,,,,,,,,,,,,,,,,,,,,,,,,,,,,,,,,,,,,,,,,,,,,,,,,,,,,,,,,,,,,,,197.67834287499863,197.7017093329996,197.7017093329996,197.7017093329996,197.7017093329996,197.6944414576649,197.7017093329996,197.7017093329996,197.7017093329996,198.16981066599692,نادرست! پاسخ صحیح گوینده۲ است,15,62,1,0.45632566600033897,None,198.17369520799912,198.1822715829985,200.1716352079966,200.17164695799875,200.17175279099683,[],[],[],[],[],[],[],False,200.1947968329987,,,,,,,,,,,,,,,,,,,,,,,,,,,,,,,,,,,,358248,001,2024-08-04_14h51.22.104,5-34 ready-monolingual persian speaker,2024.1.5,None,2024-08-04 14h51.26.586555 +0900,
Images/Speaker1.jpg,Images/Speaker2.jpg,Images/Speaker3.jpg,Images/Speaker4.jpg,Audio/Speaker3_Per/P3-3-Per.wav,Speaker3,گوینده۳,,,,,,,,0,0,0,68,0,62,62,42,,,,,200.1947968329987,,,,,,,,,,,,,,,,,,,,,,,,,,,,,,,,,,,,,,,,,,,,,,,,,,,,,,,,,,,,,,,,,,200.1721602079997,200.1947968329987,200.1947968329987,200.1947968329987,200.1947968329987,200.1880226666656,200.1947968329987,200.1947968329987,200.1947968329987,200.63406045800002,نادرست! پاسخ صحیح گوینده۳ است,15,63,1,0.4322847500006901,None,200.638354540999,200.64970866599833,202.63373941600003,202.6337503750001,202.633878790999,[],[],[],[],[],[],[],False,202.65719595799965,,,,,,,,,,,,,,,,,,,,,,,,,,,,,,,,,,,,358248,001,2024-08-04_14h51.22.104,5-34 ready-monolingual persian speaker,2024.1.5,None,2024-08-04 14h51.26.586555 +0900,
Images/Speaker1.jpg,Images/Speaker2.jpg,Images/Speaker3.jpg,Images/Speaker4.jpg,Audio/Speaker3_Per/P3-6-Per.wav,Speaker3,گوینده۳,,,,,,,,0,0,0,68,0,63,63,45,,,,,202.65719595799965,,,,,,,,,,,,,,,,,,,,,,,,,,,,,,,,,,,,,,,,,,,,,,,,,,,,,,,,,,,,,,,,,,202.63430125000014,202.65719595799965,202.65719595799965,202.65719595799965,202.65719595799965,202.66682566633295,202.65719595799965,202.65719595799965,202.65719595799965,202.87092595799913,نادرست! پاسخ صحیح گوینده۳ است,15,64,1,0.21041820799655397,None,202.87497249999797,202.88635187499676,204.87030441599927,204.8703169579967,204.87043166599688,[],[],[],[],[],[],[],False,204.89406604099713,,,,,,,,,,,,,,,,,,,,,,,,,,,,,,,,,,,,358248,001,2024-08-04_14h51.22.104,5-34 ready-monolingual persian speaker,2024.1.5,None,2024-08-04 14h51.26.586555 +0900,
Images/Speaker1.jpg,Images/Speaker2.jpg,Images/Speaker3.jpg,Images/Speaker4.jpg,Audio/Speaker1_Per/P1-1-Per.wav,Speaker1,گوینده ۱,,,,,,,,0,0,0,68,0,64,64,0,,,,,204.89406604099713,,,,,,,,,,,,,,,,,,,,,,,,,,,,,,,,,,,,,,,,,,,,,,,,,,,,,,,,,,,,,,,,,,204.87087837499712,204.89406604099713,204.89406604099713,204.89406604099713,204.89406604099713,204.90344804133252,204.89406604099713,204.89406604099713,204.89406604099713,205.4703276659966,صحیح است,16,65,1,0.5728912919985305,None,205.4743513329995,205.4852009999995,207.47162929099795,207.47163916599675,207.47174858299695,[],[],[],[],[],[],[],False,207.49535124999966,,,,,,,,,,,,,,,,,,,,,,,,,,,,,,,,,,,,358248,001,2024-08-04_14h51.22.104,5-34 ready-monolingual persian speaker,2024.1.5,None,2024-08-04 14h51.26.586555 +0900,
Images/Speaker1.jpg,Images/Speaker2.jpg,Images/Speaker3.jpg,Images/Speaker4.jpg,Audio/Speaker1_Per/P1-6-Per.wav,Speaker1,گوینده ۱,,,,,,,,0,0,0,68,0,65,65,5,,,,,207.49535124999966,,,,,,,,,,,,,,,,,,,,,,,,,,,,,,,,,,,,,,,,,,,,,,,,,,,,,,,,,,,,,,,,,,207.47215766599766,207.49535124999966,207.49535124999966,207.49535124999966,207.49535124999966,207.50468199933,207.49535124999966,207.49535124999966,207.49535124999966,207.87875820799673,صحیح است,17,66,1,0.38065841699790326,None,207.88247591599793,207.89323974999934,209.88890012499905,209.8889121659995,209.88900937499784,[],[],[],[],[],[],[],False,,,,,,,,,,,,,,,,,,,,,,,,,,,,,,,,,,,,,358248,001,2024-08-04_14h51.22.104,5-34 ready-monolingual persian speaker,2024.1.5,None,2024-08-04 14h51.26.586555 +0900,
Images/Speaker1.jpg,Images/Speaker2.jpg,Images/Speaker3.jpg,Images/Speaker4.jpg,Audio/Speaker1_Per/P1-5-Per.wav,Speaker1,گوینده ۱,,,,,,,,0,0,0,68,0,66,66,4,,,,,209.91212541599816,,,,,,,,,,,,,,,,,,,,,,,,,,,,,,,,,,,,,,,,,,,,,,,,,,,,,,,,,,,,,,,,,,209.88941283299937,209.91212541599816,209.91212541599816,209.91212541599816,209.91212541599816,209.90553216666402,209.91212541599816,209.91212541599816,209.91212541599816,210.6430723329977,صحیح است,18,67,1,0.7293698329995095,None,210.64718245799668,210.65757974999724,212.64163245799864,212.6416553329982,212.6417636249971,[],[],[],[],[],[],[],False,212.66466233299798,,,,,,,,,,,,,,,,,,,,,,,,,,,,,,,,,,,,358248,001,2024-08-04_14h51.22.104,5-34 ready-monolingual persian speaker,2024.1.5,None,2024-08-04 14h51.26.586555 +0900,
Images/Speaker1.jpg,Images/Speaker2.jpg,Images/Speaker3.jpg,Images/Speaker4.jpg,Audio/Speaker3_Per/P3-1-Per.wav,Speaker3,گوینده۳,,,,,,,,0,0,0,68,0,67,67,40,,,,,212.66466233299798,,,,,,,,,,,,,,,,,,,,,,,,,,,,,,,,,,,,,,,,,,,,,,,,,,,,,,,,,,,,,,,,,,212.6421656249986,212.66466233299798,212.66466233299798,212.66466233299798,212.66466233299798,212.65804824966497,212.66466233299798,212.66466233299798,212.66466233299798,212.9589094160001,نادرست! پاسخ صحیح گوینده۳ است,18,68,1,0.29202783400251064,None,212.96312995799963,212.9750347909976,214.96494162499948,214.96497808299682,214.9653194579987,[],[],[],[],[],[],[],False,,,,,,,,,,,,,,,,,,,,,,,,,,,,,,,,,,,,,358248,001,2024-08-04_14h51.22.104,5-34 ready-monolingual persian speaker,2024.1.5,None,2024-08-04 14h51.26.586555 +0900,
Images/Speaker1.jpg,Images/Speaker2.jpg,Images/Speaker3.jpg,Images/Speaker4.jpg,Audio/Speaker4_Per/P4-15-Per.wav,Speaker4,گوینده۴,,,,,,,,0,0,0,68,0,68,68,74,,,,,214.9927523749975,,,,,,,,,,,,,,,,,,,,,,,,,,,,,,,,,,,,,,,,,,,,,,,,,,,,,,,,,,,,,,,,,,214.96671933299876,214.9927523749975,214.9927523749975,214.9927523749975,214.9927523749975,214.99812458333014,214.9927523749975,214.9927523749975,214.9927523749975,215.2869455,نادرست! پاسخ صحیح گوینده۴ است,18,69,1,0.29324970800007577,None,215.291257375,215.30265695799972,217.29718024999966,217.2972254999986,217.2975876249984,[],[],[],[],[],[],[],False,,,,,,,,,,,,,,,,,,,,,,,,,,,,,,,,,,,,,358248,001,2024-08-04_14h51.22.104,5-34 ready-monolingual persian speaker,2024.1.5,None,2024-08-04 14h51.26.586555 +0900,
Images/Speaker1.jpg,Images/Speaker2.jpg,Images/Speaker3.jpg,Images/Speaker4.jpg,Audio/Speaker2_Per/P2-7-Per.wav,Speaker2,گوینده۲,,,,,,,,0,0,0,68,0,69,69,26,,,,,217.32227324999985,,,,,,,,,,,,,,,,,,,,,,,,,,,,,,,,,,,,,,,,,,,,,,,,,,,,,,,,,,,,,,,,,,217.2990792499986,217.32227324999985,217.32227324999985,217.32227324999985,217.32227324999985,217.33031366633128,217.32227324999985,217.32227324999985,217.32227324999985,217.4192631659971,نادرست! پاسخ صحیح گوینده۲ است,18,70,1,0.09510012499958975,None,217.42303899999752,217.434496124999,219.4189051659996,219.41894949999914,219.41943849999734,[],[],[],[],[],[],[],False,219.4439793749989,,,,,,,,,,,,,,,,,,,,,,,,,,,,,,,,,,,,358248,001,2024-08-04_14h51.22.104,5-34 ready-monolingual persian speaker,2024.1.5,None,2024-08-04 14h51.26.586555 +0900,
Images/Speaker1.jpg,Images/Speaker2.jpg,Images/Speaker3.jpg,Images/Speaker4.jpg,Audio/Speaker2_Per/P2-18-Per.wav,Speaker2,گوینده۲,,,,,,,,0,0,0,68,0,70,70,37,,,,,219.4439793749989,,,,,,,,,,,,,,,,,,,,,,,,,,,,,,,,,,,,,,,,,,,,,,,,,,,,,,,,,,,,,,,,,,219.42069224999796,219.4439793749989,219.4439793749989,219.4439793749989,219.4439793749989,219.45144941633095,219.4439793749989,219.4439793749989,219.4439793749989,219.68576616599967,نادرست! پاسخ صحیح گوینده۲ است,18,71,1,0.23376849999840488,None,219.68969174999802,219.70088499999838,221.6884094579982,221.68842499999664,221.68853916599983,[],[],[],[],[],[],[],False,221.71087824999995,,,,,,,,,,,,,,,,,,,,,,,,,,,,,,,,,,,,358248,001,2024-08-04_14h51.22.104,5-34 ready-monolingual persian speaker,2024.1.5,None,2024-08-04 14h51.26.586555 +0900,
Images/Speaker1.jpg,Images/Speaker2.jpg,Images/Speaker3.jpg,Images/Speaker4.jpg,Audio/Speaker4_Per/P4-20-Per.wav,Speaker4,گوینده۴,,,,,,,,0,0,0,68,0,71,71,79,,,,,221.71087824999995,,,,,,,,,,,,,,,,,,,,,,,,,,,,,,,,,,,,,,,,,,,,,,,,,,,,,,,,,,,,,,,,,,221.68896708299872,221.71087824999995,221.71087824999995,221.71087824999995,221.71087824999995,221.70481474966462,221.71087824999995,221.71087824999995,221.71087824999995,221.96994508299758,نادرست! پاسخ صحیح گوینده۴ است,18,72,1,0.25305850000222563,None,221.97408370799894,221.9852784579998,223.97444508299668,223.97447045799709,223.97490429099707,[],[],[],[],[],[],[],False,223.99988349999694,,,,,,,,,,,,,,,,,,,,,,,,,,,,,,,,,,,,358248,001,2024-08-04_14h51.22.104,5-34 ready-monolingual persian speaker,2024.1.5,None,2024-08-04 14h51.26.586555 +0900,
Images/Speaker1.jpg,Images/Speaker2.jpg,Images/Speaker3.jpg,Images/Speaker4.jpg,Audio/Speaker2_Per/P2-6-Per.wav,Speaker2,گوینده۲,,,,,,,,0,0,0,68,0,72,72,25,,,,,223.99988349999694,,,,,,,,,,,,,,,,,,,,,,,,,,,,,,,,,,,,,,,,,,,,,,,,,,,,,,,,,,,,,,,,,,223.97632354099915,223.99988349999694,223.99988349999694,223.99988349999694,223.99988349999694,224.0069942913329,223.99988349999694,223.99988349999694,223.99988349999694,224.2020116249987,نادرست! پاسخ صحیح گوینده۲ است,18,73,1,0.19733754199842224,None,224.20605016599802,224.21769324999696,226.20421679099672,226.20424404099685,226.20459004099757,[],[],[],[],[],[],[],False,226.2308274579991,,,,,,,,,,,,,,,,,,,,,,,,,,,,,,,,,,,,358248,001,2024-08-04_14h51.22.104,5-34 ready-monolingual persian speaker,2024.1.5,None,2024-08-04 14h51.26.586555 +0900,
Images/Speaker1.jpg,Images/Speaker2.jpg,Images/Speaker3.jpg,Images/Speaker4.jpg,Audio/Speaker1_Per/P1-16-Per.wav,Speaker1,گوینده ۱,,,,,,,,0,0,0,68,0,73,73,15,,,,,226.2308274579991,,,,,,,,,,,,,,,,,,,,,,,,,,,,,,,,,,,,,,,,,,,,,,,,,,,,,,,,,,,,,,,,,,226.2059368329974,226.2308274579991,226.2308274579991,226.2308274579991,226.2308274579991,226.2366926663313,226.2308274579991,226.2308274579991,226.2308274579991,226.36729774999912,صحیح است,19,74,1,0.13267933299721335,None,226.37129858299886,226.38209399999687,228.3684070829986,228.36842695799714,228.36853045799944,[],[],[],[],[],[],[],False,228.39325166599883,,,,,,,,,,,,,,,,,,,,,,,,,,,,,,,,,,,,358248,001,2024-08-04_14h51.22.104,5-34 ready-monolingual persian speaker,2024.1.5,None,2024-08-04 14h51.26.586555 +0900,
Images/Speaker1.jpg,Images/Speaker2.jpg,Images/Speaker3.jpg,Images/Speaker4.jpg,Audio/Speaker3_Per/P3-14-Per.wav,Speaker3,گوینده۳,,,,,,,,0,0,0,68,0,74,74,53,,,,,228.39325166599883,,,,,,,,,,,,,,,,,,,,,,,,,,,,,,,,,,,,,,,,,,,,,,,,,,,,,,,,,,,,,,,,,,228.36897870799658,228.39325166599883,228.39325166599883,228.39325166599883,228.39325166599883,228.4015209993309,228.39325166599883,228.39325166599883,228.39325166599883,228.6120690409989,نادرست! پاسخ صحیح گوینده۳ است,19,75,1,0.2165034169993305,None,228.61599629099874,228.6271761249991,230.62260012499974,230.6226328749981,230.6229737499998,[],[],[],[],[],[],[],False,,,,,,,,,,,,,,,,,,,,,,,,,,,,,,,,,,,,,358248,001,2024-08-04_14h51.22.104,5-34 ready-monolingual persian speaker,2024.1.5,None,2024-08-04 14h51.26.586555 +0900,
Images/Speaker1.jpg,Images/Speaker2.jpg,Images/Speaker3.jpg,Images/Speaker4.jpg,Audio/Speaker3_Per/P3-10-Per.wav,Speaker3,گوینده۳,,,,,,,,0,0,0,68,0,75,75,49,,,,,230.64975279099963,,,,,,,,,,,,,,,,,,,,,,,,,,,,,,,,,,,,,,,,,,,,,,,,,,,,,,,,,,,,,,,,,,230.62441512499936,230.64975279099963,230.64975279099963,230.64975279099963,230.64975279099963,230.6557427493322,230.64975279099963,230.64975279099963,230.64975279099963,230.83347524999772,نادرست! پاسخ صحیح گوینده۳ است,19,76,1,0.18277833400134114,None,230.83725649999906,230.8483224579977,232.83144045799781,232.83145358299953,232.83156195799893,[],[],[],[],[],[],[],False,232.8558522079984,,,,,,,,,,,,,,,,,,,,,,,,,,,,,,,,,,,,358248,001,2024-08-04_14h51.22.104,5-34 ready-monolingual persian speaker,2024.1.5,None,2024-08-04 14h51.26.586555 +0900,
Images/Speaker1.jpg,Images/Speaker2.jpg,Images/Speaker3.jpg,Images/Speaker4.jpg,Audio/Speaker3_Per/P3-8-Per.wav,Speaker3,گوینده۳,,,,,,,,0,0,0,68,0,76,76,47,,,,,232.8558522079984,,,,,,,,,,,,,,,,,,,,,,,,,,,,,,,,,,,,,,,,,,,,,,,,,,,,,,,,,,,,,,,,,,232.83198749999792,232.8558522079984,232.8558522079984,232.8558522079984,232.8558522079984,232.86455212433117,232.8558522079984,232.8558522079984,232.8558522079984,232.987324791,نادرست! پاسخ صحیح گوینده۳ است,19,77,1,0.12407775000247057,None,232.99135574999673,233.00057629099683,234.99581195799692,234.99582199999713,234.99591541599875,[],[],[],[],[],[],[],False,,,,,,,,,,,,,,,,,,,,,,,,,,,,,,,,,,,,,358248,001,2024-08-04_14h51.22.104,5-34 ready-monolingual persian speaker,2024.1.5,None,2024-08-04 14h51.26.586555 +0900,
Images/Speaker1.jpg,Images/Speaker2.jpg,Images/Speaker3.jpg,Images/Speaker4.jpg,Audio/Speaker1_Per/P1-17-Per.wav,Speaker1,گوینده ۱,,,,,,,,0,0,0,68,0,77,77,16,,,,,235.01764649999677,,,,,,,,,,,,,,,,,,,,,,,,,,,,,,,,,,,,,,,,,,,,,,,,,,,,,,,,,,,,,,,,,,234.99632766599825,235.01764649999677,235.01764649999677,235.01764649999677,235.01764649999677,235.0124479576664,235.01764649999677,235.01764649999677,235.01764649999677,235.30007641599877,صحیح است,20,78,1,0.28138620800018543,None,235.30383341599736,235.31477829099822,237.29881870799727,237.29885999999897,237.2993311249993,[],[],[],[],[],[],[],False,237.32393754099758,,,,,,,,,,,,,,,,,,,,,,,,,,,,,,,,,,,,358248,001,2024-08-04_14h51.22.104,5-34 ready-monolingual persian speaker,2024.1.5,None,2024-08-04 14h51.26.586555 +0900,
Images/Speaker1.jpg,Images/Speaker2.jpg,Images/Speaker3.jpg,Images/Speaker4.jpg,Audio/Speaker4_Per/P4-16-Per.wav,Speaker4,گوینده۴,,,,,,,,0,0,0,68,0,78,78,75,,,,,237.32393754099758,,,,,,,,,,,,,,,,,,,,,,,,,,,,,,,,,,,,,,,,,,,,,,,,,,,,,,,,,,,,,,,,,,237.30055558299864,237.32393754099758,237.32393754099758,237.32393754099758,237.32393754099758,237.33131458333133,237.32393754099758,237.32393754099758,237.32393754099758,237.5587919999998,نادرست! پاسخ صحیح گوینده۴ است,20,79,1,0.23231237499931012,None,237.5629112079987,237.5744775409985,239.5639116659986,239.56393574999674,239.56425354099702,[],[],[],[],[],[],[],False,,,,,,,,,,,,,,,,,,,,,,,,,,,,,,,,,,,,,358248,001,2024-08-04_14h51.22.104,5-34 ready-monolingual persian speaker,2024.1.5,None,2024-08-04 14h51.26.586555 +0900,
Images/Speaker1.jpg,Images/Speaker2.jpg,Images/Speaker3.jpg,Images/Speaker4.jpg,Audio/Speaker2_Per/P2-2-Per.wav,Speaker2,گوینده۲,,,,,,,,0,0,0,68,0,79,79,21,,,,,239.59061624999958,,,,,,,,,,,,,,,,,,,,,,,,,,,,,,,,,,,,,,,,,,,,,,,,,,,,,,,,,,,,,,,,,,239.56554849999884,239.59061624999958,239.59061624999958,239.59061624999958,239.59061624999958,239.59708191633086,239.59061624999958,239.59061624999958,239.59061624999958,240.42886666599952,نادرست! پاسخ صحیح گوینده۲ است,20,80,1,0.8312015420015086,None,240.43262474999938,240.44415833299718,242.4284704999991,242.42847929099662,242.4285839999975,[],[],[],[],[],[],[],False,242.47370266599683,,,,,,,,,,,,,,,,,,,,,,,,,,,,,,,,,,,,358248,001,2024-08-04_14h51.22.104,5-34 ready-monolingual persian speaker,2024.1.5,None,2024-08-04 14h51.26.586555 +0900,
Images/Speaker1.jpg,Images/Speaker2.jpg,Images/Speaker3.jpg,Images/Speaker4.jpg,Audio/Speaker4_Per/P4-9-Per.wav,Speaker4,گوینده۴,,,,,,,,0,0,0,68,,,,,,,,,,,,,,,,,,,,,,,,,,,,,,,,,,,,,,,,,,,,,,,,,,,,,,,,,,,,,,,,,,,,,,,,,,,,,,,,,,,,,,,,,,,,,,,,,,,,,,,,,,,,,242.42894899999737,0.25,False,242.4291692079969,,,,,,,,,,,,,,,,,,,,,,,,,,,,358248,001,2024-08-04_14h51.22.104,5-34 ready-monolingual persian speaker,2024.1.5,None,2024-08-04 14h51.26.586555 +0900,
Images/Speaker1.jpg,Images/Speaker2.jpg,Images/Speaker3.jpg,Images/Speaker4.jpg,Audio/Speaker3_Per/P3-18-Per.wav,Speaker3,گوینده۳,,,,,,,,0,1,1,72,0,0,0,57,,,,,242.47370266599683,,,,,,,,,,,,,,,,,,,,,,,,,,,,,,,,,,,,,,,,,,,,,,,,,,,,,,,,,,,,,,,,,,242.4506425829968,242.47370266599683,242.47370266599683,242.47370266599683,242.47370266599683,242.47816679099998,242.47370266599683,242.47370266599683,242.47370266599683,263.19472912499987,صحیح است,1,1,3,20.711101875000168,None,263.19511337499716,263.2058202499975,265.18898174999777,265.18899149999925,265.18912104099945,[],[],[],[],[],[],[],False,265.2126912909989,,,,,,,,,,,,,,,,,,,,,,,,,,,,,,,,,,,,358248,001,2024-08-04_14h51.22.104,5-34 ready-monolingual persian speaker,2024.1.5,None,2024-08-04 14h51.26.586555 +0900,
Images/Speaker1.jpg,Images/Speaker2.jpg,Images/Speaker3.jpg,Images/Speaker4.jpg,Audio/Speaker4_Per/P4-7-Per.wav,Speaker4,گوینده۴,,,,,,,,0,1,1,72,0,1,1,66,,,,,265.2126912909989,,,,,,,,,,,,,,,,,,,,,,,,,,,,,,,,,,,,,,,,,,,,,,,,,,,,,,,,,,,,,,,,,,265.1898864579998,265.2126912909989,265.2126912909989,265.2126912909989,265.2126912909989,265.2220963333316,265.2126912909989,265.2126912909989,265.2126912909989,267.7028914579969,نادرست! پاسخ صحیح گوینده۴ است,1,2,2,2.4839678749995073,None,267.70710791599777,267.71852124999714,269.70684299999994,269.70687799999723,269.70726404099696,[],[],[],[],[],[],[],False,269.7330650829972,,,,,,,,,,,,,,,,,,,,,,,,,,,,,,,,,,,,358248,001,2024-08-04_14h51.22.104,5-34 ready-monolingual persian speaker,2024.1.5,None,2024-08-04 14h51.26.586555 +0900,
Images/Speaker1.jpg,Images/Speaker2.jpg,Images/Speaker3.jpg,Images/Speaker4.jpg,Audio/Speaker4_Per/P4-20-Per.wav,Speaker4,گوینده۴,,,,,,,,0,1,1,72,0,2,2,79,,,,,269.7330650829972,,,,,,,,,,,,,,,,,,,,,,,,,,,,,,,,,,,,,,,,,,,,,,,,,,,,,,,,,,,,,,,,,,269.70874724999885,269.7330650829972,269.7330650829972,269.7330650829972,269.7330650829972,269.7393355413301,269.7330650829972,269.7330650829972,269.7330650829972,272.8249398329972,صحیح است,2,3,4,3.089432875000057,None,272.8251778329977,272.83555949999936,274.8253205000001,274.8253603749981,274.825912332999,[],[],[],[],[],[],[],False,274.85399824999695,,,,,,,,,,,,,,,,,,,,,,,,,,,,,,,,,,,,358248,001,2024-08-04_14h51.22.104,5-34 ready-monolingual persian speaker,2024.1.5,None,2024-08-04 14h51.26.586555 +0900,
Images/Speaker1.jpg,Images/Speaker2.jpg,Images/Speaker3.jpg,Images/Speaker4.jpg,Audio/Speaker3_Per/P3-11-Per.wav,Speaker3,گوینده۳,,,,,,,,0,1,1,72,0,3,3,50,,,,,274.85399824999695,,,,,,,,,,,,,,,,,,,,,,,,,,,,,,,,,,,,,,,,,,,,,,,,,,,,,,,,,,,,,,,,,,274.8274785829999,274.85399824999695,274.85399824999695,274.85399824999695,274.85399824999695,274.85771695833,274.85399824999695,274.85399824999695,274.85399824999695,276.06177899999966,صحیح است,3,4,3,1.2058175829988613,None,276.06594162499823,276.07686849999664,278.06184504099656,278.061886083,278.06239395800003,[],[],[],[],[],[],[],False,278.0900316249972,,,,,,,,,,,,,,,,,,,,,,,,,,,,,,,,,,,,358248,001,2024-08-04_14h51.22.104,5-34 ready-monolingual persian speaker,2024.1.5,None,2024-08-04 14h51.26.586555 +0900,
Images/Speaker1.jpg,Images/Speaker2.jpg,Images/Speaker3.jpg,Images/Speaker4.jpg,Audio/Speaker2_Per/P2-6-Per.wav,Speaker2,گوینده۲,,,,,,,,0,1,1,72,0,4,4,25,,,,,278.0900316249972,,,,,,,,,,,,,,,,,,,,,,,,,,,,,,,,,,,,,,,,,,,,,,,,,,,,,,,,,,,,,,,,,,278.0640116249997,278.0900316249972,278.0900316249972,278.0900316249972,278.0900316249972,278.09425604133185,278.0900316249972,278.0900316249972,278.0900316249972,279.0952368749968,صحیح است,4,5,2,0.9951897499995539,None,279.09907912499693,279.1097287499979,281.0955300409987,281.09553975000017,281.09565770799964,[],[],[],[],[],[],[],False,281.118413958,,,,,,,,,,,,,,,,,,,,,,,,,,,,,,,,,,,,358248,001,2024-08-04_14h51.22.104,5-34 ready-monolingual persian speaker,2024.1.5,None,2024-08-04 14h51.26.586555 +0900,
Images/Speaker1.jpg,Images/Speaker2.jpg,Images/Speaker3.jpg,Images/Speaker4.jpg,Audio/Speaker3_Per/P3-5-Per.wav,Speaker3,گوینده۳,,,,,,,,0,1,1,72,0,5,5,44,,,,,281.118413958,,,,,,,,,,,,,,,,,,,,,,,,,,,,,,,,,,,,,,,,,,,,,,,,,,,,,,,,,,,,,,,,,,281.0960574159981,281.118413958,281.118413958,281.118413958,281.118413958,281.11199449966466,281.118413958,281.118413958,281.118413958,282.8373800829977,صحیح است,5,6,3,1.711984207999194,None,282.841299249998,282.85182841599817,284.8464608329996,284.84649437499684,284.84687366599974,[],[],[],[],[],[],[],False,,,,,,,,,,,,,,,,,,,,,,,,,,,,,,,,,,,,,358248,001,2024-08-04_14h51.22.104,5-34 ready-monolingual persian speaker,2024.1.5,None,2024-08-04 14h51.26.586555 +0900,
Images/Speaker1.jpg,Images/Speaker2.jpg,Images/Speaker3.jpg,Images/Speaker4.jpg,Audio/Speaker4_Per/P4-1-Per.wav,Speaker4,گوینده۴,,,,,,,,0,1,1,72,0,6,6,60,,,,,284.87477945799765,,,,,,,,,,,,,,,,,,,,,,,,,,,,,,,,,,,,,,,,,,,,,,,,,,,,,,,,,,,,,,,,,,284.8482445829977,284.87477945799765,284.87477945799765,284.87477945799765,284.87477945799765,284.8795961243309,284.87477945799765,284.87477945799765,284.87477945799765,286.6781582079966,صحیح است,6,7,4,1.8008445410014247,None,286.68196654099665,286.69303054099873,288.68229841599896,288.68233129099826,288.68287087499994,[],[],[],[],[],[],[],False,288.70689458299967,,,,,,,,,,,,,,,,,,,,,,,,,,,,,,,,,,,,358248,001,2024-08-04_14h51.22.104,5-34 ready-monolingual persian speaker,2024.1.5,None,2024-08-04 14h51.26.586555 +0900,
Images/Speaker1.jpg,Images/Speaker2.jpg,Images/Speaker3.jpg,Images/Speaker4.jpg,Audio/Speaker3_Per/P3-4-Per.wav,Speaker3,گوینده۳,,,,,,,,0,1,1,72,0,7,7,43,,,,,288.70689458299967,,,,,,,,,,,,,,,,,,,,,,,,,,,,,,,,,,,,,,,,,,,,,,,,,,,,,,,,,,,,,,,,,,288.6839286249997,288.70689458299967,288.70689458299967,288.70689458299967,288.70689458299967,288.714714874332,288.70689458299967,288.70689458299967,288.70689458299967,290.6278598329991,صحیح است,7,8,3,1.9117830830000457,None,290.63159799999994,290.6424213749997,292.6320243329974,292.63205495799775,292.6326172079971,[],[],[],[],[],[],[],False,292.6581773329999,,,,,,,,,,,,,,,,,,,,,,,,,,,,,,,,,,,,358248,001,2024-08-04_14h51.22.104,5-34 ready-monolingual persian speaker,2024.1.5,None,2024-08-04 14h51.26.586555 +0900,
Images/Speaker1.jpg,Images/Speaker2.jpg,Images/Speaker3.jpg,Images/Speaker4.jpg,Audio/Speaker4_Per/P4-18-Per.wav,Speaker4,گوینده۴,,,,,,,,0,1,1,72,0,8,8,77,,,,,292.6581773329999,,,,,,,,,,,,,,,,,,,,,,,,,,,,,,,,,,,,,,,,,,,,,,,,,,,,,,,,,,,,,,,,,,292.6342497079968,292.6581773329999,292.6581773329999,292.6581773329999,292.6581773329999,292.6644389993312,292.6581773329999,292.6581773329999,292.6581773329999,294.0202157909989,صحیح است,8,9,4,1.360797540997737,None,294.02446733299803,294.03575466599796,296.0228991249969,296.0229342909988,296.02340574999835,[],[],[],[],[],[],[],False,296.0487644579989,,,,,,,,,,,,,,,,,,,,,,,,,,,,,,,,,,,,358248,001,2024-08-04_14h51.22.104,5-34 ready-monolingual persian speaker,2024.1.5,None,2024-08-04 14h51.26.586555 +0900,
Images/Speaker1.jpg,Images/Speaker2.jpg,Images/Speaker3.jpg,Images/Speaker4.jpg,Audio/Speaker2_Per/P2-18-Per.wav,Speaker2,گوینده۲,,,,,,,,0,1,1,72,0,9,9,37,,,,,296.0487644579989,,,,,,,,,,,,,,,,,,,,,,,,,,,,,,,,,,,,,,,,,,,,,,,,,,,,,,,,,,,,,,,,,,296.02515166599915,296.0487644579989,296.0487644579989,296.0487644579989,296.0487644579989,296.05535416633256,296.0487644579989,296.0487644579989,296.0487644579989,298.15346533299817,صحیح است,9,10,2,2.095563457998651,None,298.1573128329983,298.16818649999914,300.15088029099934,300.150888958,300.1509917079966,[],[],[],[],[],[],[],False,300.17428758299866,,,,,,,,,,,,,,,,,,,,,,,,,,,,,,,,,,,,358248,001,2024-08-04_14h51.22.104,5-34 ready-monolingual persian speaker,2024.1.5,None,2024-08-04 14h51.26.586555 +0900,
Images/Speaker1.jpg,Images/Speaker2.jpg,Images/Speaker3.jpg,Images/Speaker4.jpg,Audio/Speaker2_Per/P2-17-Per.wav,Speaker2,گوینده۲,,,,,,,,0,1,1,72,0,10,10,36,,,,,300.17428758299866,,,,,,,,,,,,,,,,,,,,,,,,,,,,,,,,,,,,,,,,,,,,,,,,,,,,,,,,,,,,,,,,,,300.15144216599947,300.17428758299866,300.17428758299866,300.17428758299866,300.17428758299866,300.16729195766334,300.17428758299866,300.17428758299866,300.17428758299866,301.33880970799873,صحیح است,10,11,2,1.1578478339979483,None,301.34393229099805,301.35572220799804,303.3399151659978,303.3399643749981,303.3404891659993,[],[],[],[],[],[],[],False,303.3648645409994,,,,,,,,,,,,,,,,,,,,,,,,,,,,,,,,,,,,358248,001,2024-08-04_14h51.22.104,5-34 ready-monolingual persian speaker,2024.1.5,None,2024-08-04 14h51.26.586555 +0900,
Images/Speaker1.jpg,Images/Speaker2.jpg,Images/Speaker3.jpg,Images/Speaker4.jpg,Audio/Speaker2_Per/P2-16-Per.wav,Speaker2,گوینده۲,,,,,,,,0,1,1,72,0,11,11,35,,,,,303.3648645409994,,,,,,,,,,,,,,,,,,,,,,,,,,,,,,,,,,,,,,,,,,,,,,,,,,,,,,,,,,,,,,,,,,303.34201437499723,303.3648645409994,303.3648645409994,303.3648645409994,303.3648645409994,303.3722834583318,303.3648645409994,303.3648645409994,303.3648645409994,304.6331633749978,صحیح است,11,12,2,1.2657556669983023,None,304.6373319999984,304.6482647499979,306.63321070799793,306.6332233329995,306.6333526249982,[],[],[],[],[],[],[],False,306.6582358329979,,,,,,,,,,,,,,,,,,,,,,,,,,,,,,,,,,,,358248,001,2024-08-04_14h51.22.104,5-34 ready-monolingual persian speaker,2024.1.5,None,2024-08-04 14h51.26.586555 +0900,
Images/Speaker1.jpg,Images/Speaker2.jpg,Images/Speaker3.jpg,Images/Speaker4.jpg,Audio/Speaker3_Per/P3-14-Per.wav,Speaker3,گوینده۳,,,,,,,,0,1,1,72,0,12,12,53,,,,,306.6582358329979,,,,,,,,,,,,,,,,,,,,,,,,,,,,,,,,,,,,,,,,,,,,,,,,,,,,,,,,,,,,,,,,,,306.6337751659994,306.6582358329979,306.6582358329979,306.6582358329979,306.6582358329979,306.6663571663307,306.6582358329979,306.6582358329979,306.6582358329979,309.20878516599987,صحیح است,12,13,3,2.5494900420017075,None,309.21265737499925,309.2237209999985,311.2123265409973,311.21233570799814,311.21243966600014,[],[],[],[],[],[],[],False,311.23542149999776,,,,,,,,,,,,,,,,,,,,,,,,,,,,,,,,,,,,358248,001,2024-08-04_14h51.22.104,5-34 ready-monolingual persian speaker,2024.1.5,None,2024-08-04 14h51.26.586555 +0900,
Images/Speaker1.jpg,Images/Speaker2.jpg,Images/Speaker3.jpg,Images/Speaker4.jpg,Audio/Speaker1_Per/P1-7-Per.wav,Speaker1,گوینده ۱,,,,,,,,0,1,1,72,0,13,13,6,,,,,311.23542149999776,,,,,,,,,,,,,,,,,,,,,,,,,,,,,,,,,,,,,,,,,,,,,,,,,,,,,,,,,,,,,,,,,,311.2128667910001,311.23542149999776,311.23542149999776,311.23542149999776,311.23542149999776,311.2287565416666,311.23542149999776,311.23542149999776,311.23542149999776,312.42943904099957,صحیح است,13,14,1,1.1930058329999156,None,312.43329558299956,312.4438994159973,314.43848983299904,314.43852462499854,314.43887749999703,[],[],[],[],[],[],[],False,,,,,,,,,,,,,,,,,,,,,,,,,,,,,,,,,,,,,358248,001,2024-08-04_14h51.22.104,5-34 ready-monolingual persian speaker,2024.1.5,None,2024-08-04 14h51.26.586555 +0900,
Images/Speaker1.jpg,Images/Speaker2.jpg,Images/Speaker3.jpg,Images/Speaker4.jpg,Audio/Speaker2_Per/P2-7-Per.wav,Speaker2,گوینده۲,,,,,,,,0,1,1,72,0,14,14,26,,,,,314.4659410409986,,,,,,,,,,,,,,,,,,,,,,,,,,,,,,,,,,,,,,,,,,,,,,,,,,,,,,,,,,,,,,,,,,314.4403205409981,314.4659410409986,314.4659410409986,314.4659410409986,314.4659410409986,314.47161991633084,314.4659410409986,314.4659410409986,314.4659410409986,315.6281859999981,صحیح است,14,15,2,1.1537778340025397,None,315.63202295799783,315.6444567909966,317.6375409159991,317.6375853749996,317.63796824999736,[],[],[],[],[],[],[],False,,,,,,,,,,,,,,,,,,,,,,,,,,,,,,,,,,,,,358248,001,2024-08-04_14h51.22.104,5-34 ready-monolingual persian speaker,2024.1.5,None,2024-08-04 14h51.26.586555 +0900,
Images/Speaker1.jpg,Images/Speaker2.jpg,Images/Speaker3.jpg,Images/Speaker4.jpg,Audio/Speaker1_Per/P1-9-Per.wav,Speaker1,گوینده ۱,,,,,,,,0,1,1,72,0,15,15,8,,,,,317.6644917079975,,,,,,,,,,,,,,,,,,,,,,,,,,,,,,,,,,,,,,,,,,,,,,,,,,,,,,,,,,,,,,,,,,317.6392031659998,317.6644917079975,317.6644917079975,317.6644917079975,317.6644917079975,317.67071499933127,317.6644917079975,317.6644917079975,317.6644917079975,319.43130887499865,صحیح است,15,16,1,1.7612136249990726,None,319.4352111659973,319.4464602909975,321.4405366659994,321.4405492909973,321.44066620800004,[],[],[],[],[],[],[],False,,,,,,,,,,,,,,,,,,,,,,,,,,,,,,,,,,,,,358248,001,2024-08-04_14h51.22.104,5-34 ready-monolingual persian speaker,2024.1.5,None,2024-08-04 14h51.26.586555 +0900,
Images/Speaker1.jpg,Images/Speaker2.jpg,Images/Speaker3.jpg,Images/Speaker4.jpg,Audio/Speaker1_Per/P1-6-Per.wav,Speaker1,گوینده ۱,,,,,,,,0,1,1,72,0,16,16,5,,,,,321.4644235829983,,,,,,,,,,,,,,,,,,,,,,,,,,,,,,,,,,,,,,,,,,,,,,,,,,,,,,,,,,,,,,,,,,321.44105779099846,321.4644235829983,321.4644235829983,321.4644235829983,321.4644235829983,321.47382670833076,321.4644235829983,321.4644235829983,321.4644235829983,322.67472133299816,صحیح است,16,17,1,1.202191042000777,None,322.6789749999989,322.68705304099785,324.68196649999663,324.6820101659978,324.6823866249979,[],[],[],[],[],[],[],False,,,,,,,,,,,,,,,,,,,,,,,,,,,,,,,,,,,,,358248,001,2024-08-04_14h51.22.104,5-34 ready-monolingual persian speaker,2024.1.5,None,2024-08-04 14h51.26.586555 +0900,
Images/Speaker1.jpg,Images/Speaker2.jpg,Images/Speaker3.jpg,Images/Speaker4.jpg,Audio/Speaker4_Per/P4-12-Per.wav,Speaker4,گوینده۴,,,,,,,,0,1,1,72,0,17,17,71,,,,,324.70734841599915,,,,,,,,,,,,,,,,,,,,,,,,,,,,,,,,,,,,,,,,,,,,,,,,,,,,,,,,,,,,,,,,,,324.6839367499997,324.70734841599915,324.70734841599915,324.70734841599915,324.70734841599915,324.71514424933093,324.70734841599915,324.70734841599915,324.70734841599915,326.4146279159977,صحیح است,17,18,4,1.6996431670013408,None,326.4186925409995,326.4273905409973,328.4101047499971,328.41011445799813,328.41022075,[],[],[],[],[],[],[],False,328.43417945799956,,,,,,,,,,,,,,,,,,,,,,,,,,,,,,,,,,,,358248,001,2024-08-04_14h51.22.104,5-34 ready-monolingual persian speaker,2024.1.5,None,2024-08-04 14h51.26.586555 +0900,
Images/Speaker1.jpg,Images/Speaker2.jpg,Images/Speaker3.jpg,Images/Speaker4.jpg,Audio/Speaker2_Per/P2-19-Per.wav,Speaker2,گوینده۲,,,,,,,,0,1,1,72,0,18,18,38,,,,,328.43417945799956,,,,,,,,,,,,,,,,,,,,,,,,,,,,,,,,,,,,,,,,,,,,,,,,,,,,,,,,,,,,,,,,,,328.41070920799757,328.43417945799956,328.43417945799956,328.43417945799956,328.43417945799956,328.44315441633125,328.43417945799956,328.43417945799956,328.43417945799956,329.622276332997,صحیح است,18,19,2,1.1815727909997804,None,329.6264980829983,329.6383720829981,331.6210707909995,331.6210939579978,331.62123020799845,[],[],[],[],[],[],[],False,331.64431504099775,,,,,,,,,,,,,,,,,,,,,,,,,,,,,,,,,,,,358248,001,2024-08-04_14h51.22.104,5-34 ready-monolingual persian speaker,2024.1.5,None,2024-08-04 14h51.26.586555 +0900,
Images/Speaker1.jpg,Images/Speaker2.jpg,Images/Speaker3.jpg,Images/Speaker4.jpg,Audio/Speaker1_Per/P1-1-Per.wav,Speaker1,گوینده ۱,,,,,,,,0,1,1,72,0,19,19,0,,,,,331.64431504099775,,,,,,,,,,,,,,,,,,,,,,,,,,,,,,,,,,,,,,,,,,,,,,,,,,,,,,,,,,,,,,,,,,331.621642332997,331.64431504099775,331.64431504099775,331.64431504099775,331.64431504099775,331.63750408266446,331.64431504099775,331.64431504099775,331.64431504099775,334.15902162499697,صحیح است,19,20,1,2.5121061659992847,None,334.16311816599773,334.1742381249969,336.16310829099893,336.16313216599883,336.16344562499944,[],[],[],[],[],[],[],False,336.1883501659977,,,,,,,,,,,,,,,,,,,,,,,,,,,,,,,,,,,,358248,001,2024-08-04_14h51.22.104,5-34 ready-monolingual persian speaker,2024.1.5,None,2024-08-04 14h51.26.586555 +0900,
Images/Speaker1.jpg,Images/Speaker2.jpg,Images/Speaker3.jpg,Images/Speaker4.jpg,Audio/Speaker3_Per/P3-10-Per.wav,Speaker3,گوینده۳,,,,,,,,0,1,1,72,0,20,20,49,,,,,336.1883501659977,,,,,,,,,,,,,,,,,,,,,,,,,,,,,,,,,,,,,,,,,,,,,,,,,,,,,,,,,,,,,,,,,,336.1644453329973,336.1883501659977,336.1883501659977,336.1883501659977,336.1883501659977,336.19560541633155,336.1883501659977,336.1883501659977,336.1883501659977,337.41153949999716,صحیح است,20,21,3,1.2145927909987222,None,337.415246499997,337.42585066599713,339.4147837499986,339.41481295799895,339.41531879099784,[],[],[],[],[],[],[],False,339.43922745799864,,,,,,,,,,,,,,,,,,,,,,,,,,,,,,,,,,,,358248,001,2024-08-04_14h51.22.104,5-34 ready-monolingual persian speaker,2024.1.5,None,2024-08-04 14h51.26.586555 +0900,
Images/Speaker1.jpg,Images/Speaker2.jpg,Images/Speaker3.jpg,Images/Speaker4.jpg,Audio/Speaker2_Per/P2-20-Per.wav,Speaker2,گوینده۲,,,,,,,,0,1,1,72,0,21,21,39,,,,,339.43922745799864,,,,,,,,,,,,,,,,,,,,,,,,,,,,,,,,,,,,,,,,,,,,,,,,,,,,,,,,,,,,,,,,,,339.4166872909991,339.43922745799864,339.43922745799864,339.43922745799864,339.43922745799864,339.4473410413307,339.43922745799864,339.43922745799864,339.43922745799864,340.68759108299855,صحیح است,21,22,2,1.2456439580018923,None,340.6915799999988,340.70241291599814,342.6854262909983,342.6854427909966,342.6855446249974,[],[],[],[],[],[],[],False,342.70968558299865,,,,,,,,,,,,,,,,,,,,,,,,,,,,,,,,,,,,358248,001,2024-08-04_14h51.22.104,5-34 ready-monolingual persian speaker,2024.1.5,None,2024-08-04 14h51.26.586555 +0900,
Images/Speaker1.jpg,Images/Speaker2.jpg,Images/Speaker3.jpg,Images/Speaker4.jpg,Audio/Speaker3_Per/P3-1-Per.wav,Speaker3,گوینده۳,,,,,,,,0,1,1,72,0,22,22,40,,,,,342.70968558299865,,,,,,,,,,,,,,,,,,,,,,,,,,,,,,,,,,,,,,,,,,,,,,,,,,,,,,,,,,,,,,,,,,342.6859772909993,342.70968558299865,342.70968558299865,342.70968558299865,342.70968558299865,342.71844441633266,342.70968558299865,342.70968558299865,342.70968558299865,343.9336447079986,صحیح است,22,23,3,1.2192196250034613,None,343.937513957997,343.9484636249981,345.93936516599933,345.93938262499796,345.9394849579985,[],[],[],[],[],[],[],False,,,,,,,,,,,,,,,,,,,,,,,,,,,,,,,,,,,,,358248,001,2024-08-04_14h51.22.104,5-34 ready-monolingual persian speaker,2024.1.5,None,2024-08-04 14h51.26.586555 +0900,
Images/Speaker1.jpg,Images/Speaker2.jpg,Images/Speaker3.jpg,Images/Speaker4.jpg,Audio/Speaker3_Per/P3-3-Per.wav,Speaker3,گوینده۳,,,,,,,,0,1,1,72,0,23,23,42,,,,,345.9621592909971,,,,,,,,,,,,,,,,,,,,,,,,,,,,,,,,,,,,,,,,,,,,,,,,,,,,,,,,,,,,,,,,,,345.93989749999673,345.9621592909971,345.9621592909971,345.9621592909971,345.9621592909971,345.95599399966545,345.9621592909971,345.9621592909971,345.9621592909971,347.32243141599974,صحیح است,23,24,3,1.3592381250018661,None,347.3262659159991,347.3367934159978,349.3294641249995,349.3294927499992,349.32989679099774,[],[],[],[],[],[],[],False,,,,,,,,,,,,,,,,,,,,,,,,,,,,,,,,,,,,,358248,001,2024-08-04_14h51.22.104,5-34 ready-monolingual persian speaker,2024.1.5,None,2024-08-04 14h51.26.586555 +0900,
Images/Speaker1.jpg,Images/Speaker2.jpg,Images/Speaker3.jpg,Images/Speaker4.jpg,Audio/Speaker1_Per/P1-15-Per.wav,Speaker1,گوینده ۱,,,,,,,,0,1,1,72,0,24,24,14,,,,,349.3579159159999,,,,,,,,,,,,,,,,,,,,,,,,,,,,,,,,,,,,,,,,,,,,,,,,,,,,,,,,,,,,,,,,,,349.3312950829968,349.3579159159999,349.3579159159999,349.3579159159999,349.3579159159999,349.3626252493309,349.3579159159999,349.3579159159999,349.3579159159999,350.47963616599736,صحیح است,24,25,1,1.1147527920002176,None,350.4837850829972,350.4945260409986,352.47809791599866,352.4781072079968,352.47821320799994,[],[],[],[],[],[],[],False,352.501581540997,,,,,,,,,,,,,,,,,,,,,,,,,,,,,,,,,,,,358248,001,2024-08-04_14h51.22.104,5-34 ready-monolingual persian speaker,2024.1.5,None,2024-08-04 14h51.26.586555 +0900,
Images/Speaker1.jpg,Images/Speaker2.jpg,Images/Speaker3.jpg,Images/Speaker4.jpg,Audio/Speaker3_Per/P3-6-Per.wav,Speaker3,گوینده۳,,,,,,,,0,1,1,72,0,25,25,45,,,,,352.501581540997,,,,,,,,,,,,,,,,,,,,,,,,,,,,,,,,,,,,,,,,,,,,,,,,,,,,,,,,,,,,,,,,,,352.47862862499824,352.501581540997,352.501581540997,352.501581540997,352.501581540997,352.4945654996666,352.501581540997,352.501581540997,352.501581540997,354.2141145829992,صحیح است,25,26,3,1.7103002500007278,None,354.21878345799996,354.2303993329988,356.2149608749969,356.21497245799765,356.2150730829999,[],[],[],[],[],[],[],False,356.24010266599726,,,,,,,,,,,,,,,,,,,,,,,,,,,,,,,,,,,,358248,001,2024-08-04_14h51.22.104,5-34 ready-monolingual persian speaker,2024.1.5,None,2024-08-04 14h51.26.586555 +0900,
Images/Speaker1.jpg,Images/Speaker2.jpg,Images/Speaker3.jpg,Images/Speaker4.jpg,Audio/Speaker4_Per/P4-14-Per.wav,Speaker4,گوینده۴,,,,,,,,0,1,1,72,0,26,26,73,,,,,356.24010266599726,,,,,,,,,,,,,,,,,,,,,,,,,,,,,,,,,,,,,,,,,,,,,,,,,,,,,,,,,,,,,,,,,,356.2154751249982,356.24010266599726,356.24010266599726,356.24010266599726,356.24010266599726,356.2480898743311,356.24010266599726,356.24010266599726,356.24010266599726,358.5042516659996,نادرست! پاسخ صحیح گوینده۴ است,25,27,3,2.254799041998922,None,358.50924120799755,358.52155649999986,360.506075082998,360.50608508299774,360.50619929099776,[],[],[],[],[],[],[],False,360.529570540999,,,,,,,,,,,,,,,,,,,,,,,,,,,,,,,,,,,,358248,001,2024-08-04_14h51.22.104,5-34 ready-monolingual persian speaker,2024.1.5,None,2024-08-04 14h51.26.586555 +0900,
Images/Speaker1.jpg,Images/Speaker2.jpg,Images/Speaker3.jpg,Images/Speaker4.jpg,Audio/Speaker1_Per/P1-4-Per.wav,Speaker1,گوینده ۱,,,,,,,,0,1,1,72,0,27,27,13,,,,,360.529570540999,,,,,,,,,,,,,,,,,,,,,,,,,,,,,,,,,,,,,,,,,,,,,,,,,,,,,,,,,,,,,,,,,,360.50660399999833,360.529570540999,360.529570540999,360.529570540999,360.529570540999,360.52253249966475,360.529570540999,360.529570540999,360.529570540999,362.16965245799656,صحیح است,26,28,1,1.6365827920017182,None,362.17350774999795,362.1845320829998,364.18022712499805,364.1802751659998,364.1806248749999,[],[],[],[],[],[],[],False,,,,,,,,,,,,,,,,,,,,,,,,,,,,,,,,,,,,,358248,001,2024-08-04_14h51.22.104,5-34 ready-monolingual persian speaker,2024.1.5,None,2024-08-04 14h51.26.586555 +0900,
Images/Speaker1.jpg,Images/Speaker2.jpg,Images/Speaker3.jpg,Images/Speaker4.jpg,Audio/Speaker1_Per/P1-17-Per.wav,Speaker1,گوینده ۱,,,,,,,,0,1,1,72,0,28,28,16,,,,,364.20523158299693,,,,,,,,,,,,,,,,,,,,,,,,,,,,,,,,,,,,,,,,,,,,,,,,,,,,,,,,,,,,,,,,,,364.1819819159973,364.20523158299693,364.20523158299693,364.20523158299693,364.20523158299693,364.2133705833335,364.20523158299693,364.20523158299693,364.20523158299693,365.23903729099766,صحیح است,27,29,1,1.0316912500020408,None,365.2431947909972,365.25406349999685,367.2400589579993,367.24008695799785,367.2405579579972,[],[],[],[],[],[],[],False,367.26569179099897,,,,,,,,,,,,,,,,,,,,,,,,,,,,,,,,,,,,358248,001,2024-08-04_14h51.22.104,5-34 ready-monolingual persian speaker,2024.1.5,None,2024-08-04 14h51.26.586555 +0900,
Images/Speaker1.jpg,Images/Speaker2.jpg,Images/Speaker3.jpg,Images/Speaker4.jpg,Audio/Speaker4_Per/P4-5-Per.wav,Speaker4,گوینده۴,,,,,,,,0,1,1,72,0,29,29,64,,,,,367.26569179099897,,,,,,,,,,,,,,,,,,,,,,,,,,,,,,,,,,,,,,,,,,,,,,,,,,,,,,,,,,,,,,,,,,367.24210087499887,367.26569179099897,367.26569179099897,367.26569179099897,367.26569179099897,367.2725977913328,367.26569179099897,367.26569179099897,367.26569179099897,368.9285259999997,صحیح است,28,30,4,1.6602092920002178,None,368.9323307909981,368.94322095799726,370.9352274579978,370.9352374579976,370.9353510000001,[],[],[],[],[],[],[],False,,,,,,,,,,,,,,,,,,,,,,,,,,,,,,,,,,,,,358248,001,2024-08-04_14h51.22.104,5-34 ready-monolingual persian speaker,2024.1.5,None,2024-08-04 14h51.26.586555 +0900,
Images/Speaker1.jpg,Images/Speaker2.jpg,Images/Speaker3.jpg,Images/Speaker4.jpg,Audio/Speaker4_Per/P4-6-Per.wav,Speaker4,گوینده۴,,,,,,,,0,1,1,72,0,30,30,65,,,,,370.959091040997,,,,,,,,,,,,,,,,,,,,,,,,,,,,,,,,,,,,,,,,,,,,,,,,,,,,,,,,,,,,,,,,,,370.9357418749969,370.959091040997,370.959091040997,370.959091040997,370.959091040997,370.9685276663299,370.959091040997,370.959091040997,370.959091040997,373.61223683299977,صحیح است,29,31,4,2.645835832998273,None,373.6164050829975,373.6251698749984,375.6128012079971,375.6128338749986,375.61315683299836,[],[],[],[],[],[],[],False,375.63717166599963,,,,,,,,,,,,,,,,,,,,,,,,,,,,,,,,,,,,358248,001,2024-08-04_14h51.22.104,5-34 ready-monolingual persian speaker,2024.1.5,None,2024-08-04 14h51.26.586555 +0900,
Images/Speaker1.jpg,Images/Speaker2.jpg,Images/Speaker3.jpg,Images/Speaker4.jpg,Audio/Speaker4_Per/P4-8-Per.wav,Speaker4,گوینده۴,,,,,,,,0,1,1,72,0,31,31,67,,,,,375.63717166599963,,,,,,,,,,,,,,,,,,,,,,,,,,,,,,,,,,,,,,,,,,,,,,,,,,,,,,,,,,,,,,,,,,375.6141967079966,375.63717166599963,375.63717166599963,375.63717166599963,375.63717166599963,375.6451805833317,375.63717166599963,375.63717166599963,375.63717166599963,378.2380804579989,صحیح است,30,32,4,2.590712375000294,None,378.2420640829987,378.25291274999836,380.2466057499987,380.2466209159975,380.24675812499845,[],[],[],[],[],[],[],False,,,,,,,,,,,,,,,,,,,,,,,,,,,,,,,,,,,,,358248,001,2024-08-04_14h51.22.104,5-34 ready-monolingual persian speaker,2024.1.5,None,2024-08-04 14h51.26.586555 +0900,
Images/Speaker1.jpg,Images/Speaker2.jpg,Images/Speaker3.jpg,Images/Speaker4.jpg,Audio/Speaker1_Per/P1-11-Per.wav,Speaker1,گوینده ۱,,,,,,,,0,1,1,72,0,32,32,10,,,,,380.2708953329966,,,,,,,,,,,,,,,,,,,,,,,,,,,,,,,,,,,,,,,,,,,,,,,,,,,,,,,,,,,,,,,,,,380.24719429099787,380.2708953329966,380.2708953329966,380.2708953329966,380.2708953329966,380.2798966243322,380.2708953329966,380.2708953329966,380.2708953329966,382.0381707079978,صحیح است,31,33,1,1.7646623750006256,None,382.04208062499674,382.05336404099944,384.0388134579989,384.03882574999807,384.03893487499954,[],[],[],[],[],[],[],False,384.06184079099694,,,,,,,,,,,,,,,,,,,,,,,,,,,,,,,,,,,,358248,001,2024-08-04_14h51.22.104,5-34 ready-monolingual persian speaker,2024.1.5,None,2024-08-04 14h51.26.586555 +0900,
Images/Speaker1.jpg,Images/Speaker2.jpg,Images/Speaker3.jpg,Images/Speaker4.jpg,Audio/Speaker3_Per/P3-12-Per.wav,Speaker3,گوینده۳,,,,,,,,0,1,1,72,0,33,33,51,,,,,384.06184079099694,,,,,,,,,,,,,,,,,,,,,,,,,,,,,,,,,,,,,,,,,,,,,,,,,,,,,,,,,,,,,,,,,,384.0393677909997,384.06184079099694,384.06184079099694,384.06184079099694,384.06184079099694,384.05516970766644,384.06184079099694,384.06184079099694,384.06184079099694,387.1195599579987,صحیح است,32,34,3,3.053098291002243,None,387.1197993749993,387.1307447909967,389.12070333299926,389.1207367909992,389.1211099159991,[],[],[],[],[],[],[],False,,,,,,,,,,,,,,,,,,,,,,,,,,,,,,,,,,,,,358248,001,2024-08-04_14h51.22.104,5-34 ready-monolingual persian speaker,2024.1.5,None,2024-08-04 14h51.26.586555 +0900,
Images/Speaker1.jpg,Images/Speaker2.jpg,Images/Speaker3.jpg,Images/Speaker4.jpg,Audio/Speaker2_Per/P2-12-Per.wav,Speaker2,گوینده۲,,,,,,,,0,1,1,72,0,34,34,31,,,,,389.14848920799705,,,,,,,,,,,,,,,,,,,,,,,,,,,,,,,,,,,,,,,,,,,,,,,,,,,,,,,,,,,,,,,,,,389.12226525000005,389.14848920799705,389.14848920799705,389.14848920799705,389.14848920799705,389.1538910833301,389.14848920799705,389.14848920799705,389.14848920799705,391.1618966249989,صحیح است,33,35,2,2.0041340830030094,None,391.1658761660001,391.17676695799673,393.17127708299813,393.1712868750001,393.1714291249991,[],[],[],[],[],[],[],False,,,,,,,,,,,,,,,,,,,,,,,,,,,,,,,,,,,,,358248,001,2024-08-04_14h51.22.104,5-34 ready-monolingual persian speaker,2024.1.5,None,2024-08-04 14h51.26.586555 +0900,
Images/Speaker1.jpg,Images/Speaker2.jpg,Images/Speaker3.jpg,Images/Speaker4.jpg,Audio/Speaker2_Per/P2-3-Per.wav,Speaker2,گوینده۲,,,,,,,,0,1,1,72,0,35,35,22,,,,,393.1955712909985,,,,,,,,,,,,,,,,,,,,,,,,,,,,,,,,,,,,,,,,,,,,,,,,,,,,,,,,,,,,,,,,,,393.17184237499896,393.1955712909985,393.1955712909985,393.1955712909985,393.1955712909985,393.20457191633295,393.1955712909985,393.1955712909985,393.1955712909985,394.4429095409978,صحیح است,34,36,2,1.246005791999778,None,394.44711024999924,394.457823040997,396.4474159579986,396.4474405410001,396.44780691599954,[],[],[],[],[],[],[],False,396.47512037499837,,,,,,,,,,,,,,,,,,,,,,,,,,,,,,,,,,,,358248,001,2024-08-04_14h51.22.104,5-34 ready-monolingual persian speaker,2024.1.5,None,2024-08-04 14h51.26.586555 +0900,
Images/Speaker1.jpg,Images/Speaker2.jpg,Images/Speaker3.jpg,Images/Speaker4.jpg,Audio/Speaker3_Per/P3-19-Per.wav,Speaker3,گوینده۳,,,,,,,,0,1,1,72,0,36,36,58,,,,,396.47512037499837,,,,,,,,,,,,,,,,,,,,,,,,,,,,,,,,,,,,,,,,,,,,,,,,,,,,,,,,,,,,,,,,,,396.44933091599887,396.47512037499837,396.47512037499837,396.47512037499837,396.47512037499837,396.47985549933264,396.47512037499837,396.47512037499837,396.47512037499837,398.0751875829992,صحیح است,35,37,3,1.5975070409986074,None,398.0790175409966,398.09007379099785,400.07397083299657,400.0739838329973,400.0741222079996,[],[],[],[],[],[],[],False,400.09759658299663,,,,,,,,,,,,,,,,,,,,,,,,,,,,,,,,,,,,358248,001,2024-08-04_14h51.22.104,5-34 ready-monolingual persian speaker,2024.1.5,None,2024-08-04 14h51.26.586555 +0900,
Images/Speaker1.jpg,Images/Speaker2.jpg,Images/Speaker3.jpg,Images/Speaker4.jpg,Audio/Speaker2_Per/P2-10-Per.wav,Speaker2,گوینده۲,,,,,,,,0,1,1,72,0,37,37,29,,,,,400.09759658299663,,,,,,,,,,,,,,,,,,,,,,,,,,,,,,,,,,,,,,,,,,,,,,,,,,,,,,,,,,,,,,,,,,400.0745474999967,400.09759658299663,400.09759658299663,400.09759658299663,400.09759658299663,400.0904261666658,400.09759658299663,400.09759658299663,400.09759658299663,401.33792691599956,صحیح است,36,38,2,1.2315779159980593,None,401.3421469999994,401.35300483299943,403.3469179579988,403.3469504579989,403.34731095799725,[],[],[],[],[],[],[],False,,,,,,,,,,,,,,,,,,,,,,,,,,,,,,,,,,,,,358248,001,2024-08-04_14h51.22.104,5-34 ready-monolingual persian speaker,2024.1.5,None,2024-08-04 14h51.26.586555 +0900,
Images/Speaker1.jpg,Images/Speaker2.jpg,Images/Speaker3.jpg,Images/Speaker4.jpg,Audio/Speaker4_Per/P4-10-Per.wav,Speaker4,گوینده۴,,,,,,,,0,1,1,72,0,38,38,69,,,,,403.3755227909969,,,,,,,,,,,,,,,,,,,,,,,,,,,,,,,,,,,,,,,,,,,,,,,,,,,,,,,,,,,,,,,,,,403.34877083299943,403.3755227909969,403.3755227909969,403.3755227909969,403.3755227909969,403.38003462433016,403.3755227909969,403.3755227909969,403.3755227909969,404.9630103749987,صحیح است,37,39,4,1.5774883330013836,None,404.966886582999,404.97567341600006,406.96379595799954,406.96382233299664,406.96414541599734,[],[],[],[],[],[],[],False,406.9893089159996,,,,,,,,,,,,,,,,,,,,,,,,,,,,,,,,,,,,358248,001,2024-08-04_14h51.22.104,5-34 ready-monolingual persian speaker,2024.1.5,None,2024-08-04 14h51.26.586555 +0900,
Images/Speaker1.jpg,Images/Speaker2.jpg,Images/Speaker3.jpg,Images/Speaker4.jpg,Audio/Speaker1_Per/P1-10-Per.wav,Speaker1,گوینده ۱,,,,,,,,0,1,1,72,0,39,39,9,,,,,406.9893089159996,,,,,,,,,,,,,,,,,,,,,,,,,,,,,,,,,,,,,,,,,,,,,,,,,,,,,,,,,,,,,,,,,,406.9656332909981,406.9893089159996,406.9893089159996,406.9893089159996,406.9893089159996,406.9962780833307,406.9893089159996,406.9893089159996,406.9893089159996,408.29500133299734,صحیح است,38,40,1,1.3017897919999086,None,408.29906774999836,408.3101253749992,410.29876804099695,410.2988028749969,412.297015958,[-0.12219959266802444],[0.26272912423625255],[1],[0],[0],[1.9938955420002458],[],False,410.3139563329969,410.3139563329969,410.3139563329969,410.3139563329969,0.0002431659995636437,,,,,,,,,,,,,,,,,,,,,,,,,,,,,,,,358248,001,2024-08-04_14h51.22.104,5-34 ready-monolingual persian speaker,2024.1.5,None,2024-08-04 14h51.26.586555 +0900,
Images/Speaker1.jpg,Images/Speaker2.jpg,Images/Speaker3.jpg,Images/Speaker4.jpg,Audio/Speaker3_Per/P3-9-Per.wav,Speaker3,گوینده۳,,,,,,,,0,1,1,72,0,40,40,48,,,,,412.3148963749991,,,,,,,,,,,,,,,,,,,,,,,,,,,,,,,,,,,,,,,,,,,,,,,,,,,,,,,,,,,,,,,,,,412.29736624999714,412.3148963749991,412.3148963749991,412.3148963749991,412.3148963749991,412.3098047916649,412.3148963749991,412.3148963749991,412.3148963749991,413.9547701659976,صحیح است,39,41,3,1.6321098329972301,None,413.9587903749998,413.9697839579967,415.9566535829981,415.956681124997,415.95715362499686,[],[],[],[],[],[],[],False,415.98258616599924,,,,,,,,,,,,,,,,,,,,,,,,,,,,,,,,,,,,358248,001,2024-08-04_14h51.22.104,5-34 ready-monolingual persian speaker,2024.1.5,None,2024-08-04 14h51.26.586555 +0900,
