SpeakerImage1,SpeakerImage2,SpeakerImage3,SpeakerImage4,TrainingSound,EnglishCorrectAnswer,PersianCorrectAnswer,TrainingLoopGroup1.thisRepN,TrainingLoopGroup1.thisTrialN,TrainingLoopGroup1.thisN,TrainingLoopGroup1.thisIndex,TrainingLoopGroup2.thisRepN,TrainingLoopGroup2.thisTrialN,TrainingLoopGroup2.thisN,TrainingLoopGroup2.thisIndex,TrainingLoopGroup3.thisRepN,TrainingLoopGroup3.thisTrialN,TrainingLoopGroup3.thisN,TrainingLoopGroup3.thisIndex,thisRow.t,notes,trial.started,trial.stopped,GroupSelection.started,GroupInstructions.started,ker_resp.started,GroupSelection.stopped,ker_resp.keys,ker_resp.rt,ker_resp.duration,Introduction.started,text_2.started,image.started,sound_7.started,text_4.started,text_2.stopped,sound_8.started,image.stopped,text_4.stopped,image_7.started,sound_9.started,text_5.started,sound_10.started,image_7.stopped,text_5.stopped,image_8.started,sound_11.started,text_6.started,sound_12.started,image_8.stopped,text_6.stopped,image_9.started,sound_13.started,text_7.started,sound_14.started,image_9.stopped,text_7.stopped,Introduction.stopped,Instructions.started,InstructionText.started,InstructionText.stopped,Instructions.stopped,InitializeExperiment.started,InitializeExperiment.stopped,TrainingGroup1.started,image_1.started,image_2.started,image_3.started,image_4.started,sound1.started,Instruction.started,ResponseKey.started,TrainingGroup1.stopped,feedbackText,ResponseKey.keys,ResponseKey.rt,ResponseKey.duration,correct_responses,total_trials,FeedbackRoutine1.started,FeedbackText.started,FeedbackRoutine1.stopped,FeedbackText.stopped,TransitionRoutine.started,accuracy,nextRoutine,TransitionRoutine.stopped,TestPhase1.started,participant,session,date,expName,psychopyVersion,frameRate,expStart,
,,,,,,,,,,,,,,,,,,,,,0.010766500025056303,0.011103500000899658,,,,,,,,,,,,,,,,,,,,,,,,,,,,,,,,,,,,,,,,,,,,,,,,,,,,,,,,,,,,,,,,,,001341,001,2024-06-26_11h47.20.642,5-18,2024.1.4,None,2024-06-26 11h47.25.264640 +0900,
,,,,,,,,,,,,,,,,,,,,,,,0.011131166014820337,0.015522625006269664,0.015522625006269664,0.5190443330211565,1,0.46312358300201595,None,,,,,,,,,,,,,,,,,,,,,,,,,,,,,,,,,,,,,,,,,,,,,,,,,,,,,,,,,,,001341,001,2024-06-26_11h47.20.642,5-18,2024.1.4,None,2024-06-26 11h47.25.264640 +0900,
,,,,,,,,,,,,,,,,,,,,,,,,,,,,,,0.5190775000082795,0.5947365000029095,5.516908250021515,5.52383816667522,5.516908250021515,5.5892745410092175,10.519044874676426,15.515157250018092,15.515157250018092,15.515157250018092,15.524929166688041,15.515157250018092,20.525661249678038,25.504718291020254,25.504718291020254,25.510197041003266,25.52138495768692,25.510197041003266,30.525200832668148,35.5083757500106,35.5083757500106,35.51506683300249,35.525042416677266,35.51506683300249,40.52497637467265,45.50298016599845,45.50298016599845,45.497776916017756,,,,,,,,,,,,,,,,,,,,,,,,,,,,,,,001341,001,2024-06-26_11h47.20.642,5-18,2024.1.4,None,2024-06-26 11h47.25.264640 +0900,
,,,,,,,,,,,,,,,,,,,,,,,,,,,,,,,,,,,,,,,,,,,,,,,,,,,,,,,,,,45.49779754100018,45.51528925000457,50.566369500011206,50.511373208020814,,,,,,,,,,,,,,,,,,,,,,,,,,,001341,001,2024-06-26_11h47.20.642,5-18,2024.1.4,None,2024-06-26 11h47.25.264640 +0900,
,,,,,,,,,,,,,,,,,,,,,,,,,,,,,,,,,,,,,,,,,,,,,,,,,,,,,,,,,,,,,,50.51144945801934,50.511829958006274,,,,,,,,,,,,,,,,,,,,,,,,,001341,001,2024-06-26_11h47.20.642,5-18,2024.1.4,None,2024-06-26 11h47.25.264640 +0900,
Images/Speaker1.jpg,Images/Speaker2.jpg,Images/Speaker3.jpg,Images/Speaker4.jpg,Audio/Speaker1_Per/P1-5-Per.wav,Speaker1,گوینده ۱,0,0,0,4,,,,,,,,,50.566369500011206,,,,,,,,,,,,,,,,,,,,,,,,,,,,,,,,,,,,,,,,,,,,,50.53779020800721,50.566369500011206,50.566369500011206,50.566369500011206,50.566369500011206,50.560371791024224,50.566369500011206,50.566369500011206,53.56258091601194,Correct! صحیح است,1,2.9893210000009276,None,1,0,53.56718925002497,53.58687754100538,55.56772483300301,,,,,,,001341,001,2024-06-26_11h47.20.642,5-18,2024.1.4,None,2024-06-26 11h47.25.264640 +0900,
Images/Speaker1.jpg,Images/Speaker2.jpg,Images/Speaker3.jpg,Images/Speaker4.jpg,Audio/Speaker2_Per/P2-6-Per.wav,Speaker2,گوینده۲,0,1,1,25,,,,,,,,,55.59122366600786,,,,,,,,,,,,,,,,,,,,,,,,,,,,,,,,,,,,,,,,,,,,,55.56789545802167,55.59122366600786,55.59122366600786,55.59122366600786,55.59122366600786,55.60102562435398,55.59122366600786,55.59122366600786,56.95025175000774,Correct! صحیح است,2,1.357893457985483,None,2,0,56.955151583009865,56.96750029100804,58.95922883300227,,,,,,,001341,001,2024-06-26_11h47.20.642,5-18,2024.1.4,None,2024-06-26 11h47.25.264640 +0900,
Images/Speaker1.jpg,Images/Speaker2.jpg,Images/Speaker3.jpg,Images/Speaker4.jpg,Audio/Speaker4_Per/P4-5-Per.wav,Speaker4,گوینده۴,0,2,2,64,,,,,,,,,58.98732741601998,,,,,,,,,,,,,,,,,,,,,,,,,,,,,,,,,,,,,,,,,,,,,58.95984112500446,58.98732741601998,58.98732741601998,58.98732741601998,58.98732741601998,58.99238887435834,58.98732741601998,58.98732741601998,61.23494049999863,Correct! صحیح است,4,2.239946166984737,None,3,0,61.23897812500945,61.250277208018815,63.23897912501707,63.26279633300146,,,,,,001341,001,2024-06-26_11h47.20.642,5-18,2024.1.4,None,2024-06-26 11h47.25.264640 +0900,
Images/Speaker1.jpg,Images/Speaker2.jpg,Images/Speaker3.jpg,Images/Speaker4.jpg,Audio/Speaker1_Per/P1-12-Per.wav,Speaker1,گوینده ۱,0,3,3,11,,,,,,,,,63.26279633300146,,,,,,,,,,,,,,,,,,,,,,,,,,,,,,,,,,,,,,,,,,,,,63.23915429101908,63.26279633300146,63.26279633300146,63.26279633300146,63.26279633300146,63.27205362433645,63.26279633300146,63.26279633300146,66.31243320801877,Correct! صحیح است,1,3.046953500015661,None,4,0,66.31272875002469,66.32437741602189,68.31659208302153,,,,,,,001341,001,2024-06-26_11h47.20.642,5-18,2024.1.4,None,2024-06-26 11h47.25.264640 +0900,
Images/Speaker1.jpg,Images/Speaker2.jpg,Images/Speaker3.jpg,Images/Speaker4.jpg,Audio/Speaker2_Per/P2-3-Per.wav,Speaker2,گوینده۲,0,4,4,22,,,,,,,,,68.3441125000245,,,,,,,,,,,,,,,,,,,,,,,,,,,,,,,,,,,,,,,,,,,,,68.31722750002518,68.3441125000245,68.3441125000245,68.3441125000245,68.3441125000245,68.34971395834194,68.3441125000245,68.3441125000245,69.93336858300609,Correct! صحیح است,2,1.580968499998562,None,5,0,69.93715170799987,69.94679979101056,71.93203070800519,71.95567512500565,,,,,,001341,001,2024-06-26_11h47.20.642,5-18,2024.1.4,None,2024-06-26 11h47.25.264640 +0900,
Images/Speaker1.jpg,Images/Speaker2.jpg,Images/Speaker3.jpg,Images/Speaker4.jpg,Audio/Speaker1_Per/P1-4-Per.wav,Speaker1,گوینده ۱,0,5,5,3,,,,,,,,,71.95567512500565,,,,,,,,,,,,,,,,,,,,,,,,,,,,,,,,,,,,,,,,,,,,,71.932174415997,71.95567512500565,71.95567512500565,71.95567512500565,71.95567512500565,71.96513795833064,71.95567512500565,71.95567512500565,73.32887508301064,Correct! صحیح است,1,1.3674764999886975,None,6,0,73.33280741600902,73.34418087502127,75.32703725001193,75.34945991600398,,,,,,001341,001,2024-06-26_11h47.20.642,5-18,2024.1.4,None,2024-06-26 11h47.25.264640 +0900,
Images/Speaker1.jpg,Images/Speaker2.jpg,Images/Speaker3.jpg,Images/Speaker4.jpg,Audio/Speaker4_Per/P4-7-Per.wav,Speaker4,گوینده۴,0,6,6,66,,,,,,,,,75.34945991600398,,,,,,,,,,,,,,,,,,,,,,,,,,,,,,,,,,,,,,,,,,,,,75.32719754101709,75.34945991600398,75.34945991600398,75.34945991600398,75.34945991600398,75.34350145768646,75.34945991600398,75.34945991600398,78.13893391602323,Correct! صحیح است,4,2.779230957996333,None,7,0,78.13920291600516,78.1506058750092,80.13439891600865,80.15724920801586,,,,,,001341,001,2024-06-26_11h47.20.642,5-18,2024.1.4,None,2024-06-26 11h47.25.264640 +0900,
Images/Speaker1.jpg,Images/Speaker2.jpg,Images/Speaker3.jpg,Images/Speaker4.jpg,Audio/Speaker1_Per/P1-17-Per.wav,Speaker1,گوینده ۱,0,7,7,16,,,,,,,,,80.15724920801586,,,,,,,,,,,,,,,,,,,,,,,,,,,,,,,,,,,,,,,,,,,,,80.13459445800981,80.15724920801586,80.15724920801586,80.15724920801586,80.15724920801586,80.15086862468549,80.15724920801586,80.15724920801586,80.58608804101823,Incorrect! The correct answer is Speaker1. نادرست! پاسخ صحیح گوینده ۱ است,3,0.426986875012517,None,7,0,80.59026379100396,80.60671295801876,82.5943538749998,,,,,,,001341,001,2024-06-26_11h47.20.642,5-18,2024.1.4,None,2024-06-26 11h47.25.264640 +0900,
Images/Speaker1.jpg,Images/Speaker2.jpg,Images/Speaker3.jpg,Images/Speaker4.jpg,Audio/Speaker1_Per/P1-16-Per.wav,Speaker1,گوینده ۱,0,8,8,15,,,,,,,,,82.61711437502527,,,,,,,,,,,,,,,,,,,,,,,,,,,,,,,,,,,,,,,,,,,,,82.59456087500439,82.61711437502527,82.61711437502527,82.61711437502527,82.61711437502527,82.61096824967923,82.61711437502527,82.61711437502527,84.04174100002274,Correct! صحیح است,1,1.4182285830029286,None,8,0,84.04564662501798,84.05710733300657,86.04207991602016,86.07008970802417,,,,,,001341,001,2024-06-26_11h47.20.642,5-18,2024.1.4,None,2024-06-26 11h47.25.264640 +0900,
Images/Speaker1.jpg,Images/Speaker2.jpg,Images/Speaker3.jpg,Images/Speaker4.jpg,Audio/Speaker1_Per/P1-6-Per.wav,Speaker1,گوینده ۱,0,9,9,5,,,,,,,,,86.07008970802417,,,,,,,,,,,,,,,,,,,,,,,,,,,,,,,,,,,,,,,,,,,,,86.04265695801587,86.07008970802417,86.07008970802417,86.07008970802417,86.07008970802417,86.07450016635315,86.07008970802417,86.07008970802417,87.13650629101903,Correct! صحیح است,1,1.0653675409848802,None,9,0,87.14064500000677,87.15205758300726,89.13535608301754,89.15817541599972,,,,,,001341,001,2024-06-26_11h47.20.642,5-18,2024.1.4,None,2024-06-26 11h47.25.264640 +0900,
Images/Speaker1.jpg,Images/Speaker2.jpg,Images/Speaker3.jpg,Images/Speaker4.jpg,Audio/Speaker2_Per/P2-12-Per.wav,Speaker2,گوینده۲,0,10,10,31,,,,,,,,,89.15817541599972,,,,,,,,,,,,,,,,,,,,,,,,,,,,,,,,,,,,,,,,,,,,,89.13555533302133,89.15817541599972,89.15817541599972,89.15817541599972,89.15817541599972,89.15182708268209,89.15817541599972,89.15817541599972,89.88573708300828,Correct! صحیح است,2,0.721655750006903,None,10,0,89.89071675000014,89.90343125001527,91.8909396660165,91.91409683300299,,,,,,001341,001,2024-06-26_11h47.20.642,5-18,2024.1.4,None,2024-06-26 11h47.25.264640 +0900,
Images/Speaker1.jpg,Images/Speaker2.jpg,Images/Speaker3.jpg,Images/Speaker4.jpg,Audio/Speaker4_Per/P4-1-Per.wav,Speaker4,گوینده۴,0,11,11,60,,,,,,,,,91.91409683300299,,,,,,,,,,,,,,,,,,,,,,,,,,,,,,,,,,,,,,,,,,,,,91.89113333300338,91.91409683300299,91.91409683300299,91.91409683300299,91.91409683300299,91.92399195835654,91.91409683300299,91.91409683300299,93.27383099999861,Correct! صحیح است,4,1.3567504170059692,None,11,0,93.27883708302397,93.29192058299668,95.27735787502024,95.3012705000001,,,,,,001341,001,2024-06-26_11h47.20.642,5-18,2024.1.4,None,2024-06-26 11h47.25.264640 +0900,
Images/Speaker1.jpg,Images/Speaker2.jpg,Images/Speaker3.jpg,Images/Speaker4.jpg,Audio/Speaker4_Per/P4-16-Per.wav,Speaker4,گوینده۴,0,12,12,75,,,,,,,,,95.3012705000001,,,,,,,,,,,,,,,,,,,,,,,,,,,,,,,,,,,,,,,,,,,,,95.27751975000137,95.3012705000001,95.3012705000001,95.3012705000001,95.3012705000001,95.3103633743381,95.3012705000001,95.3012705000001,96.72430770800565,Correct! صحیح است,4,1.4156164169835392,None,12,0,96.72853754099924,96.73783929101774,98.7250599580002,98.7492114159977,,,,,,001341,001,2024-06-26_11h47.20.642,5-18,2024.1.4,None,2024-06-26 11h47.25.264640 +0900,
Images/Speaker1.jpg,Images/Speaker2.jpg,Images/Speaker3.jpg,Images/Speaker4.jpg,Audio/Speaker3_Per/P3-8-Per.wav,Speaker3,گوینده۳,0,13,13,47,,,,,,,,,98.7492114159977,,,,,,,,,,,,,,,,,,,,,,,,,,,,,,,,,,,,,,,,,,,,,98.72524512500968,98.7492114159977,98.7492114159977,98.7492114159977,98.7492114159977,98.7581736243524,98.7492114159977,98.7492114159977,99.99558295801398,Correct! صحیح است,3,1.2407466669974383,None,13,0,99.99945483301417,100.01076558302157,101.99691462502233,102.02053995800088,,,,,,001341,001,2024-06-26_11h47.20.642,5-18,2024.1.4,None,2024-06-26 11h47.25.264640 +0900,
Images/Speaker1.jpg,Images/Speaker2.jpg,Images/Speaker3.jpg,Images/Speaker4.jpg,Audio/Speaker2_Per/P2-20-Per.wav,Speaker2,گوینده۲,0,14,14,39,,,,,,,,,102.02053995800088,,,,,,,,,,,,,,,,,,,,,,,,,,,,,,,,,,,,,,,,,,,,,101.99712924999767,102.02053995800088,102.02053995800088,102.02053995800088,102.02053995800088,102.03005008333324,102.02053995800088,102.02053995800088,103.06928916601464,Correct! صحیح است,2,1.0439313749957364,None,14,0,103.07354466599645,103.08482375001768,105.07366595801432,105.09683558301185,,,,,,001341,001,2024-06-26_11h47.20.642,5-18,2024.1.4,None,2024-06-26 11h47.25.264640 +0900,
Images/Speaker1.jpg,Images/Speaker2.jpg,Images/Speaker3.jpg,Images/Speaker4.jpg,Audio/Speaker2_Per/P2-9-Per.wav,Speaker2,گوینده۲,0,15,15,28,,,,,,,,,105.09683558301185,,,,,,,,,,,,,,,,,,,,,,,,,,,,,,,,,,,,,,,,,,,,,105.07382245801273,105.09683558301185,105.09683558301185,105.09683558301185,105.09683558301185,105.10677729134525,105.09683558301185,105.09683558301185,106.09971249999944,Correct! صحیح است,2,0.9971467920113355,None,15,0,106.10388779101777,106.11536879101186,108.09876604101737,108.12129679101054,,,,,,001341,001,2024-06-26_11h47.20.642,5-18,2024.1.4,None,2024-06-26 11h47.25.264640 +0900,
Images/Speaker1.jpg,Images/Speaker2.jpg,Images/Speaker3.jpg,Images/Speaker4.jpg,Audio/Speaker2_Per/P2-18-Per.wav,Speaker2,گوینده۲,0,16,16,37,,,,,,,,,108.12129679101054,,,,,,,,,,,,,,,,,,,,,,,,,,,,,,,,,,,,,,,,,,,,,108.09891829101252,108.12129679101054,108.12129679101054,108.12129679101054,108.12129679101054,108.11515383268512,108.12129679101054,108.12129679101054,109.19822229101555,Correct! صحیح است,2,1.0671720000100322,None,16,0,109.20231424999656,109.21402212500107,111.20119262501248,111.22886683300021,,,,,,001341,001,2024-06-26_11h47.20.642,5-18,2024.1.4,None,2024-06-26 11h47.25.264640 +0900,
Images/Speaker1.jpg,Images/Speaker2.jpg,Images/Speaker3.jpg,Images/Speaker4.jpg,Audio/Speaker1_Per/P1-10-Per.wav,Speaker1,گوینده ۱,0,17,17,9,,,,,,,,,111.22886683300021,,,,,,,,,,,,,,,,,,,,,,,,,,,,,,,,,,,,,,,,,,,,,111.2017385000072,111.22886683300021,111.22886683300021,111.22886683300021,111.22886683300021,111.2340879583576,111.22886683300021,111.22886683300021,112.60270329102059,Correct! صحیح است,1,1.3710727910220157,None,17,0,112.60702470800607,112.61823333302164,114.60637358302483,114.630086707999,,,,,,001341,001,2024-06-26_11h47.20.642,5-18,2024.1.4,None,2024-06-26 11h47.25.264640 +0900,
Images/Speaker1.jpg,Images/Speaker2.jpg,Images/Speaker3.jpg,Images/Speaker4.jpg,Audio/Speaker1_Per/P1-19-Per.wav,Speaker1,گوینده ۱,0,18,18,18,,,,,,,,,114.630086707999,,,,,,,,,,,,,,,,,,,,,,,,,,,,,,,,,,,,,,,,,,,,,114.60655758299981,114.630086707999,114.630086707999,114.630086707999,114.630086707999,114.63948537433365,114.630086707999,114.630086707999,115.94733383299899,Correct! صحیح است,1,1.3158970829972532,None,18,0,115.95105641600094,115.96401141601382,117.9496673750109,117.97446012499859,,,,,,001341,001,2024-06-26_11h47.20.642,5-18,2024.1.4,None,2024-06-26 11h47.25.264640 +0900,
Images/Speaker1.jpg,Images/Speaker2.jpg,Images/Speaker3.jpg,Images/Speaker4.jpg,Audio/Speaker3_Per/P3-7-Per.wav,Speaker3,گوینده۳,0,19,19,46,,,,,,,,,117.97446012499859,,,,,,,,,,,,,,,,,,,,,,,,,,,,,,,,,,,,,,,,,,,,,117.95022116601467,117.97446012499859,117.97446012499859,117.97446012499859,117.97446012499859,117.98205249934884,117.97446012499859,117.97446012499859,119.44849983300082,Correct! صحیح است,3,1.4724162920028903,None,19,0,119.45364225000958,119.46565300002112,121.45781491600792,,,,,,,001341,001,2024-06-26_11h47.20.642,5-18,2024.1.4,None,2024-06-26 11h47.25.264640 +0900,
Images/Speaker1.jpg,Images/Speaker2.jpg,Images/Speaker3.jpg,Images/Speaker4.jpg,Audio/Speaker3_Per/P3-10-Per.wav,Speaker3,گوینده۳,0,20,20,49,,,,,,,,,121.4831375000067,,,,,,,,,,,,,,,,,,,,,,,,,,,,,,,,,,,,,,,,,,,,,121.45852233300684,121.4831375000067,121.4831375000067,121.4831375000067,121.4831375000067,121.49100716634032,121.4831375000067,121.4831375000067,122.53632233300596,Correct! صحیح است,3,1.0422212080156896,None,20,0,122.54021183302393,122.55260220801574,124.53779237502022,124.56150075001642,,,,,,001341,001,2024-06-26_11h47.20.642,5-18,2024.1.4,None,2024-06-26 11h47.25.264640 +0900,
Images/Speaker1.jpg,Images/Speaker2.jpg,Images/Speaker3.jpg,Images/Speaker4.jpg,Audio/Speaker3_Per/P3-19-Per.wav,Speaker3,گوینده۳,0,21,21,58,,,,,,,,,124.56150075001642,,,,,,,,,,,,,,,,,,,,,,,,,,,,,,,,,,,,,,,,,,,,,124.53796275000786,124.56150075001642,124.56150075001642,124.56150075001642,124.56150075001642,124.5709072083487,124.56150075001642,124.56150075001642,125.53672066601575,Correct! صحیح است,3,0.9728521250071935,None,21,0,125.54081716600922,125.55250400002114,127.53525137499673,127.55980400001863,,,,,,001341,001,2024-06-26_11h47.20.642,5-18,2024.1.4,None,2024-06-26 11h47.25.264640 +0900,
Images/Speaker1.jpg,Images/Speaker2.jpg,Images/Speaker3.jpg,Images/Speaker4.jpg,Audio/Speaker2_Per/P2-14-Per.wav,Speaker2,گوینده۲,0,22,22,33,,,,,,,,,127.55980400001863,,,,,,,,,,,,,,,,,,,,,,,,,,,,,,,,,,,,,,,,,,,,,127.53542724999716,127.55980400001863,127.55980400001863,127.55980400001863,127.55980400001863,127.56838329134237,127.55980400001863,127.55980400001863,128.6961493330018,Correct! صحیح است,2,1.1286328340065666,None,22,0,128.70003675000044,128.71186825001496,130.69703429102083,130.72079800002393,,,,,,001341,001,2024-06-26_11h47.20.642,5-18,2024.1.4,None,2024-06-26 11h47.25.264640 +0900,
Images/Speaker1.jpg,Images/Speaker2.jpg,Images/Speaker3.jpg,Images/Speaker4.jpg,Audio/Speaker2_Per/P2-1-Per.wav,Speaker2,گوینده۲,0,23,23,20,,,,,,,,,130.72079800002393,,,,,,,,,,,,,,,,,,,,,,,,,,,,,,,,,,,,,,,,,,,,,130.69724999999744,130.72079800002393,130.72079800002393,130.72079800002393,130.72079800002393,130.73017108333494,130.72079800002393,130.72079800002393,132.08258200000273,Correct! صحیح است,2,1.358917667006608,None,23,0,132.08649166600662,132.0976352080179,134.0831558330101,134.10683491601958,,,,,,001341,001,2024-06-26_11h47.20.642,5-18,2024.1.4,None,2024-06-26 11h47.25.264640 +0900,
Images/Speaker1.jpg,Images/Speaker2.jpg,Images/Speaker3.jpg,Images/Speaker4.jpg,Audio/Speaker4_Per/P4-8-Per.wav,Speaker4,گوینده۴,0,24,24,67,,,,,,,,,134.10683491601958,,,,,,,,,,,,,,,,,,,,,,,,,,,,,,,,,,,,,,,,,,,,,134.08332720800536,134.10683491601958,134.10683491601958,134.10683491601958,134.10683491601958,134.1162029163466,134.10683491601958,134.10683491601958,135.3042260830116,Correct! صحیح است,4,1.1907405419915449,None,24,0,135.30841445800615,135.31915370799834,137.31669562502066,,,,,,,001341,001,2024-06-26_11h47.20.642,5-18,2024.1.4,None,2024-06-26 11h47.25.264640 +0900,
Images/Speaker1.jpg,Images/Speaker2.jpg,Images/Speaker3.jpg,Images/Speaker4.jpg,Audio/Speaker1_Per/P1-2-Per.wav,Speaker1,گوینده ۱,0,25,25,1,,,,,,,,,137.3408491660084,,,,,,,,,,,,,,,,,,,,,,,,,,,,,,,,,,,,,,,,,,,,,137.31738304102328,137.3408491660084,137.3408491660084,137.3408491660084,137.3408491660084,137.34984183335524,137.3408491660084,137.3408491660084,138.71927108301315,Correct! صحیح است,1,1.3647266250045504,None,25,0,138.72343629100942,138.7349726250104,140.71787312501692,140.74141633301042,,,,,,001341,001,2024-06-26_11h47.20.642,5-18,2024.1.4,None,2024-06-26 11h47.25.264640 +0900,
Images/Speaker1.jpg,Images/Speaker2.jpg,Images/Speaker3.jpg,Images/Speaker4.jpg,Audio/Speaker3_Per/P3-6-Per.wav,Speaker3,گوینده۳,0,26,26,45,,,,,,,,,140.74141633301042,,,,,,,,,,,,,,,,,,,,,,,,,,,,,,,,,,,,,,,,,,,,,140.71803791599814,140.74141633301042,140.74141633301042,140.74141633301042,140.74141633301042,140.7510029163464,140.74141633301042,140.74141633301042,143.6529043330229,Correct! صحیح است,3,2.9076010000135284,None,26,0,143.65687041601632,143.6688626250252,145.6539179579995,145.67752287501935,,,,,,001341,001,2024-06-26_11h47.20.642,5-18,2024.1.4,None,2024-06-26 11h47.25.264640 +0900,
Images/Speaker1.jpg,Images/Speaker2.jpg,Images/Speaker3.jpg,Images/Speaker4.jpg,Audio/Speaker3_Per/P3-4-Per.wav,Speaker3,گوینده۳,0,27,27,43,,,,,,,,,145.67752287501935,,,,,,,,,,,,,,,,,,,,,,,,,,,,,,,,,,,,,,,,,,,,,145.6540896250226,145.67752287501935,145.67752287501935,145.67752287501935,145.67752287501935,145.68695304133195,145.67752287501935,145.67752287501935,146.8286285409995,Correct! صحیح است,3,1.1478417920006905,None,27,0,146.83279750001384,146.84420358302305,148.82742183300434,148.8501085830212,,,,,,001341,001,2024-06-26_11h47.20.642,5-18,2024.1.4,None,2024-06-26 11h47.25.264640 +0900,
Images/Speaker1.jpg,Images/Speaker2.jpg,Images/Speaker3.jpg,Images/Speaker4.jpg,Audio/Speaker4_Per/P4-18-Per.wav,Speaker4,گوینده۴,0,28,28,77,,,,,,,,,148.8501085830212,,,,,,,,,,,,,,,,,,,,,,,,,,,,,,,,,,,,,,,,,,,,,148.82760958300787,148.8501085830212,148.8501085830212,148.8501085830212,148.8501085830212,148.84388687467825,148.8501085830212,148.8501085830212,149.98651129100472,Correct! صحیح است,4,1.1344441249966621,None,28,0,149.99058104099822,150.00198400000227,151.98742575000506,152.01184437502525,,,,,,001341,001,2024-06-26_11h47.20.642,5-18,2024.1.4,None,2024-06-26 11h47.25.264640 +0900,
Images/Speaker1.jpg,Images/Speaker2.jpg,Images/Speaker3.jpg,Images/Speaker4.jpg,Audio/Speaker2_Per/P2-2-Per.wav,Speaker2,گوینده۲,0,29,29,21,,,,,,,,,152.01184437502525,,,,,,,,,,,,,,,,,,,,,,,,,,,,,,,,,,,,,,,,,,,,,151.9876048330043,152.01184437502525,152.01184437502525,152.01184437502525,152.01184437502525,152.02048895834793,152.01184437502525,152.01184437502525,153.01411579101114,Correct! صحیح است,2,0.9954528750095051,None,29,0,153.01840100000845,153.02961870800937,155.02185304102022,,,,,,,001341,001,2024-06-26_11h47.20.642,5-18,2024.1.4,None,2024-06-26 11h47.25.264640 +0900,
Images/Speaker1.jpg,Images/Speaker2.jpg,Images/Speaker3.jpg,Images/Speaker4.jpg,Audio/Speaker2_Per/P2-8-Per.wav,Speaker2,گوینده۲,0,30,30,27,,,,,,,,,155.0457824160112,,,,,,,,,,,,,,,,,,,,,,,,,,,,,,,,,,,,,,,,,,,,,155.02204412501305,155.0457824160112,155.0457824160112,155.0457824160112,155.0457824160112,155.05514883335178,155.0457824160112,155.0457824160112,156.01987775001908,Correct! صحیح است,2,0.9722214170033112,None,30,0,156.02378050002153,156.0349829159968,158.02450337502523,158.05021808302263,,,,,,001341,001,2024-06-26_11h47.20.642,5-18,2024.1.4,None,2024-06-26 11h47.25.264640 +0900,
Images/Speaker1.jpg,Images/Speaker2.jpg,Images/Speaker3.jpg,Images/Speaker4.jpg,Audio/Speaker3_Per/P3-15-Per.wav,Speaker3,گوینده۳,0,31,31,54,,,,,,,,,158.05021808302263,,,,,,,,,,,,,,,,,,,,,,,,,,,,,,,,,,,,,,,,,,,,,158.02503650001017,158.05021808302263,158.05021808302263,158.05021808302263,158.05021808302263,158.0569092913434,158.05021808302263,158.05021808302263,159.5422456250235,Correct! صحیح است,3,1.487159584008623,None,31,0,159.54698208300397,159.56041479101987,161.5484434160171,,,,,,,001341,001,2024-06-26_11h47.20.642,5-18,2024.1.4,None,2024-06-26 11h47.25.264640 +0900,
Images/Speaker1.jpg,Images/Speaker2.jpg,Images/Speaker3.jpg,Images/Speaker4.jpg,Audio/Speaker4_Per/P4-13-Per.wav,Speaker4,گوینده۴,0,32,32,72,,,,,,,,,161.5722934580117,,,,,,,,,,,,,,,,,,,,,,,,,,,,,,,,,,,,,,,,,,,,,161.54861204102053,161.5722934580117,161.5722934580117,161.5722934580117,161.5722934580117,161.58173870834486,161.5722934580117,161.5722934580117,163.0889027500234,Correct! صحیح است,4,1.5138700420211535,None,32,0,163.0928800830152,163.10463887499645,165.09287879100884,165.1169091660122,,,,,,001341,001,2024-06-26_11h47.20.642,5-18,2024.1.4,None,2024-06-26 11h47.25.264640 +0900,
Images/Speaker1.jpg,Images/Speaker2.jpg,Images/Speaker3.jpg,Images/Speaker4.jpg,Audio/Speaker1_Per/P1-15-Per.wav,Speaker1,گوینده ۱,0,33,33,14,,,,,,,,,165.1169091660122,,,,,,,,,,,,,,,,,,,,,,,,,,,,,,,,,,,,,,,,,,,,,165.093072165997,165.1169091660122,165.1169091660122,165.1169091660122,165.1169091660122,165.12587674934963,165.1169091660122,165.1169091660122,166.65153041601297,Correct! صحیح است,1,1.5262601670110598,None,33,0,166.6560458750173,166.66767841600813,168.65208820800763,168.67542050001794,,,,,,001341,001,2024-06-26_11h47.20.642,5-18,2024.1.4,None,2024-06-26 11h47.25.264640 +0900,
Images/Speaker1.jpg,Images/Speaker2.jpg,Images/Speaker3.jpg,Images/Speaker4.jpg,Audio/Speaker3_Per/P3-5-Per.wav,Speaker3,گوینده۳,0,34,34,44,,,,,,,,,168.67542050001794,,,,,,,,,,,,,,,,,,,,,,,,,,,,,,,,,,,,,,,,,,,,,168.6522487080074,168.67542050001794,168.67542050001794,168.67542050001794,168.67542050001794,168.68522604133665,168.67542050001794,168.67542050001794,170.32788966601947,Correct! صحیح است,3,1.6482805000268854,None,34,0,170.33167208300438,170.34312966599828,172.3346893750131,,,,,,,001341,001,2024-06-26_11h47.20.642,5-18,2024.1.4,None,2024-06-26 11h47.25.264640 +0900,
Images/Speaker1.jpg,Images/Speaker2.jpg,Images/Speaker3.jpg,Images/Speaker4.jpg,Audio/Speaker3_Per/P3-12-Per.wav,Speaker3,گوینده۳,0,35,35,51,,,,,,,,,172.36074387500412,,,,,,,,,,,,,,,,,,,,,,,,,,,,,,,,,,,,,,,,,,,,,172.33531833300367,172.36074387500412,172.36074387500412,172.36074387500412,172.36074387500412,172.36786349933442,172.36074387500412,172.36074387500412,174.11319183302112,Correct! صحیح است,3,1.7465379160130396,None,35,0,174.11744166602148,174.1290169999993,176.11469716602005,176.13813566599856,,,,,,001341,001,2024-06-26_11h47.20.642,5-18,2024.1.4,None,2024-06-26 11h47.25.264640 +0900,
Images/Speaker1.jpg,Images/Speaker2.jpg,Images/Speaker3.jpg,Images/Speaker4.jpg,Audio/Speaker1_Per/P1-8-Per.wav,Speaker1,گوینده ۱,0,36,36,7,,,,,,,,,176.13813566599856,,,,,,,,,,,,,,,,,,,,,,,,,,,,,,,,,,,,,,,,,,,,,176.11485941600404,176.13813566599856,176.13813566599856,176.13813566599856,176.13813566599856,176.14774449935845,176.13813566599856,176.13813566599856,177.65559562502312,Correct! صحیح است,1,1.5134069580235519,None,36,0,177.65950070801773,177.67138470802456,179.65550687501673,179.67911866601207,,,,,,001341,001,2024-06-26_11h47.20.642,5-18,2024.1.4,None,2024-06-26 11h47.25.264640 +0900,
Images/Speaker1.jpg,Images/Speaker2.jpg,Images/Speaker3.jpg,Images/Speaker4.jpg,Audio/Speaker4_Per/P4-6-Per.wav,Speaker4,گوینده۴,0,37,37,65,,,,,,,,,179.67911866601207,,,,,,,,,,,,,,,,,,,,,,,,,,,,,,,,,,,,,,,,,,,,,179.65568645801977,179.67911866601207,179.67911866601207,179.67911866601207,179.67911866601207,179.68853658333734,179.67911866601207,179.67911866601207,180.95467533302144,Correct! صحیح است,4,1.2698777909972705,None,37,0,180.95869804100948,180.97022095799912,182.95536758302478,182.97913883300498,,,,,,001341,001,2024-06-26_11h47.20.642,5-18,2024.1.4,None,2024-06-26 11h47.25.264640 +0900,
Images/Speaker1.jpg,Images/Speaker2.jpg,Images/Speaker3.jpg,Images/Speaker4.jpg,Audio/Speaker1_Per/P1-11-Per.wav,Speaker1,گوینده ۱,0,38,38,10,,,,,,,,,182.97913883300498,,,,,,,,,,,,,,,,,,,,,,,,,,,,,,,,,,,,,,,,,,,,,182.95553829101846,182.97913883300498,182.97913883300498,182.97913883300498,182.97913883300498,182.98847174933377,182.97913883300498,182.97913883300498,184.09137766601634,Correct! صحیح است,1,1.1047100000141654,None,38,0,184.09552329100552,184.10433312499663,186.09034008299932,186.1155096250004,,,,,,001341,001,2024-06-26_11h47.20.642,5-18,2024.1.4,None,2024-06-26 11h47.25.264640 +0900,
Images/Speaker1.jpg,Images/Speaker2.jpg,Images/Speaker3.jpg,Images/Speaker4.jpg,Audio/Speaker3_Per/P3-9-Per.wav,Speaker3,گوینده۳,0,39,39,48,,,,,,,,,186.1155096250004,,,,,,,,,,,,,,,,,,,,,,,,,,,,,,,,,,,,,,,,,,,,,186.09051379101584,186.1155096250004,186.1155096250004,186.1155096250004,186.1155096250004,186.123406499341,186.1155096250004,186.1155096250004,187.54803170802188,Correct! صحیح است,3,1.4294877079955768,None,39,0,187.5523815000197,187.56384508300107,189.55180920800194,189.57464108301792,,,,,,001341,001,2024-06-26_11h47.20.642,5-18,2024.1.4,None,2024-06-26 11h47.25.264640 +0900,
Images/Speaker1.jpg,Images/Speaker2.jpg,Images/Speaker3.jpg,Images/Speaker4.jpg,Audio/Speaker2_Per/P2-10-Per.wav,Speaker2,گوینده۲,0,40,40,29,,,,,,,,,189.57464108301792,,,,,,,,,,,,,,,,,,,,,,,,,,,,,,,,,,,,,,,,,,,,,189.55199129102402,189.57464108301792,189.57464108301792,189.57464108301792,189.57464108301792,189.58490070835302,189.57464108301792,189.57464108301792,190.53675212501548,Correct! صحیح است,2,0.960389000014402,None,40,0,190.5405299999984,190.55213987501338,192.5427765000204,,,,,,,001341,001,2024-06-26_11h47.20.642,5-18,2024.1.4,None,2024-06-26 11h47.25.264640 +0900,
Images/Speaker1.jpg,Images/Speaker2.jpg,Images/Speaker3.jpg,Images/Speaker4.jpg,Audio/Speaker3_Per/P3-14-Per.wav,Speaker3,گوینده۳,0,41,41,53,,,,,,,,,192.57085770802223,,,,,,,,,,,,,,,,,,,,,,,,,,,,,,,,,,,,,,,,,,,,,192.54339012500714,192.57085770802223,192.57085770802223,192.57085770802223,192.57085770802223,192.57594274933996,192.57085770802223,192.57085770802223,193.57883041602327,Correct! صحیح است,3,1.005171333992621,None,41,0,193.5830012500228,193.59475591601222,195.58424208301585,,,,,,,001341,001,2024-06-26_11h47.20.642,5-18,2024.1.4,None,2024-06-26 11h47.25.264640 +0900,
Images/Speaker1.jpg,Images/Speaker2.jpg,Images/Speaker3.jpg,Images/Speaker4.jpg,Audio/Speaker2_Per/P2-17-Per.wav,Speaker2,گوینده۲,0,42,42,36,,,,,,,,,195.60959591600113,,,,,,,,,,,,,,,,,,,,,,,,,,,,,,,,,,,,,,,,,,,,,195.58481820800807,195.60959591600113,195.60959591600113,195.60959591600113,195.60959591600113,195.6173990833418,195.60959591600113,195.60959591600113,196.77923945800285,Correct! صحیح است,2,1.168593874986982,None,42,0,196.7829656250251,196.7942696660175,198.78286970799672,198.80721395800356,,,,,,001341,001,2024-06-26_11h47.20.642,5-18,2024.1.4,None,2024-06-26 11h47.25.264640 +0900,
Images/Speaker1.jpg,Images/Speaker2.jpg,Images/Speaker3.jpg,Images/Speaker4.jpg,Audio/Speaker2_Per/P2-7-Per.wav,Speaker2,گوینده۲,0,43,43,26,,,,,,,,,198.80721395800356,,,,,,,,,,,,,,,,,,,,,,,,,,,,,,,,,,,,,,,,,,,,,198.78340420802124,198.80721395800356,198.80721395800356,198.80721395800356,198.80721395800356,198.81522908333187,198.80721395800356,198.80721395800356,199.85319541601348,Correct! صحیح است,2,1.0447280840016901,None,43,0,199.85741958301514,199.8687420830247,201.85930420801742,,,,,,,001341,001,2024-06-26_11h47.20.642,5-18,2024.1.4,None,2024-06-26 11h47.25.264640 +0900,
Images/Speaker1.jpg,Images/Speaker2.jpg,Images/Speaker3.jpg,Images/Speaker4.jpg,Audio/Speaker4_Per/P4-19-Per.wav,Speaker4,گوینده۴,0,44,44,78,,,,,,,,,201.8860428330081,,,,,,,,,,,,,,,,,,,,,,,,,,,,,,,,,,,,,,,,,,,,,201.85987470802502,201.8860428330081,201.8860428330081,201.8860428330081,201.8860428330081,201.89247949934412,201.8860428330081,201.8860428330081,203.12266204101616,Correct! صحیح است,4,1.2346672080166172,None,44,0,203.1276012500166,203.14031879100366,205.1236495830235,205.1491570000071,,,,,,001341,001,2024-06-26_11h47.20.642,5-18,2024.1.4,None,2024-06-26 11h47.25.264640 +0900,
Images/Speaker1.jpg,Images/Speaker2.jpg,Images/Speaker3.jpg,Images/Speaker4.jpg,Audio/Speaker3_Per/P3-3-Per.wav,Speaker3,گوینده۳,0,45,45,42,,,,,,,,,205.1491570000071,,,,,,,,,,,,,,,,,,,,,,,,,,,,,,,,,,,,,,,,,,,,,205.12437433301238,205.1491570000071,205.1491570000071,205.1491570000071,205.1491570000071,205.1561764993317,205.1491570000071,205.1491570000071,206.09779887500918,Correct! صحیح است,3,0.9434363750042394,None,45,0,206.10183329100255,206.11306783300824,208.09694016599678,208.1199220000126,,,,,,001341,001,2024-06-26_11h47.20.642,5-18,2024.1.4,None,2024-06-26 11h47.25.264640 +0900,
Images/Speaker1.jpg,Images/Speaker2.jpg,Images/Speaker3.jpg,Images/Speaker4.jpg,Audio/Speaker4_Per/P4-3-Per.wav,Speaker4,گوینده۴,0,46,46,62,,,,,,,,,208.1199220000126,,,,,,,,,,,,,,,,,,,,,,,,,,,,,,,,,,,,,,,,,,,,,208.097123250016,208.1199220000126,208.1199220000126,208.1199220000126,208.1199220000126,208.13002770834333,208.1199220000126,208.1199220000126,209.3985795410117,Correct! صحیح است,4,1.2745510829845443,None,46,0,209.4024544999993,209.41352508301497,211.4020054580178,211.42790570799843,,,,,,001341,001,2024-06-26_11h47.20.642,5-18,2024.1.4,None,2024-06-26 11h47.25.264640 +0900,
Images/Speaker1.jpg,Images/Speaker2.jpg,Images/Speaker3.jpg,Images/Speaker4.jpg,Audio/Speaker4_Per/P4-4-Per.wav,Speaker4,گوینده۴,0,47,47,63,,,,,,,,,211.42790570799843,,,,,,,,,,,,,,,,,,,,,,,,,,,,,,,,,,,,,,,,,,,,,211.40299595802207,211.42790570799843,211.42790570799843,211.42790570799843,211.42790570799843,211.4343845413319,211.42790570799843,211.42790570799843,212.40309258300113,Correct! صحیح است,4,0.9723289580142591,None,47,0,212.40687337500276,212.41814587500994,214.4050074580009,214.42775095801335,,,,,,001341,001,2024-06-26_11h47.20.642,5-18,2024.1.4,None,2024-06-26 11h47.25.264640 +0900,
Images/Speaker1.jpg,Images/Speaker2.jpg,Images/Speaker3.jpg,Images/Speaker4.jpg,Audio/Speaker1_Per/P1-20-Per.wav,Speaker1,گوینده ۱,0,48,48,19,,,,,,,,,214.42775095801335,,,,,,,,,,,,,,,,,,,,,,,,,,,,,,,,,,,,,,,,,,,,,214.40519241601578,214.42775095801335,214.42775095801335,214.42775095801335,214.42775095801335,214.42139158267335,214.42775095801335,214.42775095801335,215.7232244159968,Correct! صحیح است,1,1.289337665977655,None,48,0,215.7281598749978,215.74095187502098,217.7273262500239,217.75142708301428,,,,,,001341,001,2024-06-26_11h47.20.642,5-18,2024.1.4,None,2024-06-26 11h47.25.264640 +0900,
Images/Speaker1.jpg,Images/Speaker2.jpg,Images/Speaker3.jpg,Images/Speaker4.jpg,Audio/Speaker1_Per/P1-9-Per.wav,Speaker1,گوینده ۱,0,49,49,8,,,,,,,,,217.75142708301428,,,,,,,,,,,,,,,,,,,,,,,,,,,,,,,,,,,,,,,,,,,,,217.72748987501836,217.75142708301428,217.75142708301428,217.75142708301428,217.75142708301428,217.76044745834275,217.75142708301428,217.75142708301428,219.1312294160016,Correct! صحیح است,1,1.373715458001243,None,49,0,219.13505450001685,219.14658341600443,221.1405848750146,,,,,,,001341,001,2024-06-26_11h47.20.642,5-18,2024.1.4,None,2024-06-26 11h47.25.264640 +0900,
Images/Speaker1.jpg,Images/Speaker2.jpg,Images/Speaker3.jpg,Images/Speaker4.jpg,Audio/Speaker3_Per/P3-2-Per.wav,Speaker3,گوینده۳,0,50,50,41,,,,,,,,,221.16592845800915,,,,,,,,,,,,,,,,,,,,,,,,,,,,,,,,,,,,,,,,,,,,,221.14123291600845,221.16592845800915,221.16592845800915,221.16592845800915,221.16592845800915,221.1737424583485,221.16592845800915,221.16592845800915,222.51382029100205,Correct! صحیح است,3,1.3442400839994662,None,50,0,222.51762487500673,222.5286582080007,224.51390099999844,224.5367101660231,,,,,,001341,001,2024-06-26_11h47.20.642,5-18,2024.1.4,None,2024-06-26 11h47.25.264640 +0900,
Images/Speaker1.jpg,Images/Speaker2.jpg,Images/Speaker3.jpg,Images/Speaker4.jpg,Audio/Speaker2_Per/P2-4-Per.wav,Speaker2,گوینده۲,0,51,51,23,,,,,,,,,224.5367101660231,,,,,,,,,,,,,,,,,,,,,,,,,,,,,,,,,,,,,,,,,,,,,224.514049874997,224.5367101660231,224.5367101660231,224.5367101660231,224.5367101660231,224.5303330826903,224.5367101660231,224.5367101660231,225.53563204102102,Correct! صحیح است,2,0.9955861250055023,None,51,0,225.53953112501767,225.55108000000473,227.53966679100995,227.564397500013,,,,,,001341,001,2024-06-26_11h47.20.642,5-18,2024.1.4,None,2024-06-26 11h47.25.264640 +0900,
Images/Speaker1.jpg,Images/Speaker2.jpg,Images/Speaker3.jpg,Images/Speaker4.jpg,Audio/Speaker4_Per/P4-2-Per.wav,Speaker4,گوینده۴,0,52,52,61,,,,,,,,,227.564397500013,,,,,,,,,,,,,,,,,,,,,,,,,,,,,,,,,,,,,,,,,,,,,227.53983991601854,227.564397500013,227.564397500013,227.564397500013,227.564397500013,227.57278062433085,227.564397500013,227.564397500013,228.54037362500094,Correct! صحیح است,4,0.9714775840111542,None,52,0,228.54415416601114,228.55551500001457,230.5418444579991,230.56555724999635,,,,,,001341,001,2024-06-26_11h47.20.642,5-18,2024.1.4,None,2024-06-26 11h47.25.264640 +0900,
Images/Speaker1.jpg,Images/Speaker2.jpg,Images/Speaker3.jpg,Images/Speaker4.jpg,Audio/Speaker4_Per/P4-12-Per.wav,Speaker4,گوینده۴,0,53,53,71,,,,,,,,,230.56555724999635,,,,,,,,,,,,,,,,,,,,,,,,,,,,,,,,,,,,,,,,,,,,,230.54236625001067,230.56555724999635,230.56555724999635,230.56555724999635,230.56555724999635,230.5742695413433,230.56555724999635,230.56555724999635,232.47264275001362,Correct! صحیح است,4,1.9047917500138283,None,53,0,232.47697154100752,232.48818641601247,234.47269508300815,234.49769779099734,,,,,,001341,001,2024-06-26_11h47.20.642,5-18,2024.1.4,None,2024-06-26 11h47.25.264640 +0900,
Images/Speaker1.jpg,Images/Speaker2.jpg,Images/Speaker3.jpg,Images/Speaker4.jpg,Audio/Speaker1_Per/P1-1-Per.wav,Speaker1,گوینده ۱,0,54,54,0,,,,,,,,,234.49769779099734,,,,,,,,,,,,,,,,,,,,,,,,,,,,,,,,,,,,,,,,,,,,,234.4728562910168,234.49769779099734,234.49769779099734,234.49769779099734,234.49769779099734,234.5057413743421,234.49769779099734,234.49769779099734,235.64514333300758,Correct! صحیح است,1,1.1449854579987004,None,54,0,235.64915958300116,235.66051812501973,237.6437126250239,237.66661787501653,,,,,,001341,001,2024-06-26_11h47.20.642,5-18,2024.1.4,None,2024-06-26 11h47.25.264640 +0900,
Images/Speaker1.jpg,Images/Speaker2.jpg,Images/Speaker3.jpg,Images/Speaker4.jpg,Audio/Speaker3_Per/P3-20-Per.wav,Speaker3,گوینده۳,0,55,55,59,,,,,,,,,237.66661787501653,,,,,,,,,,,,,,,,,,,,,,,,,,,,,,,,,,,,,,,,,,,,,237.64388133300235,237.66661787501653,237.66661787501653,237.66661787501653,237.66661787501653,237.66018424966413,237.66661787501653,237.66661787501653,239.19259333302034,Correct! صحیح است,3,1.5152759999909904,None,55,0,239.19637608301127,239.20783895801287,241.19356079099816,241.21971541602397,,,,,,001341,001,2024-06-26_11h47.20.642,5-18,2024.1.4,None,2024-06-26 11h47.25.264640 +0900,
Images/Speaker1.jpg,Images/Speaker2.jpg,Images/Speaker3.jpg,Images/Speaker4.jpg,Audio/Speaker1_Per/P1-7-Per.wav,Speaker1,گوینده ۱,0,56,56,6,,,,,,,,,241.21971541602397,,,,,,,,,,,,,,,,,,,,,,,,,,,,,,,,,,,,,,,,,,,,,241.19442912499653,241.21971541602397,241.21971541602397,241.21971541602397,241.21971541602397,241.22594874935072,241.21971541602397,241.21971541602397,242.27534941601334,Correct! صحیح است,1,1.0480397919891402,None,56,0,242.28048050001962,242.29284091602312,244.2852626250242,,,,,,,001341,001,2024-06-26_11h47.20.642,5-18,2024.1.4,None,2024-06-26 11h47.25.264640 +0900,
Images/Speaker1.jpg,Images/Speaker2.jpg,Images/Speaker3.jpg,Images/Speaker4.jpg,Audio/Speaker3_Per/P3-11-Per.wav,Speaker3,گوینده۳,0,57,57,50,,,,,,,,,244.31149545800872,,,,,,,,,,,,,,,,,,,,,,,,,,,,,,,,,,,,,,,,,,,,,244.2859425409988,244.31149545800872,244.31149545800872,244.31149545800872,244.31149545800872,244.318423166355,244.31149545800872,244.31149545800872,245.92425725000794,Correct! صحیح است,3,1.6056736660248134,None,57,0,245.9282947910251,245.93982841601246,247.9246076660056,247.94875558299827,,,,,,001341,001,2024-06-26_11h47.20.642,5-18,2024.1.4,None,2024-06-26 11h47.25.264640 +0900,
Images/Speaker1.jpg,Images/Speaker2.jpg,Images/Speaker3.jpg,Images/Speaker4.jpg,Audio/Speaker2_Per/P2-11-Per.wav,Speaker2,گوینده۲,0,58,58,30,,,,,,,,,247.94875558299827,,,,,,,,,,,,,,,,,,,,,,,,,,,,,,,,,,,,,,,,,,,,,247.92508225000347,247.94875558299827,247.94875558299827,247.94875558299827,247.94875558299827,247.95741804134065,247.94875558299827,247.94875558299827,249.06295449999743,Correct! صحیح است,2,1.1117783329973463,None,58,0,249.066777791013,249.07834770801128,251.07384795800317,,,,,,,001341,001,2024-06-26_11h47.20.642,5-18,2024.1.4,None,2024-06-26 11h47.25.264640 +0900,
Images/Speaker1.jpg,Images/Speaker2.jpg,Images/Speaker3.jpg,Images/Speaker4.jpg,Audio/Speaker4_Per/P4-10-Per.wav,Speaker4,گوینده۴,0,59,59,69,,,,,,,,,251.10091108302004,,,,,,,,,,,,,,,,,,,,,,,,,,,,,,,,,,,,,,,,,,,,,251.07450475002406,251.10091108302004,251.10091108302004,251.10091108302004,251.10091108302004,251.10700279134522,251.10091108302004,251.10091108302004,254.13202479100437,Correct! صحیح است,4,3.0283324999909382,None,59,0,254.13232804101426,254.1439709160186,256.1329595410207,,,,,,,001341,001,2024-06-26_11h47.20.642,5-18,2024.1.4,None,2024-06-26 11h47.25.264640 +0900,
Images/Speaker1.jpg,Images/Speaker2.jpg,Images/Speaker3.jpg,Images/Speaker4.jpg,Audio/Speaker1_Per/P1-13-Per.wav,Speaker1,گوینده ۱,0,60,60,12,,,,,,,,,256.1585305830231,,,,,,,,,,,,,,,,,,,,,,,,,,,,,,,,,,,,,,,,,,,,,256.13358937500743,256.1585305830231,256.1585305830231,256.1585305830231,256.1585305830231,256.1661112913357,256.1585305830231,256.1585305830231,257.36774212500313,Correct! صحیح است,1,1.2009081670257729,None,60,0,257.37180412502494,257.3831885000109,259.3691189160163,259.3920698330039,,,,,,001341,001,2024-06-26_11h47.20.642,5-18,2024.1.4,None,2024-06-26 11h47.25.264640 +0900,
Images/Speaker1.jpg,Images/Speaker2.jpg,Images/Speaker3.jpg,Images/Speaker4.jpg,Audio/Speaker2_Per/P2-5-Per.wav,Speaker2,گوینده۲,0,61,61,24,,,,,,,,,259.3920698330039,,,,,,,,,,,,,,,,,,,,,,,,,,,,,,,,,,,,,,,,,,,,,259.3692983330111,259.3920698330039,259.3920698330039,259.3920698330039,259.3920698330039,259.38551391667374,259.3920698330039,259.3920698330039,260.9735139160184,Correct! صحیح است,2,1.5748455419961829,None,61,0,260.977447125013,260.98965000000317,262.9727501660236,262.99539404100506,,,,,,001341,001,2024-06-26_11h47.20.642,5-18,2024.1.4,None,2024-06-26 11h47.25.264640 +0900,
Images/Speaker1.jpg,Images/Speaker2.jpg,Images/Speaker3.jpg,Images/Speaker4.jpg,Audio/Speaker3_Per/P3-18-Per.wav,Speaker3,گوینده۳,0,62,62,57,,,,,,,,,262.99539404100506,,,,,,,,,,,,,,,,,,,,,,,,,,,,,,,,,,,,,,,,,,,,,262.9729019580118,262.99539404100506,262.99539404100506,262.99539404100506,262.99539404100506,262.98922233266444,262.99539404100506,262.99539404100506,264.47526945802383,Correct! صحیح است,3,1.4718921669991687,None,62,0,264.47961791601847,264.4911435000249,266.4849225410144,,,,,,,001341,001,2024-06-26_11h47.20.642,5-18,2024.1.4,None,2024-06-26 11h47.25.264640 +0900,
Images/Speaker1.jpg,Images/Speaker2.jpg,Images/Speaker3.jpg,Images/Speaker4.jpg,Audio/Speaker3_Per/P3-13-Per.wav,Speaker3,گوینده۳,0,63,63,52,,,,,,,,,266.5109390410071,,,,,,,,,,,,,,,,,,,,,,,,,,,,,,,,,,,,,,,,,,,,,266.4855552079971,266.5109390410071,266.5109390410071,266.5109390410071,266.5109390410071,266.51807554133893,266.5109390410071,266.5109390410071,267.8064958330069,Correct! صحیح است,3,1.284445749974111,None,63,0,267.81057533301646,267.82180745800724,269.80484854101087,269.8286602080043,,,,,,001341,001,2024-06-26_11h47.20.642,5-18,2024.1.4,None,2024-06-26 11h47.25.264640 +0900,
Images/Speaker1.jpg,Images/Speaker2.jpg,Images/Speaker3.jpg,Images/Speaker4.jpg,Audio/Speaker2_Per/P2-15-Per.wav,Speaker2,گوینده۲,0,64,64,34,,,,,,,,,269.8286602080043,,,,,,,,,,,,,,,,,,,,,,,,,,,,,,,,,,,,,,,,,,,,,269.8050357910106,269.8286602080043,269.8286602080043,269.8286602080043,269.8286602080043,269.8378249583552,269.8286602080043,269.8286602080043,271.15175716602243,Correct! صحیح است,2,1.3114405829983298,None,64,0,271.1559597910091,271.1678689160035,273.1561494580237,,,,,,,001341,001,2024-06-26_11h47.20.642,5-18,2024.1.4,None,2024-06-26 11h47.25.264640 +0900,
Images/Speaker1.jpg,Images/Speaker2.jpg,Images/Speaker3.jpg,Images/Speaker4.jpg,Audio/Speaker2_Per/P2-13-Per.wav,Speaker2,گوینده۲,0,65,65,32,,,,,,,,,273.17939862501225,,,,,,,,,,,,,,,,,,,,,,,,,,,,,,,,,,,,,,,,,,,,,273.156318125024,273.17939862501225,273.17939862501225,273.17939862501225,273.17939862501225,273.1894507913462,273.17939862501225,273.17939862501225,274.4236658330192,Correct! صحیح است,2,1.2416785000241362,None,65,0,274.42782687500585,274.43934295800864,276.4230018329981,276.4457923330192,,,,,,001341,001,2024-06-26_11h47.20.642,5-18,2024.1.4,None,2024-06-26 11h47.25.264640 +0900,
Images/Speaker1.jpg,Images/Speaker2.jpg,Images/Speaker3.jpg,Images/Speaker4.jpg,Audio/Speaker4_Per/P4-20-Per.wav,Speaker4,گوینده۴,0,66,66,79,,,,,,,,,276.4457923330192,,,,,,,,,,,,,,,,,,,,,,,,,,,,,,,,,,,,,,,,,,,,,276.4231647500128,276.4457923330192,276.4457923330192,276.4457923330192,276.4457923330192,276.4394606246826,276.4457923330192,276.4457923330192,277.66727787500713,Correct! صحیح است,4,1.2153770829900168,None,66,0,277.6715710830176,277.6832157910103,279.6685366250167,279.69392175000394,,,,,,001341,001,2024-06-26_11h47.20.642,5-18,2024.1.4,None,2024-06-26 11h47.25.264640 +0900,
Images/Speaker1.jpg,Images/Speaker2.jpg,Images/Speaker3.jpg,Images/Speaker4.jpg,Audio/Speaker3_Per/P3-1-Per.wav,Speaker3,گوینده۳,0,67,67,40,,,,,,,,,279.69392175000394,,,,,,,,,,,,,,,,,,,,,,,,,,,,,,,,,,,,,,,,,,,,,279.6694587500242,279.69392175000394,279.69392175000394,279.69392175000394,279.69392175000394,279.7010119163392,279.69392175000394,279.69392175000394,281.05773516601766,Correct! صحیح است,3,1.3569816249946598,None,67,0,281.0616061250039,281.07304275000934,283.05635416600853,283.0803581660148,,,,,,001341,001,2024-06-26_11h47.20.642,5-18,2024.1.4,None,2024-06-26 11h47.25.264640 +0900,
Images/Speaker1.jpg,Images/Speaker2.jpg,Images/Speaker3.jpg,Images/Speaker4.jpg,Audio/Speaker4_Per/P4-15-Per.wav,Speaker4,گوینده۴,0,68,68,74,,,,,,,,,283.0803581660148,,,,,,,,,,,,,,,,,,,,,,,,,,,,,,,,,,,,,,,,,,,,,283.05651841600775,283.0803581660148,283.0803581660148,283.0803581660148,283.0803581660148,283.08948416633257,283.0803581660148,283.0803581660148,284.5624511250062,Correct! صحیح است,4,1.479662833007751,None,68,0,284.5662818750134,284.57765162500436,286.56292887500604,286.5877175000205,,,,,,001341,001,2024-06-26_11h47.20.642,5-18,2024.1.4,None,2024-06-26 11h47.25.264640 +0900,
Images/Speaker1.jpg,Images/Speaker2.jpg,Images/Speaker3.jpg,Images/Speaker4.jpg,Audio/Speaker4_Per/P4-17-Per.wav,Speaker4,گوینده۴,0,69,69,76,,,,,,,,,286.5877175000205,,,,,,,,,,,,,,,,,,,,,,,,,,,,,,,,,,,,,,,,,,,,,286.5639087080199,286.5877175000205,286.5877175000205,286.5877175000205,286.5877175000205,286.59527212434523,286.5877175000205,286.5877175000205,288.1446780830156,Incorrect! The correct answer is Speaker4. نادرست! پاسخ صحیح گوینده۴ است,3,1.5547977499954868,None,68,0,288.14878833299736,288.1635230410029,290.15118450002046,,,,,,,001341,001,2024-06-26_11h47.20.642,5-18,2024.1.4,None,2024-06-26 11h47.25.264640 +0900,
Images/Speaker1.jpg,Images/Speaker2.jpg,Images/Speaker3.jpg,Images/Speaker4.jpg,Audio/Speaker1_Per/P1-3-Per.wav,Speaker1,گوینده ۱,0,70,70,2,,,,,,,,,290.1735502500087,,,,,,,,,,,,,,,,,,,,,,,,,,,,,,,,,,,,,,,,,,,,,290.15136200000416,290.1735502500087,290.1735502500087,290.1735502500087,290.1735502500087,290.1678056666899,290.1735502500087,290.1735502500087,291.51948954100953,Correct! صحیح است,1,1.342568082996877,None,69,0,291.52350825001486,291.5347437080054,293.51810041599674,293.542234499997,,,,,,001341,001,2024-06-26_11h47.20.642,5-18,2024.1.4,None,2024-06-26 11h47.25.264640 +0900,
Images/Speaker1.jpg,Images/Speaker2.jpg,Images/Speaker3.jpg,Images/Speaker4.jpg,Audio/Speaker4_Per/P4-14-Per.wav,Speaker4,گوینده۴,0,71,71,73,,,,,,,,,293.542234499997,,,,,,,,,,,,,,,,,,,,,,,,,,,,,,,,,,,,,,,,,,,,,293.5182911250158,293.542234499997,293.542234499997,293.542234499997,293.542234499997,293.55122470833203,293.542234499997,293.542234499997,295.12571262501297,Correct! صحیح است,4,1.5787096249987371,None,70,0,295.13064712501364,295.1444145000132,297.1310961660056,,,,,,,001341,001,2024-06-26_11h47.20.642,5-18,2024.1.4,None,2024-06-26 11h47.25.264640 +0900,
Images/Speaker1.jpg,Images/Speaker2.jpg,Images/Speaker3.jpg,Images/Speaker4.jpg,Audio/Speaker4_Per/P4-9-Per.wav,Speaker4,گوینده۴,0,72,72,68,,,,,,,,,297.15717395802494,,,,,,,,,,,,,,,,,,,,,,,,,,,,,,,,,,,,,,,,,,,,,297.1316694999987,297.15717395802494,297.15717395802494,297.15717395802494,297.15717395802494,297.16427754134247,297.15717395802494,297.15717395802494,300.83995612501167,Correct! صحیح است,4,3.6798601250047795,None,71,0,300.8401599159988,300.8517455830006,302.83562012499897,302.85855283300043,,,,,,001341,001,2024-06-26_11h47.20.642,5-18,2024.1.4,None,2024-06-26 11h47.25.264640 +0900,
Images/Speaker1.jpg,Images/Speaker2.jpg,Images/Speaker3.jpg,Images/Speaker4.jpg,Audio/Speaker1_Per/P1-18-Per.wav,Speaker1,گوینده ۱,0,73,73,17,,,,,,,,,302.85855283300043,,,,,,,,,,,,,,,,,,,,,,,,,,,,,,,,,,,,,,,,,,,,,302.83578837499954,302.85855283300043,302.85855283300043,302.85855283300043,302.85855283300043,302.85207254166403,302.85855283300043,302.85855283300043,304.80835787500837,Correct! صحیح است,1,1.9416642499854788,None,72,0,304.8123150410247,304.8215241660073,306.8099777500029,306.83534000001964,,,,,,001341,001,2024-06-26_11h47.20.642,5-18,2024.1.4,None,2024-06-26 11h47.25.264640 +0900,
Images/Speaker1.jpg,Images/Speaker2.jpg,Images/Speaker3.jpg,Images/Speaker4.jpg,Audio/Speaker1_Per/P1-4-Per.wav,Speaker1,گوینده ۱,0,74,74,13,,,,,,,,,306.83534000001964,,,,,,,,,,,,,,,,,,,,,,,,,,,,,,,,,,,,,,,,,,,,,306.8107950410049,306.83534000001964,306.83534000001964,306.83534000001964,306.83534000001964,306.8424796663535,306.83534000001964,306.83534000001964,308.97439112499706,Correct! صحیح است,1,2.1358014160068706,None,73,0,308.9786285410228,308.99027566600125,310.97409054101445,310.9975196660089,,,,,,001341,001,2024-06-26_11h47.20.642,5-18,2024.1.4,None,2024-06-26 11h47.25.264640 +0900,
Images/Speaker1.jpg,Images/Speaker2.jpg,Images/Speaker3.jpg,Images/Speaker4.jpg,Audio/Speaker2_Per/P2-19-Per.wav,Speaker2,گوینده۲,0,75,75,38,,,,,,,,,310.9975196660089,,,,,,,,,,,,,,,,,,,,,,,,,,,,,,,,,,,,,,,,,,,,,310.9742626660154,310.9975196660089,310.9975196660089,310.9975196660089,310.9975196660089,311.00715641634497,310.9975196660089,310.9975196660089,312.083107250015,Correct! صحیح است,2,1.0753502500010654,None,74,0,312.08831595801166,312.10049708301085,314.0859617080132,314.1126321250049,,,,,,001341,001,2024-06-26_11h47.20.642,5-18,2024.1.4,None,2024-06-26 11h47.25.264640 +0900,
Images/Speaker1.jpg,Images/Speaker2.jpg,Images/Speaker3.jpg,Images/Speaker4.jpg,Audio/Speaker2_Per/P2-16-Per.wav,Speaker2,گوینده۲,0,76,76,35,,,,,,,,,314.1126321250049,,,,,,,,,,,,,,,,,,,,,,,,,,,,,,,,,,,,,,,,,,,,,314.08688058302505,314.1126321250049,314.1126321250049,314.1126321250049,314.1126321250049,314.1183542493459,314.1126321250049,314.1126321250049,315.50082529100473,Correct! صحیح است,2,1.3798703330103308,None,75,0,315.50572458302486,315.5179632080253,317.5014975410013,317.5234919580107,,,,,,001341,001,2024-06-26_11h47.20.642,5-18,2024.1.4,None,2024-06-26 11h47.25.264640 +0900,
Images/Speaker1.jpg,Images/Speaker2.jpg,Images/Speaker3.jpg,Images/Speaker4.jpg,Audio/Speaker3_Per/P3-17-Per.wav,Speaker3,گوینده۳,0,77,77,56,,,,,,,,,317.5234919580107,,,,,,,,,,,,,,,,,,,,,,,,,,,,,,,,,,,,,,,,,,,,,317.50168383301934,317.5234919580107,317.5234919580107,317.5234919580107,317.5234919580107,317.5179302496874,317.5234919580107,317.5234919580107,319.45681275002426,Correct! صحیح است,3,1.9265086249797605,None,76,0,319.46114487500745,319.47265375001007,321.45674241601955,321.4803758750204,,,,,,001341,001,2024-06-26_11h47.20.642,5-18,2024.1.4,None,2024-06-26 11h47.25.264640 +0900,
Images/Speaker1.jpg,Images/Speaker2.jpg,Images/Speaker3.jpg,Images/Speaker4.jpg,Audio/Speaker4_Per/P4-11-Per.wav,Speaker4,گوینده۴,0,78,78,70,,,,,,,,,321.4803758750204,,,,,,,,,,,,,,,,,,,,,,,,,,,,,,,,,,,,,,,,,,,,,321.4569270830252,321.4803758750204,321.4803758750204,321.4803758750204,321.4803758750204,321.4897723333347,321.4803758750204,321.4803758750204,322.4442426660098,Correct! صحیح است,4,0.9604786250274628,None,77,0,322.4483759160212,322.46000070800073,324.44875629100716,,,,,,,001341,001,2024-06-26_11h47.20.642,5-18,2024.1.4,None,2024-06-26 11h47.25.264640 +0900,
Images/Speaker1.jpg,Images/Speaker2.jpg,Images/Speaker3.jpg,Images/Speaker4.jpg,Audio/Speaker3_Per/P3-16-Per.wav,Speaker3,گوینده۳,0,79,79,55,,,,,,,,,324.47087499999907,,,,,,,,,,,,,,,,,,,,,,,,,,,,,,,,,,,,,,,,,,,,,324.4489177080104,324.47087499999907,324.47087499999907,324.47087499999907,324.47087499999907,324.46538220768366,324.47087499999907,324.47087499999907,326.1054010410153,Correct! صحیح است,3,1.6316029169829562,None,78,0,326.1093870830082,326.12089237500913,328.1147097500216,,,,,,,001341,001,2024-06-26_11h47.20.642,5-18,2024.1.4,None,2024-06-26 11h47.25.264640 +0900,
,,,,,,,,,,,,,,,,,,,,,,,,,,,,,,,,,,,,,,,,,,,,,,,,,,,,,,,,,,,,,,,,,,,,,,,,,,,,,,,,,,,328.1516363330011,0,TrainingGroup1,328.1520011660177,,001341,001,2024-06-26_11h47.20.642,5-18,2024.1.4,None,2024-06-26 11h47.25.264640 +0900,
,,,,,,,,,,,,,,,,,,,,,,,,,,,,,,,,,,,,,,,,,,,,,,,,,,,,,,,,,,,,,,,,,,,,,,,,,,,,,,,,,,,,,,,328.15201741602505,,,,,,,,
