SpeakerImage1,SpeakerImage2,SpeakerImage3,SpeakerImage4,TrainingSound,EnglishCorrectAnswer,PersianCorrectAnswer,SpeakerPhoto1,SpeakerPhoto2,SpeakerPhoto3,SpeakerPhoto4,TestingSound,EnglishCorrectResponse,PersianCorrectResponse,TrainingLoopGroup1.thisRepN,TrainingLoopGroup1.thisTrialN,TrainingLoopGroup1.thisN,TrainingLoopGroup1.thisIndex,TrainingLoopGroup2.thisRepN,TrainingLoopGroup2.thisTrialN,TrainingLoopGroup2.thisN,TrainingLoopGroup2.thisIndex,TrainingLoopGroup3.thisRepN,TrainingLoopGroup3.thisTrialN,TrainingLoopGroup3.thisN,TrainingLoopGroup3.thisIndex,testPhase1Loop.thisRepN,testPhase1Loop.thisTrialN,testPhase1Loop.thisN,testPhase1Loop.thisIndex,testPhase2Loop.thisRepN,testPhase2Loop.thisTrialN,testPhase2Loop.thisN,testPhase2Loop.thisIndex,testPhase3Loop.thisRepN,testPhase3Loop.thisTrialN,testPhase3Loop.thisN,testPhase3Loop.thisIndex,thisRow.t,notes,trial.started,trial.stopped,GroupSelection.started,GroupInstructions.started,key_resp.started,GroupSelection.stopped,key_resp.keys,key_resp.rt,key_resp.duration,Introduction.started,text_2.started,image.started,sound_7.started,text_4.started,text_2.stopped,sound_8.started,image.stopped,text_4.stopped,image_7.started,sound_9.started,text_5.started,sound_10.started,image_7.stopped,text_5.stopped,image_8.started,sound_11.started,text_6.started,sound_12.started,image_8.stopped,text_6.stopped,image_9.started,sound_13.started,text_7.started,sound_14.started,image_9.stopped,text_7.stopped,Introduction.stopped,Instructions.started,InstructionText.started,InstructionText.stopped,Instructions.stopped,InitializeExperiment.started,InitializeExperiment.stopped,TrainingGroup3.started,SpeakerPicture3.started,image_15.started,image_16.started,image_17.started,Sound3.started,Instruction3.started,Response3.started,TrainingGroup3.stopped,feedbackText,Response3.keys,Response3.rt,Response3.duration,correct_responses_group3,total_trials_group3,FeedbackRoutine3.started,FeedbackText3.started,FeedbackText3.stopped,FeedbackRoutine3.stopped,CheckAccuracy.started,accuracy_group1,accuracy_group2,accuracy_group3,proceed_to_test,CheckAccuracy.stopped,WelcomeTest.started,text_12.started,text_12.stopped,WelcomeTest.stopped,TestPhase1.started,TestPhase1.stopped,test1_response_keyboard.keys,test1_response,test1_image_file1,test1_image_file2,test1_image_file3,test1_image_file4,test1_sound_file,english_correct_answer,persian_correct_answer,TestPhase2.started,TestPhase2.stopped,test2_response_keyboard.keys,test2_response,test2_image_file1,test2_image_file2,test2_image_file3,test2_image_file4,test2_sound_file,TestPhase3.started,TestPhase3.stopped,test3_response_keyboard.keys,test3_response,test3_image_file1,test3_image_file2,test3_image_file3,test3_image_file4,test3_sound_file,participant,session,date,expName,psychopyVersion,frameRate,expStart,
,,,,,,,,,,,,,,,,,,,,,,,,,,,,,,,,,,,,,,,,0.009466125000471948,0.013740333000896499,,,,,,,,,,,,,,,,,,,,,,,,,,,,,,,,,,,,,,,,,,,,,,,,,,,,,,,,,,,,,,,,,,,,,,,,,,,,,,,,,,,,,,,,,,,,,,,,,,,,002499,001,2024-06-30_16h34.41.052,5-24,2024.1.4,None,2024-06-30 16h34.46.520930 +0900,
,,,,,,,,,,,,,,,,,,,,,,,,,,,,,,,,,,,,,,,,,,0.013756125001236796,0.01962120800089906,0.01962120800089906,1.2748297080033808,3,1.2150610419994337,None,,,,,,,,,,,,,,,,,,,,,,,,,,,,,,,,,,,,,,,,,,,,,,,,,,,,,,,,,,,,,,,,,,,,,,,,,,,,,,,,,,,,,,,,,,,,,002499,001,2024-06-30_16h34.41.052,5-24,2024.1.4,None,2024-06-30 16h34.46.520930 +0900,
,,,,,,,,,,,,,,,,,,,,,,,,,,,,,,,,,,,,,,,,,,,,,,,,,1.2748502500035102,1.3387754580035107,6.275822333001997,6.283905833668784,6.275822333001997,6.335526500002743,11.284777249668211,16.27611304200036,16.27611304200036,16.27611304200036,16.284866041667797,16.27611304200036,21.280174708667133,26.27009279200138,26.27009279200138,26.27009279200138,26.28024983366801,26.27009279200138,31.282858083668785,36.26782616700075,36.26782616700075,36.275066542002605,36.284492833667414,36.275066542002605,41.28277429166725,46.27376308300154,46.27376308300154,46.26876104200346,,,,,,,,,,,,,,,,,,,,,,,,,,,,,,,,,,,,,,,,,,,,,,,,,,,,,,,,,,,,,,,,,002499,001,2024-06-30_16h34.41.052,5-24,2024.1.4,None,2024-06-30 16h34.46.520930 +0900,
,,,,,,,,,,,,,,,,,,,,,,,,,,,,,,,,,,,,,,,,,,,,,,,,,,,,,,,,,,,,,,,,,,,,,,,,,,,,,46.26883766700121,46.27376308300154,47.35282150000057,47.26783187500041,,,,,,,,,,,,,,,,,,,,,,,,,,,,,,,,,,,,,,,,,,,,,,,,,,,,,,,,,,,,,002499,001,2024-06-30_16h34.41.052,5-24,2024.1.4,None,2024-06-30 16h34.46.520930 +0900,
,,,,,,,,,,,,,,,,,,,,,,,,,,,,,,,,,,,,,,,,,,,,,,,,,,,,,,,,,,,,,,,,,,,,,,,,,,,,,,,,,47.26791425000192,47.26827475000027,,,,,,,,,,,,,,,,,,,,,,,,,,,,,,,,,,,,,,,,,,,,,,,,,,,,,,,,,,,002499,001,2024-06-30_16h34.41.052,5-24,2024.1.4,None,2024-06-30 16h34.46.520930 +0900,
Images/Speaker1.jpg,Images/Speaker2.jpg,Images/Speaker3.jpg,Images/Speaker4.jpg,Audio/Speaker1_En/P1-2-En.wav,Speaker1,گوینده ۱,,,,,,,,,,,,,,,,0,0,0,1,,,,,,,,,,,,,47.35282150000057,,,,,,,,,,,,,,,,,,,,,,,,,,,,,,,,,,,,,,,,,,,,,47.32499283300058,47.35282150000057,47.35282150000057,47.35282150000057,47.35282150000057,47.35019645833503,47.35282150000057,47.35282150000057,49.04497687500043,Correct! صحیح است,1,1.6872029160003876,None,0,1,49.04923237500043,49.06195495800057,51.072616042001755,51.0494249580006,,,,,,,,,,,,,,,,,,,,,,,,,,,,,,,,,,,,,,,,002499,001,2024-06-30_16h34.41.052,5-24,2024.1.4,None,2024-06-30 16h34.46.520930 +0900,
Images/Speaker1.jpg,Images/Speaker2.jpg,Images/Speaker3.jpg,Images/Speaker4.jpg,Audio/Speaker2_En/P2-18-En.wav,Speaker2,گوینده۲,,,,,,,,,,,,,,,,0,1,1,37,,,,,,,,,,,,,51.072616042001755,,,,,,,,,,,,,,,,,,,,,,,,,,,,,,,,,,,,,,,,,,,,,51.04957920800007,51.072616042001755,51.072616042001755,51.072616042001755,51.072616042001755,51.08248283333572,51.072616042001755,51.072616042001755,53.40749941700051,Incorrect! The correct answer is Speaker2. نادرست! پاسخ صحیح گوینده۲ است,1,2.332617374999245,None,0,2,53.41176916700351,53.43018575000315,,55.41513137500078,,,,,,,,,,,,,,,,,,,,,,,,,,,,,,,,,,,,,,,,002499,001,2024-06-30_16h34.41.052,5-24,2024.1.4,None,2024-06-30 16h34.46.520930 +0900,
Images/Speaker1.jpg,Images/Speaker2.jpg,Images/Speaker3.jpg,Images/Speaker4.jpg,Audio/Speaker3_En/P3-5-En.wav,Speaker3,گوینده۳,,,,,,,,,,,,,,,,0,2,2,44,,,,,,,,,,,,,55.439640874999895,,,,,,,,,,,,,,,,,,,,,,,,,,,,,,,,,,,,,,,,,,,,,55.41529341700152,55.439640874999895,55.439640874999895,55.439640874999895,55.439640874999895,55.44843050033572,55.439640874999895,55.439640874999895,55.708486042000004,Incorrect! The correct answer is Speaker3. نادرست! پاسخ صحیح گوینده۳ است,1,0.2677941660003853,None,0,3,55.71239004200106,55.72522970800128,57.73729929200272,57.70895958300025,,,,,,,,,,,,,,,,,,,,,,,,,,,,,,,,,,,,,,,,002499,001,2024-06-30_16h34.41.052,5-24,2024.1.4,None,2024-06-30 16h34.46.520930 +0900,
Images/Speaker1.jpg,Images/Speaker2.jpg,Images/Speaker3.jpg,Images/Speaker4.jpg,Audio/Speaker1_En/P1-11-En.wav,Speaker1,گوینده ۱,,,,,,,,,,,,,,,,0,3,3,10,,,,,,,,,,,,,57.73729929200272,,,,,,,,,,,,,,,,,,,,,,,,,,,,,,,,,,,,,,,,,,,,,57.70960300000297,57.73729929200272,57.73729929200272,57.73729929200272,57.73729929200272,57.741338958334865,57.73729929200272,57.73729929200272,57.948712542001886,Correct! صحیح است,1,0.20391925000149058,None,0,4,57.953004292001424,57.9643500830025,59.981958917000156,59.95285441700253,,,,,,,,,,,,,,,,,,,,,,,,,,,,,,,,,,,,,,,,002499,001,2024-06-30_16h34.41.052,5-24,2024.1.4,None,2024-06-30 16h34.46.520930 +0900,
Images/Speaker1.jpg,Images/Speaker2.jpg,Images/Speaker3.jpg,Images/Speaker4.jpg,Audio/Speaker1_En/P1-19-En.wav,Speaker1,گوینده ۱,,,,,,,,,,,,,,,,0,4,4,18,,,,,,,,,,,,,59.981958917000156,,,,,,,,,,,,,,,,,,,,,,,,,,,,,,,,,,,,,,,,,,,,,59.95374591700238,59.981958917000156,59.981958917000156,59.981958917000156,59.981958917000156,59.98536995833322,59.981958917000156,59.981958917000156,60.73778491700068,Correct! صحیح است,1,0.7475384999997914,None,0,5,60.741795667003316,60.75050308300342,62.75943012500284,62.736423292000836,,,,,,,,,,,,,,,,,,,,,,,,,,,,,,,,,,,,,,,,002499,001,2024-06-30_16h34.41.052,5-24,2024.1.4,None,2024-06-30 16h34.46.520930 +0900,
Images/Speaker1.jpg,Images/Speaker2.jpg,Images/Speaker3.jpg,Images/Speaker4.jpg,Audio/Speaker3_En/P3-6-En.wav,Speaker3,گوینده۳,,,,,,,,,,,,,,,,0,5,5,45,,,,,,,,,,,,,62.75943012500284,,,,,,,,,,,,,,,,,,,,,,,,,,,,,,,,,,,,,,,,,,,,,62.7366143750005,62.75943012500284,62.75943012500284,62.75943012500284,62.75943012500284,62.769465500336565,62.75943012500284,62.75943012500284,62.759965792,Incorrect! The correct answer is Speaker3. نادرست! پاسخ صحیح گوینده۳ است,1,2.6302884169999743,None,0,6,62.76017262500318,62.770294458001445,64.78124383300019,64.75463691700133,,,,,,,,,,,,,,,,,,,,,,,,,,,,,,,,,,,,,,,,002499,001,2024-06-30_16h34.41.052,5-24,2024.1.4,None,2024-06-30 16h34.46.520930 +0900,
Images/Speaker1.jpg,Images/Speaker2.jpg,Images/Speaker3.jpg,Images/Speaker4.jpg,Audio/Speaker4_En/P4-14-En.wav,Speaker4,گوینده۴,,,,,,,,,,,,,,,,0,6,6,73,,,,,,,,,,,,,64.78124383300019,,,,,,,,,,,,,,,,,,,,,,,,,,,,,,,,,,,,,,,,,,,,,64.75519291700039,64.78124383300019,64.78124383300019,64.78124383300019,64.78124383300019,64.78710025033482,64.78124383300019,64.78124383300019,64.85749670800215,Incorrect! The correct answer is Speaker4. نادرست! پاسخ صحیح گوینده۴ است,1,0.07511349999913364,None,0,7,64.8617724579999,64.87435633300265,,66.86957870800325,,,,,,,,,,,,,,,,,,,,,,,,,,,,,,,,,,,,,,,,002499,001,2024-06-30_16h34.41.052,5-24,2024.1.4,None,2024-06-30 16h34.46.520930 +0900,
Images/Speaker1.jpg,Images/Speaker2.jpg,Images/Speaker3.jpg,Images/Speaker4.jpg,Audio/Speaker4_En/P4-17-En.wav,Speaker4,گوینده۴,,,,,,,,,,,,,,,,0,7,7,76,,,,,,,,,,,,,66.892734750003,,,,,,,,,,,,,,,,,,,,,,,,,,,,,,,,,,,,,,,,,,,,,66.86973479200242,66.892734750003,66.892734750003,66.892734750003,66.892734750003,66.88621249966697,66.892734750003,66.892734750003,66.89330808300292,Incorrect! The correct answer is Speaker4. نادرست! پاسخ صحیح گوینده۴ است,1,1.9244682079988706,None,0,8,66.89363754200167,66.90421850000348,68.9131965000015,68.889762625,,,,,,,,,,,,,,,,,,,,,,,,,,,,,,,,,,,,,,,,002499,001,2024-06-30_16h34.41.052,5-24,2024.1.4,None,2024-06-30 16h34.46.520930 +0900,
Images/Speaker1.jpg,Images/Speaker2.jpg,Images/Speaker3.jpg,Images/Speaker4.jpg,Audio/Speaker4_En/P4-8-En.wav,Speaker4,گوینده۴,,,,,,,,,,,,,,,,0,8,8,67,,,,,,,,,,,,,68.9131965000015,,,,,,,,,,,,,,,,,,,,,,,,,,,,,,,,,,,,,,,,,,,,,68.88993854200089,68.9131965000015,68.9131965000015,68.9131965000015,68.9131965000015,68.92287816633373,68.9131965000015,68.9131965000015,68.91383891700025,Incorrect! The correct answer is Speaker4. نادرست! پاسخ صحیح گوینده۴ است,1,1.9464452079992043,None,0,9,68.9142821250025,68.92416737500025,70.93598462500086,70.9122345830001,,,,,,,,,,,,,,,,,,,,,,,,,,,,,,,,,,,,,,,,002499,001,2024-06-30_16h34.41.052,5-24,2024.1.4,None,2024-06-30 16h34.46.520930 +0900,
Images/Speaker1.jpg,Images/Speaker2.jpg,Images/Speaker3.jpg,Images/Speaker4.jpg,Audio/Speaker4_En/P4-5-En.wav,Speaker4,گوینده۴,,,,,,,,,,,,,,,,0,9,9,64,,,,,,,,,,,,,70.93598462500086,,,,,,,,,,,,,,,,,,,,,,,,,,,,,,,,,,,,,,,,,,,,,70.91275200000018,70.93598462500086,70.93598462500086,70.93598462500086,70.93598462500086,70.94465366633497,70.93598462500086,70.93598462500086,71.12950462500157,Incorrect! The correct answer is Speaker4. نادرست! پاسخ صحیح گوینده۴ است,1,0.18618087499999092,None,0,10,71.13370037500135,71.1436567080018,73.15189654200003,73.1275975000026,,,,,,,,,,,,,,,,,,,,,,,,,,,,,,,,,,,,,,,,002499,001,2024-06-30_16h34.41.052,5-24,2024.1.4,None,2024-06-30 16h34.46.520930 +0900,
Images/Speaker1.jpg,Images/Speaker2.jpg,Images/Speaker3.jpg,Images/Speaker4.jpg,Audio/Speaker4_En/P4-9-En.wav,Speaker4,گوینده۴,,,,,,,,,,,,,,,,0,10,10,68,,,,,,,,,,,,,73.15189654200003,,,,,,,,,,,,,,,,,,,,,,,,,,,,,,,,,,,,,,,,,,,,,73.12777691700103,73.15189654200003,73.15189654200003,73.15189654200003,73.15189654200003,73.16062300033494,73.15189654200003,73.15189654200003,73.48509645800004,Incorrect! The correct answer is Speaker4. نادرست! پاسخ صحیح گوینده۴ است,1,0.32291779200022575,None,0,11,73.48930516700057,73.49934225000106,75.50890529200115,75.48509000000195,,,,,,,,,,,,,,,,,,,,,,,,,,,,,,,,,,,,,,,,002499,001,2024-06-30_16h34.41.052,5-24,2024.1.4,None,2024-06-30 16h34.46.520930 +0900,
Images/Speaker1.jpg,Images/Speaker2.jpg,Images/Speaker3.jpg,Images/Speaker4.jpg,Audio/Speaker3_En/P3-1-En.wav,Speaker3,گوینده۳,,,,,,,,,,,,,,,,0,11,11,40,,,,,,,,,,,,,75.50890529200115,,,,,,,,,,,,,,,,,,,,,,,,,,,,,,,,,,,,,,,,,,,,,75.48526500000298,75.50890529200115,75.50890529200115,75.50890529200115,75.50890529200115,75.51818516633332,75.50890529200115,75.50890529200115,75.7036355420023,Incorrect! The correct answer is Speaker3. نادرست! پاسخ صحیح گوینده۳ است,1,0.18900045800182852,None,0,12,75.70778262500244,75.72070991700093,77.73080366700015,77.70636525000009,,,,,,,,,,,,,,,,,,,,,,,,,,,,,,,,,,,,,,,,002499,001,2024-06-30_16h34.41.052,5-24,2024.1.4,None,2024-06-30 16h34.46.520930 +0900,
Images/Speaker1.jpg,Images/Speaker2.jpg,Images/Speaker3.jpg,Images/Speaker4.jpg,Audio/Speaker2_En/P2-11-En.wav,Speaker2,گوینده۲,,,,,,,,,,,,,,,,0,12,12,30,,,,,,,,,,,,,77.73080366700015,,,,,,,,,,,,,,,,,,,,,,,,,,,,,,,,,,,,,,,,,,,,,77.70729062500322,77.73080366700015,77.73080366700015,77.73080366700015,77.73080366700015,77.73880395833524,77.73080366700015,77.73080366700015,77.92092162500194,Incorrect! The correct answer is Speaker2. نادرست! پاسخ صحیح گوینده۲ است,1,0.17959075000180746,None,0,13,77.92497112500132,77.93757425000149,,79.92748425000173,,,,,,,,,,,,,,,,,,,,,,,,,,,,,,,,,,,,,,,,002499,001,2024-06-30_16h34.41.052,5-24,2024.1.4,None,2024-06-30 16h34.46.520930 +0900,
Images/Speaker1.jpg,Images/Speaker2.jpg,Images/Speaker3.jpg,Images/Speaker4.jpg,Audio/Speaker1_En/P1-4-En.wav,Speaker1,گوینده ۱,,,,,,,,,,,,,,,,0,13,13,13,,,,,,,,,,,,,79.95373470800041,,,,,,,,,,,,,,,,,,,,,,,,,,,,,,,,,,,,,,,,,,,,,79.92798337500062,79.95373470800041,79.95373470800041,79.95373470800041,79.95373470800041,79.96067183333483,79.95373470800041,79.95373470800041,80.53729870800089,Correct! صحیح است,1,0.581354875001125,None,0,14,80.54126150000229,80.552429708001,82.55884820800202,82.53646516700246,,,,,,,,,,,,,,,,,,,,,,,,,,,,,,,,,,,,,,,,002499,001,2024-06-30_16h34.41.052,5-24,2024.1.4,None,2024-06-30 16h34.46.520930 +0900,
Images/Speaker1.jpg,Images/Speaker2.jpg,Images/Speaker3.jpg,Images/Speaker4.jpg,Audio/Speaker1_En/P1-18-En.wav,Speaker1,گوینده ۱,,,,,,,,,,,,,,,,0,14,14,17,,,,,,,,,,,,,82.55884820800202,,,,,,,,,,,,,,,,,,,,,,,,,,,,,,,,,,,,,,,,,,,,,82.53662279200216,82.55884820800202,82.55884820800202,82.55884820800202,82.55884820800202,82.55291458367016,82.55884820800202,82.55884820800202,82.65250333299991,Correct! صحیح است,1,0.08899250000104075,None,0,15,82.656562958,82.66752633300348,,84.66183295800147,,,,,,,,,,,,,,,,,,,,,,,,,,,,,,,,,,,,,,,,002499,001,2024-06-30_16h34.41.052,5-24,2024.1.4,None,2024-06-30 16h34.46.520930 +0900,
Images/Speaker1.jpg,Images/Speaker2.jpg,Images/Speaker3.jpg,Images/Speaker4.jpg,Audio/Speaker1_En/P1-7-En.wav,Speaker1,گوینده ۱,,,,,,,,,,,,,,,,0,15,15,6,,,,,,,,,,,,,84.68508708300214,,,,,,,,,,,,,,,,,,,,,,,,,,,,,,,,,,,,,,,,,,,,,84.66200616700007,84.68508708300214,84.68508708300214,84.68508708300214,84.68508708300214,84.69512879133666,84.68508708300214,84.68508708300214,85.40935941700081,Correct! صحیح است,1,0.7191342500009341,None,0,16,85.41345570800331,85.4250521670001,87.43875108300199,87.41256404200249,,,,,,,,,,,,,,,,,,,,,,,,,,,,,,,,,,,,,,,,002499,001,2024-06-30_16h34.41.052,5-24,2024.1.4,None,2024-06-30 16h34.46.520930 +0900,
Images/Speaker1.jpg,Images/Speaker2.jpg,Images/Speaker3.jpg,Images/Speaker4.jpg,Audio/Speaker4_En/P4-13-En.wav,Speaker4,گوینده۴,,,,,,,,,,,,,,,,0,16,16,72,,,,,,,,,,,,,87.43875108300199,,,,,,,,,,,,,,,,,,,,,,,,,,,,,,,,,,,,,,,,,,,,,87.41275837500143,87.43875108300199,87.43875108300199,87.43875108300199,87.43875108300199,87.42898520866972,87.43875108300199,87.43875108300199,87.43938595800137,Incorrect! The correct answer is Speaker4. نادرست! پاسخ صحیح گوینده۴ است,1,2.7416873750007653,None,0,17,87.4396705830004,87.4496054170013,89.4656005830002,89.43801558300038,,,,,,,,,,,,,,,,,,,,,,,,,,,,,,,,,,,,,,,,002499,001,2024-06-30_16h34.41.052,5-24,2024.1.4,None,2024-06-30 16h34.46.520930 +0900,
Images/Speaker1.jpg,Images/Speaker2.jpg,Images/Speaker3.jpg,Images/Speaker4.jpg,Audio/Speaker2_En/P2-8-En.wav,Speaker2,گوینده۲,,,,,,,,,,,,,,,,0,17,17,27,,,,,,,,,,,,,89.4656005830002,,,,,,,,,,,,,,,,,,,,,,,,,,,,,,,,,,,,,,,,,,,,,89.43869712500236,89.4656005830002,89.4656005830002,89.4656005830002,89.4656005830002,89.4704226253348,89.4656005830002,89.4656005830002,89.55376983300084,Incorrect! The correct answer is Speaker2. نادرست! پاسخ صحیح گوینده۲ است,1,0.079276625001512,None,0,18,89.55753000000186,89.57037116700303,91.5827671670013,91.55450708300123,,,,,,,,,,,,,,,,,,,,,,,,,,,,,,,,,,,,,,,,002499,001,2024-06-30_16h34.41.052,5-24,2024.1.4,None,2024-06-30 16h34.46.520930 +0900,
Images/Speaker1.jpg,Images/Speaker2.jpg,Images/Speaker3.jpg,Images/Speaker4.jpg,Audio/Speaker3_En/P3-2-En.wav,Speaker3,گوینده۳,,,,,,,,,,,,,,,,0,18,18,41,,,,,,,,,,,,,91.5827671670013,,,,,,,,,,,,,,,,,,,,,,,,,,,,,,,,,,,,,,,,,,,,,91.55505308300053,91.5827671670013,91.5827671670013,91.5827671670013,91.5827671670013,91.58692708333595,91.5827671670013,91.5827671670013,91.65287437500228,Incorrect! The correct answer is Speaker3. نادرست! پاسخ صحیح گوینده۳ است,1,0.058568417000060435,None,0,19,91.65661095800169,91.66873862500142,,93.65915220800161,,,,,,,,,,,,,,,,,,,,,,,,,,,,,,,,,,,,,,,,002499,001,2024-06-30_16h34.41.052,5-24,2024.1.4,None,2024-06-30 16h34.46.520930 +0900,
Images/Speaker1.jpg,Images/Speaker2.jpg,Images/Speaker3.jpg,Images/Speaker4.jpg,Audio/Speaker2_En/P2-4-En.wav,Speaker2,گوینده۲,,,,,,,,,,,,,,,,0,19,19,23,,,,,,,,,,,,,93.68308637500013,,,,,,,,,,,,,,,,,,,,,,,,,,,,,,,,,,,,,,,,,,,,,93.65933891700115,93.68308637500013,93.68308637500013,93.68308637500013,93.68308637500013,93.69244745833615,93.68308637500013,93.68308637500013,93.75373700000273,Incorrect! The correct answer is Speaker2. نادرست! پاسخ صحیح گوینده۲ است,1,0.06269774999964284,None,0,20,93.75784758300142,93.77049683299992,95.78504687500026,95.75711858300201,,,,,,,,,,,,,,,,,,,,,,,,,,,,,,,,,,,,,,,,002499,001,2024-06-30_16h34.41.052,5-24,2024.1.4,None,2024-06-30 16h34.46.520930 +0900,
Images/Speaker1.jpg,Images/Speaker2.jpg,Images/Speaker3.jpg,Images/Speaker4.jpg,Audio/Speaker4_En/P4-15-En.wav,Speaker4,گوینده۴,,,,,,,,,,,,,,,,0,20,20,74,,,,,,,,,,,,,95.78504687500026,,,,,,,,,,,,,,,,,,,,,,,,,,,,,,,,,,,,,,,,,,,,,95.75731208300203,95.78504687500026,95.78504687500026,95.78504687500026,95.78504687500026,95.79015029133419,95.78504687500026,95.78504687500026,95.78563266700075,Incorrect! The correct answer is Speaker4. نادرست! پاسخ صحیح گوینده۴ است,1,2.089778582998406,None,0,21,95.78595591700287,95.79548270800296,97.80413100000078,97.78129929200077,,,,,,,,,,,,,,,,,,,,,,,,,,,,,,,,,,,,,,,,002499,001,2024-06-30_16h34.41.052,5-24,2024.1.4,None,2024-06-30 16h34.46.520930 +0900,
Images/Speaker1.jpg,Images/Speaker2.jpg,Images/Speaker3.jpg,Images/Speaker4.jpg,Audio/Speaker2_En/P2-19-En.wav,Speaker2,گوینده۲,,,,,,,,,,,,,,,,0,21,21,38,,,,,,,,,,,,,97.80413100000078,,,,,,,,,,,,,,,,,,,,,,,,,,,,,,,,,,,,,,,,,,,,,97.78151308300221,97.80413100000078,97.80413100000078,97.80413100000078,97.80413100000078,97.7977598336695,97.80413100000078,97.80413100000078,97.94377845800045,Incorrect! The correct answer is Speaker2. نادرست! پاسخ صحیح گوینده۲ است,1,0.1348147919998155,None,0,22,97.94752850000077,97.96020450000287,,99.9526639579999,,,,,,,,,,,,,,,,,,,,,,,,,,,,,,,,,,,,,,,,002499,001,2024-06-30_16h34.41.052,5-24,2024.1.4,None,2024-06-30 16h34.46.520930 +0900,
Images/Speaker1.jpg,Images/Speaker2.jpg,Images/Speaker3.jpg,Images/Speaker4.jpg,Audio/Speaker1_En/P1-3-En.wav,Speaker1,گوینده ۱,,,,,,,,,,,,,,,,0,22,22,2,,,,,,,,,,,,,99.97889245800252,,,,,,,,,,,,,,,,,,,,,,,,,,,,,,,,,,,,,,,,,,,,,99.95317341700138,99.97889245800252,99.97889245800252,99.97889245800252,99.97889245800252,99.98584137533592,99.97889245800252,99.97889245800252,100.27951033300269,Correct! صحیح است,1,0.2960311660026491,None,0,23,100.28352404200268,100.29511608300163,102.30789558300239,102.28081474999999,,,,,,,,,,,,,,,,,,,,,,,,,,,,,,,,,,,,,,,,002499,001,2024-06-30_16h34.41.052,5-24,2024.1.4,None,2024-06-30 16h34.46.520930 +0900,
Images/Speaker1.jpg,Images/Speaker2.jpg,Images/Speaker3.jpg,Images/Speaker4.jpg,Audio/Speaker1_En/P1-13-En.wav,Speaker1,گوینده ۱,,,,,,,,,,,,,,,,0,23,23,12,,,,,,,,,,,,,102.30789558300239,,,,,,,,,,,,,,,,,,,,,,,,,,,,,,,,,,,,,,,,,,,,,102.28166529200098,102.30789558300239,102.30789558300239,102.30789558300239,102.30789558300239,102.31323583333554,102.30789558300239,102.30789558300239,102.47020091700324,Correct! صحیح است,1,0.1555217499990249,None,0,24,102.4741130830007,102.48535779200029,,104.47945141700256,,,,,,,,,,,,,,,,,,,,,,,,,,,,,,,,,,,,,,,,002499,001,2024-06-30_16h34.41.052,5-24,2024.1.4,None,2024-06-30 16h34.46.520930 +0900,
Images/Speaker1.jpg,Images/Speaker2.jpg,Images/Speaker3.jpg,Images/Speaker4.jpg,Audio/Speaker2_En/P2-15-En.wav,Speaker2,گوینده۲,,,,,,,,,,,,,,,,0,24,24,34,,,,,,,,,,,,,104.50296308300312,,,,,,,,,,,,,,,,,,,,,,,,,,,,,,,,,,,,,,,,,,,,,104.4796362920024,104.50296308300312,104.50296308300312,104.50296308300312,104.50296308300312,104.51274462533596,104.50296308300312,104.50296308300312,104.50355208300243,Incorrect! The correct answer is Speaker2. نادرست! پاسخ صحیح گوینده۲ است,1,2.156217583000398,None,0,25,104.50380470800155,104.51367608300279,,106.50420279200262,,,,,,,,,,,,,,,,,,,,,,,,,,,,,,,,,,,,,,,,002499,001,2024-06-30_16h34.41.052,5-24,2024.1.4,None,2024-06-30 16h34.46.520930 +0900,
Images/Speaker1.jpg,Images/Speaker2.jpg,Images/Speaker3.jpg,Images/Speaker4.jpg,Audio/Speaker2_En/P2-2-En.wav,Speaker2,گوینده۲,,,,,,,,,,,,,,,,0,25,25,21,,,,,,,,,,,,,106.53017229200123,,,,,,,,,,,,,,,,,,,,,,,,,,,,,,,,,,,,,,,,,,,,,106.50478133300203,106.53017229200123,106.53017229200123,106.53017229200123,106.53017229200123,106.53733766633425,106.53017229200123,106.53017229200123,106.65711679200103,Incorrect! The correct answer is Speaker2. نادرست! پاسخ صحیح گوینده۲ است,1,0.12265341599777457,None,0,26,106.66104575000281,106.67377112500253,,108.66254966700217,,,,,,,,,,,,,,,,,,,,,,,,,,,,,,,,,,,,,,,,002499,001,2024-06-30_16h34.41.052,5-24,2024.1.4,None,2024-06-30 16h34.46.520930 +0900,
Images/Speaker1.jpg,Images/Speaker2.jpg,Images/Speaker3.jpg,Images/Speaker4.jpg,Audio/Speaker3_En/P3-8-En.wav,Speaker3,گوینده۳,,,,,,,,,,,,,,,,0,26,26,47,,,,,,,,,,,,,108.68968091700299,,,,,,,,,,,,,,,,,,,,,,,,,,,,,,,,,,,,,,,,,,,,,108.66319591700085,108.68968091700299,108.68968091700299,108.68968091700299,108.68968091700299,108.69568758333529,108.68968091700299,108.68968091700299,109.10218566700132,Incorrect! The correct answer is Speaker3. نادرست! پاسخ صحیح گوینده۳ است,1,0.41087583400076255,None,0,27,109.1063603750008,109.11933741700341,111.1318334580028,111.10436745800325,,,,,,,,,,,,,,,,,,,,,,,,,,,,,,,,,,,,,,,,002499,001,2024-06-30_16h34.41.052,5-24,2024.1.4,None,2024-06-30 16h34.46.520930 +0900,
Images/Speaker1.jpg,Images/Speaker2.jpg,Images/Speaker3.jpg,Images/Speaker4.jpg,Audio/Speaker3_En/P3-13-En.wav,Speaker3,گوینده۳,,,,,,,,,,,,,,,,0,27,27,52,,,,,,,,,,,,,111.1318334580028,,,,,,,,,,,,,,,,,,,,,,,,,,,,,,,,,,,,,,,,,,,,,111.10489891700126,111.1318334580028,111.1318334580028,111.1318334580028,111.1318334580028,111.1366892503361,111.1318334580028,111.1318334580028,111.25464316700163,Incorrect! The correct answer is Speaker3. نادرست! پاسخ صحیح گوینده۳ است,1,0.11880783299784525,None,0,28,111.2588501670034,111.2712734170018,113.28517087500222,113.25816525000118,,,,,,,,,,,,,,,,,,,,,,,,,,,,,,,,,,,,,,,,002499,001,2024-06-30_16h34.41.052,5-24,2024.1.4,None,2024-06-30 16h34.46.520930 +0900,
Images/Speaker1.jpg,Images/Speaker2.jpg,Images/Speaker3.jpg,Images/Speaker4.jpg,Audio/Speaker4_En/P4-20-En.wav,Speaker4,گوینده۴,,,,,,,,,,,,,,,,0,28,28,79,,,,,,,,,,,,,113.28517087500222,,,,,,,,,,,,,,,,,,,,,,,,,,,,,,,,,,,,,,,,,,,,,113.25925837500108,113.28517087500222,113.28517087500222,113.28517087500222,113.28517087500222,113.29050070833594,113.28517087500222,113.28517087500222,113.29431000000113,Incorrect! The correct answer is Speaker4. نادرست! پاسخ صحیح گوینده۴ است,1,0.0010964169996441342,None,0,29,113.29855775000033,113.30858062500192,,115.29914954200285,,,,,,,,,,,,,,,,,,,,,,,,,,,,,,,,,,,,,,,,002499,001,2024-06-30_16h34.41.052,5-24,2024.1.4,None,2024-06-30 16h34.46.520930 +0900,
Images/Speaker1.jpg,Images/Speaker2.jpg,Images/Speaker3.jpg,Images/Speaker4.jpg,Audio/Speaker4_En/P4-18-En.wav,Speaker4,گوینده۴,,,,,,,,,,,,,,,,0,29,29,77,,,,,,,,,,,,,115.32429391700134,,,,,,,,,,,,,,,,,,,,,,,,,,,,,,,,,,,,,,,,,,,,,115.29988479200256,115.32429391700134,115.32429391700134,115.32429391700134,115.32429391700134,115.33233083333519,115.32429391700134,115.32429391700134,115.3955295420019,Incorrect! The correct answer is Speaker4. نادرست! پاسخ صحیح گوینده۴ است,1,0.0666164590002154,None,0,30,115.39951104200009,115.41167504200348,117.42395237500023,117.39968829200006,,,,,,,,,,,,,,,,,,,,,,,,,,,,,,,,,,,,,,,,002499,001,2024-06-30_16h34.41.052,5-24,2024.1.4,None,2024-06-30 16h34.46.520930 +0900,
Images/Speaker1.jpg,Images/Speaker2.jpg,Images/Speaker3.jpg,Images/Speaker4.jpg,Audio/Speaker2_En/P2-14-En.wav,Speaker2,گوینده۲,,,,,,,,,,,,,,,,0,30,30,33,,,,,,,,,,,,,117.42395237500023,,,,,,,,,,,,,,,,,,,,,,,,,,,,,,,,,,,,,,,,,,,,,117.39986620800119,117.42395237500023,117.42395237500023,117.42395237500023,117.42395237500023,117.43279604133616,117.42395237500023,117.42395237500023,117.711144375,Incorrect! The correct answer is Speaker2. نادرست! پاسخ صحیح گوینده۲ است,1,0.2775264160009101,None,0,31,117.71521095800199,117.72544679200291,,119.71544533300039,,,,,,,,,,,,,,,,,,,,,,,,,,,,,,,,,,,,,,,,002499,001,2024-06-30_16h34.41.052,5-24,2024.1.4,None,2024-06-30 16h34.46.520930 +0900,
Images/Speaker1.jpg,Images/Speaker2.jpg,Images/Speaker3.jpg,Images/Speaker4.jpg,Audio/Speaker2_En/P2-6-En.wav,Speaker2,گوینده۲,,,,,,,,,,,,,,,,0,31,31,25,,,,,,,,,,,,,119.73822375000236,,,,,,,,,,,,,,,,,,,,,,,,,,,,,,,,,,,,,,,,,,,,,119.71560520800267,119.73822375000236,119.73822375000236,119.73822375000236,119.73822375000236,119.73207712466707,119.73822375000236,119.73822375000236,120.18285745800313,Incorrect! The correct answer is Speaker2. نادرست! پاسخ صحیح گوینده۲ است,1,0.44200454199744854,None,0,32,120.18675991700002,120.19992258300044,,122.19297841700245,,,,,,,,,,,,,,,,,,,,,,,,,,,,,,,,,,,,,,,,002499,001,2024-06-30_16h34.41.052,5-24,2024.1.4,None,2024-06-30 16h34.46.520930 +0900,
Images/Speaker1.jpg,Images/Speaker2.jpg,Images/Speaker3.jpg,Images/Speaker4.jpg,Audio/Speaker1_En/P1-12-En.wav,Speaker1,گوینده ۱,,,,,,,,,,,,,,,,0,32,32,11,,,,,,,,,,,,,122.22038737500043,,,,,,,,,,,,,,,,,,,,,,,,,,,,,,,,,,,,,,,,,,,,,122.19357595800102,122.22038737500043,122.22038737500043,122.22038737500043,122.22038737500043,122.22614316633602,122.22038737500043,122.22038737500043,122.51534358300341,Correct! صحیح است,1,0.28965074999723583,None,0,33,122.51955441700193,122.53096154200102,124.54075425000337,124.51576204200319,,,,,,,,,,,,,,,,,,,,,,,,,,,,,,,,,,,,,,,,002499,001,2024-06-30_16h34.41.052,5-24,2024.1.4,None,2024-06-30 16h34.46.520930 +0900,
Images/Speaker1.jpg,Images/Speaker2.jpg,Images/Speaker3.jpg,Images/Speaker4.jpg,Audio/Speaker3_En/P3-11-En.wav,Speaker3,گوینده۳,,,,,,,,,,,,,,,,0,33,33,50,,,,,,,,,,,,,124.54075425000337,,,,,,,,,,,,,,,,,,,,,,,,,,,,,,,,,,,,,,,,,,,,,124.51651591700283,124.54075425000337,124.54075425000337,124.54075425000337,124.54075425000337,124.54831716633683,124.54075425000337,124.54075425000337,124.89906762500323,Incorrect! The correct answer is Speaker3. نادرست! پاسخ صحیح گوینده۳ است,1,0.3479618749988731,None,0,34,124.90302791700014,124.91581645800034,126.92691220800043,126.90148804199998,,,,,,,,,,,,,,,,,,,,,,,,,,,,,,,,,,,,,,,,002499,001,2024-06-30_16h34.41.052,5-24,2024.1.4,None,2024-06-30 16h34.46.520930 +0900,
Images/Speaker1.jpg,Images/Speaker2.jpg,Images/Speaker3.jpg,Images/Speaker4.jpg,Audio/Speaker1_En/P1-20-En.wav,Speaker1,گوینده ۱,,,,,,,,,,,,,,,,0,34,34,19,,,,,,,,,,,,,126.92691220800043,,,,,,,,,,,,,,,,,,,,,,,,,,,,,,,,,,,,,,,,,,,,,126.90168762500252,126.92691220800043,126.92691220800043,126.92691220800043,126.92691220800043,126.93449270833347,126.92691220800043,126.92691220800043,127.07035170800009,Correct! صحیح است,1,None,None,0,35,127.07435320800141,127.08345266700053,129.0912241670012,129.06766704200345,,,,,,,,,,,,,,,,,,,,,,,,,,,,,,,,,,,,,,,,002499,001,2024-06-30_16h34.41.052,5-24,2024.1.4,None,2024-06-30 16h34.46.520930 +0900,
Images/Speaker1.jpg,Images/Speaker2.jpg,Images/Speaker3.jpg,Images/Speaker4.jpg,Audio/Speaker4_En/P4-19-En.wav,Speaker4,گوینده۴,,,,,,,,,,,,,,,,0,35,35,78,,,,,,,,,,,,,129.0912241670012,,,,,,,,,,,,,,,,,,,,,,,,,,,,,,,,,,,,,,,,,,,,,129.067841125001,129.0912241670012,129.0912241670012,129.0912241670012,129.0912241670012,129.10079250033647,129.0912241670012,129.0912241670012,129.58819991700148,Incorrect! The correct answer is Speaker4. نادرست! پاسخ صحیح گوینده۴ است,1,0.48785762500119745,None,0,36,129.59211162500287,129.60249804200066,131.61271633300203,131.5897509580027,,,,,,,,,,,,,,,,,,,,,,,,,,,,,,,,,,,,,,,,002499,001,2024-06-30_16h34.41.052,5-24,2024.1.4,None,2024-06-30 16h34.46.520930 +0900,
Images/Speaker1.jpg,Images/Speaker2.jpg,Images/Speaker3.jpg,Images/Speaker4.jpg,Audio/Speaker3_En/P3-10-En.wav,Speaker3,گوینده۳,,,,,,,,,,,,,,,,0,36,36,49,,,,,,,,,,,,,131.61271633300203,,,,,,,,,,,,,,,,,,,,,,,,,,,,,,,,,,,,,,,,,,,,,131.58992991700143,131.61271633300203,131.61271633300203,131.61271633300203,131.61271633300203,131.62280491633334,131.61271633300203,131.61271633300203,131.79541504200097,Incorrect! The correct answer is Speaker3. نادرست! پاسخ صحیح گوینده۳ است,1,0.18042433400114533,None,0,37,131.79928850000215,131.81194466700254,,133.80838479200247,,,,,,,,,,,,,,,,,,,,,,,,,,,,,,,,,,,,,,,,002499,001,2024-06-30_16h34.41.052,5-24,2024.1.4,None,2024-06-30 16h34.46.520930 +0900,
Images/Speaker1.jpg,Images/Speaker2.jpg,Images/Speaker3.jpg,Images/Speaker4.jpg,Audio/Speaker2_En/P2-12-En.wav,Speaker2,گوینده۲,,,,,,,,,,,,,,,,0,37,37,31,,,,,,,,,,,,,133.83301204200325,,,,,,,,,,,,,,,,,,,,,,,,,,,,,,,,,,,,,,,,,,,,,133.80895795800097,133.83301204200325,133.83301204200325,133.83301204200325,133.83301204200325,133.8415080833334,133.83301204200325,133.83301204200325,134.3084271250009,Incorrect! The correct answer is Speaker2. نادرست! پاسخ صحیح گوینده۲ است,1,0.4727526660026342,None,0,38,134.3127450000029,134.32583658300064,,136.31473395800276,,,,,,,,,,,,,,,,,,,,,,,,,,,,,,,,,,,,,,,,002499,001,2024-06-30_16h34.41.052,5-24,2024.1.4,None,2024-06-30 16h34.46.520930 +0900,
Images/Speaker1.jpg,Images/Speaker2.jpg,Images/Speaker3.jpg,Images/Speaker4.jpg,Audio/Speaker4_En/P4-16-En.wav,Speaker4,گوینده۴,,,,,,,,,,,,,,,,0,38,38,75,,,,,,,,,,,,,136.33768841700294,,,,,,,,,,,,,,,,,,,,,,,,,,,,,,,,,,,,,,,,,,,,,136.31491412500327,136.33768841700294,136.33768841700294,136.33768841700294,136.33768841700294,136.3313537916695,136.33768841700294,136.33768841700294,136.51643633300046,Incorrect! The correct answer is Speaker4. نادرست! پاسخ صحیح گوینده۴ است,1,0.17208104199744412,None,0,39,136.52057120800237,136.5336081250025,138.5399630000029,138.51680612500058,,,,,,,,,,,,,,,,,,,,,,,,,,,,,,,,,,,,,,,,002499,001,2024-06-30_16h34.41.052,5-24,2024.1.4,None,2024-06-30 16h34.46.520930 +0900,
Images/Speaker1.jpg,Images/Speaker2.jpg,Images/Speaker3.jpg,Images/Speaker4.jpg,Audio/Speaker4_En/P4-11-En.wav,Speaker4,گوینده۴,,,,,,,,,,,,,,,,0,39,39,70,,,,,,,,,,,,,138.5399630000029,,,,,,,,,,,,,,,,,,,,,,,,,,,,,,,,,,,,,,,,,,,,,138.51698962500086,138.5399630000029,138.5399630000029,138.5399630000029,138.5399630000029,138.54984887533334,138.5399630000029,138.5399630000029,138.78245583300304,Incorrect! The correct answer is Speaker4. نادرست! پاسخ صحیح گوینده۴ است,1,0.24046066599839833,None,0,40,138.78713925000193,138.80122087500058,140.81029695800316,140.78685045800012,,,,,,,,,,,,,,,,,,,,,,,,,,,,,,,,,,,,,,,,002499,001,2024-06-30_16h34.41.052,5-24,2024.1.4,None,2024-06-30 16h34.46.520930 +0900,
Images/Speaker1.jpg,Images/Speaker2.jpg,Images/Speaker3.jpg,Images/Speaker4.jpg,Audio/Speaker3_En/P3-17-En.wav,Speaker3,گوینده۳,,,,,,,,,,,,,,,,0,40,40,56,,,,,,,,,,,,,140.81029695800316,,,,,,,,,,,,,,,,,,,,,,,,,,,,,,,,,,,,,,,,,,,,,140.7870611670005,140.81029695800316,140.81029695800316,140.81029695800316,140.81029695800316,140.81991195833376,140.81029695800316,140.81029695800316,141.31747008300226,Incorrect! The correct answer is Speaker3. نادرست! پاسخ صحیح گوینده۳ است,1,0.49980258399955346,None,0,41,141.32123750000028,141.3343375830009,143.3466354580014,143.31793583300168,,,,,,,,,,,,,,,,,,,,,,,,,,,,,,,,,,,,,,,,002499,001,2024-06-30_16h34.41.052,5-24,2024.1.4,None,2024-06-30 16h34.46.520930 +0900,
Images/Speaker1.jpg,Images/Speaker2.jpg,Images/Speaker3.jpg,Images/Speaker4.jpg,Audio/Speaker1_En/P1-15-En.wav,Speaker1,گوینده ۱,,,,,,,,,,,,,,,,0,41,41,14,,,,,,,,,,,,,143.3466354580014,,,,,,,,,,,,,,,,,,,,,,,,,,,,,,,,,,,,,,,,,,,,,143.31868795800256,143.3466354580014,143.3466354580014,143.3466354580014,143.3466354580014,143.35039095833469,143.3466354580014,143.3466354580014,144.06484554200142,Correct! صحیح است,1,0.7169708340006764,None,0,42,144.06875120800032,144.08002562500042,,146.07063133300107,,,,,,,,,,,,,,,,,,,,,,,,,,,,,,,,,,,,,,,,002499,001,2024-06-30_16h34.41.052,5-24,2024.1.4,None,2024-06-30 16h34.46.520930 +0900,
Images/Speaker1.jpg,Images/Speaker2.jpg,Images/Speaker3.jpg,Images/Speaker4.jpg,Audio/Speaker2_En/P2-16-En.wav,Speaker2,گوینده۲,,,,,,,,,,,,,,,,0,42,42,35,,,,,,,,,,,,,146.09343400000216,,,,,,,,,,,,,,,,,,,,,,,,,,,,,,,,,,,,,,,,,,,,,146.07081041700076,146.09343400000216,146.09343400000216,146.09343400000216,146.09343400000216,146.08725816667018,146.09343400000216,146.09343400000216,146.31109412500155,Incorrect! The correct answer is Speaker2. نادرست! پاسخ صحیح گوینده۲ است,1,0.2094485000015993,None,0,43,146.31499850000182,146.32551525000235,,148.31663500000286,,,,,,,,,,,,,,,,,,,,,,,,,,,,,,,,,,,,,,,,002499,001,2024-06-30_16h34.41.052,5-24,2024.1.4,None,2024-06-30 16h34.46.520930 +0900,
Images/Speaker1.jpg,Images/Speaker2.jpg,Images/Speaker3.jpg,Images/Speaker4.jpg,Audio/Speaker3_En/P3-14-En.wav,Speaker3,گوینده۳,,,,,,,,,,,,,,,,0,43,43,53,,,,,,,,,,,,,148.34581433300264,,,,,,,,,,,,,,,,,,,,,,,,,,,,,,,,,,,,,,,,,,,,,148.31725804200323,148.34581433300264,148.34581433300264,148.34581433300264,148.34581433300264,148.34975895833537,148.34581433300264,148.34581433300264,148.5913786250021,Incorrect! The correct answer is Speaker3. نادرست! پاسخ صحیح گوینده۳ است,1,0.2333842080006434,None,0,44,148.59529291700164,148.6079407080033,150.61732366700016,150.59493100000327,,,,,,,,,,,,,,,,,,,,,,,,,,,,,,,,,,,,,,,,002499,001,2024-06-30_16h34.41.052,5-24,2024.1.4,None,2024-06-30 16h34.46.520930 +0900,
Images/Speaker1.jpg,Images/Speaker2.jpg,Images/Speaker3.jpg,Images/Speaker4.jpg,Audio/Speaker4_En/P4-12-En.wav,Speaker4,گوینده۴,,,,,,,,,,,,,,,,0,44,44,71,,,,,,,,,,,,,150.61732366700016,,,,,,,,,,,,,,,,,,,,,,,,,,,,,,,,,,,,,,,,,,,,,150.59508841700153,150.61732366700016,150.61732366700016,150.61732366700016,150.61732366700016,150.61135333366863,150.61732366700016,150.61732366700016,150.61799741700088,Incorrect! The correct answer is Speaker4. نادرست! پاسخ صحیح گوینده۴ است,1,2.1722619160027534,None,0,45,150.62188362500092,150.6313923330017,152.64704679200076,152.620195917003,,,,,,,,,,,,,,,,,,,,,,,,,,,,,,,,,,,,,,,,002499,001,2024-06-30_16h34.41.052,5-24,2024.1.4,None,2024-06-30 16h34.46.520930 +0900,
Images/Speaker1.jpg,Images/Speaker2.jpg,Images/Speaker3.jpg,Images/Speaker4.jpg,Audio/Speaker4_En/P4-3-En.wav,Speaker4,گوینده۴,,,,,,,,,,,,,,,,0,45,45,62,,,,,,,,,,,,,152.64704679200076,,,,,,,,,,,,,,,,,,,,,,,,,,,,,,,,,,,,,,,,,,,,,152.62111545800144,152.64704679200076,152.64704679200076,152.64704679200076,152.64704679200076,152.65261616633558,152.64704679200076,152.64704679200076,152.8877633330012,Incorrect! The correct answer is Speaker4. نادرست! پاسخ صحیح گوینده۴ است,1,0.23828691599919694,None,0,46,152.89187366700207,152.90423525000006,,154.90055216700057,,,,,,,,,,,,,,,,,,,,,,,,,,,,,,,,,,,,,,,,002499,001,2024-06-30_16h34.41.052,5-24,2024.1.4,None,2024-06-30 16h34.46.520930 +0900,
Images/Speaker1.jpg,Images/Speaker2.jpg,Images/Speaker3.jpg,Images/Speaker4.jpg,Audio/Speaker4_En/P4-7-En.wav,Speaker4,گوینده۴,,,,,,,,,,,,,,,,0,46,46,66,,,,,,,,,,,,,154.92329695800072,,,,,,,,,,,,,,,,,,,,,,,,,,,,,,,,,,,,,,,,,,,,,154.9007627500032,154.92329695800072,154.92329695800072,154.92329695800072,154.92329695800072,154.91717558366898,154.92329695800072,154.92329695800072,154.9901826250025,Incorrect! The correct answer is Speaker4. نادرست! پاسخ صحیح گوینده۴ است,1,0.06592224999985774,None,0,47,154.99404725000204,155.00640116700015,157.01340970800084,156.98956954200185,,,,,,,,,,,,,,,,,,,,,,,,,,,,,,,,,,,,,,,,002499,001,2024-06-30_16h34.41.052,5-24,2024.1.4,None,2024-06-30 16h34.46.520930 +0900,
Images/Speaker1.jpg,Images/Speaker2.jpg,Images/Speaker3.jpg,Images/Speaker4.jpg,Audio/Speaker3_En/P3-9-En.wav,Speaker3,گوینده۳,,,,,,,,,,,,,,,,0,47,47,48,,,,,,,,,,,,,157.01340970800084,,,,,,,,,,,,,,,,,,,,,,,,,,,,,,,,,,,,,,,,,,,,,156.98975100000098,157.01340970800084,157.01340970800084,157.01340970800084,157.01340970800084,157.02260141633502,157.01340970800084,157.01340970800084,157.22517316700032,Incorrect! The correct answer is Speaker3. نادرست! پاسخ صحیح گوینده۳ است,1,0.19830779200128745,None,0,48,157.2290908750001,157.24162479200095,,159.23268120800276,,,,,,,,,,,,,,,,,,,,,,,,,,,,,,,,,,,,,,,,002499,001,2024-06-30_16h34.41.052,5-24,2024.1.4,None,2024-06-30 16h34.46.520930 +0900,
Images/Speaker1.jpg,Images/Speaker2.jpg,Images/Speaker3.jpg,Images/Speaker4.jpg,Audio/Speaker3_En/P3-20-En.wav,Speaker3,گوینده۳,,,,,,,,,,,,,,,,0,48,48,59,,,,,,,,,,,,,159.25754654200136,,,,,,,,,,,,,,,,,,,,,,,,,,,,,,,,,,,,,,,,,,,,,159.2334851250016,159.25754654200136,159.25754654200136,159.25754654200136,159.25754654200136,159.26585545833638,159.25754654200136,159.25754654200136,159.46749395799998,Incorrect! The correct answer is Speaker3. نادرست! پاسخ صحیح گوینده۳ است,1,None,None,0,49,159.47160762500062,159.48214858300344,161.49057916700258,161.46648441700017,,,,,,,,,,,,,,,,,,,,,,,,,,,,,,,,,,,,,,,,002499,001,2024-06-30_16h34.41.052,5-24,2024.1.4,None,2024-06-30 16h34.46.520930 +0900,
Images/Speaker1.jpg,Images/Speaker2.jpg,Images/Speaker3.jpg,Images/Speaker4.jpg,Audio/Speaker3_En/P3-3-En.wav,Speaker3,گوینده۳,,,,,,,,,,,,,,,,0,49,49,42,,,,,,,,,,,,,161.49057916700258,,,,,,,,,,,,,,,,,,,,,,,,,,,,,,,,,,,,,,,,,,,,,161.46700166700248,161.49057916700258,161.49057916700258,161.49057916700258,161.49057916700258,161.49848333333335,161.49057916700258,161.49057916700258,161.65839275000326,Incorrect! The correct answer is Speaker3. نادرست! پاسخ صحیح گوینده۳ است,1,0.16594574999908218,None,0,50,161.66254095800105,161.67509308300214,163.6839437080016,163.6592324580015,,,,,,,,,,,,,,,,,,,,,,,,,,,,,,,,,,,,,,,,002499,001,2024-06-30_16h34.41.052,5-24,2024.1.4,None,2024-06-30 16h34.46.520930 +0900,
Images/Speaker1.jpg,Images/Speaker2.jpg,Images/Speaker3.jpg,Images/Speaker4.jpg,Audio/Speaker1_En/P1-16-En.wav,Speaker1,گوینده ۱,,,,,,,,,,,,,,,,0,50,50,15,,,,,,,,,,,,,163.6839437080016,,,,,,,,,,,,,,,,,,,,,,,,,,,,,,,,,,,,,,,,,,,,,163.6594154580016,163.6839437080016,163.6839437080016,163.6839437080016,163.6839437080016,163.6922286253362,163.6839437080016,163.6839437080016,163.8812542500018,Correct! صحیح است,1,0.19627091599977575,None,0,51,163.88510133300224,163.8962145000005,165.91126345800149,165.88537675000043,,,,,,,,,,,,,,,,,,,,,,,,,,,,,,,,,,,,,,,,002499,001,2024-06-30_16h34.41.052,5-24,2024.1.4,None,2024-06-30 16h34.46.520930 +0900,
Images/Speaker1.jpg,Images/Speaker2.jpg,Images/Speaker3.jpg,Images/Speaker4.jpg,Audio/Speaker2_En/P2-13-En.wav,Speaker2,گوینده۲,,,,,,,,,,,,,,,,0,51,51,32,,,,,,,,,,,,,165.91126345800149,,,,,,,,,,,,,,,,,,,,,,,,,,,,,,,,,,,,,,,,,,,,,165.88627304200054,165.91126345800149,165.91126345800149,165.91126345800149,165.91126345800149,165.91775087533512,165.91126345800149,165.91126345800149,166.0215855830029,Incorrect! The correct answer is Speaker2. نادرست! پاسخ صحیح گوینده۲ است,1,0.10335854100048891,None,0,52,166.025662,166.03621462500087,168.05096208300165,168.02421479200348,,,,,,,,,,,,,,,,,,,,,,,,,,,,,,,,,,,,,,,,002499,001,2024-06-30_16h34.41.052,5-24,2024.1.4,None,2024-06-30 16h34.46.520930 +0900,
Images/Speaker1.jpg,Images/Speaker2.jpg,Images/Speaker3.jpg,Images/Speaker4.jpg,Audio/Speaker4_En/P4-10-En.wav,Speaker4,گوینده۴,,,,,,,,,,,,,,,,0,52,52,69,,,,,,,,,,,,,168.05096208300165,,,,,,,,,,,,,,,,,,,,,,,,,,,,,,,,,,,,,,,,,,,,,168.02531400000225,168.05096208300165,168.05096208300165,168.05096208300165,168.05096208300165,168.05652675033394,168.05096208300165,168.05096208300165,168.42020854200018,Incorrect! The correct answer is Speaker4. نادرست! پاسخ صحیح گوینده۴ است,1,0.362451291999605,None,0,53,168.42416804200184,168.4378153329999,,170.43279691700081,,,,,,,,,,,,,,,,,,,,,,,,,,,,,,,,,,,,,,,,002499,001,2024-06-30_16h34.41.052,5-24,2024.1.4,None,2024-06-30 16h34.46.520930 +0900,
Images/Speaker1.jpg,Images/Speaker2.jpg,Images/Speaker3.jpg,Images/Speaker4.jpg,Audio/Speaker2_En/P2-20-En.wav,Speaker2,گوینده۲,,,,,,,,,,,,,,,,0,53,53,39,,,,,,,,,,,,,170.45804883300298,,,,,,,,,,,,,,,,,,,,,,,,,,,,,,,,,,,,,,,,,,,,,170.43296487500265,170.45804883300298,170.45804883300298,170.45804883300298,170.45804883300298,170.46608750033607,170.45804883300298,170.45804883300298,170.77449487500053,Incorrect! The correct answer is Speaker2. نادرست! پاسخ صحیح گوینده۲ است,1,0.3060507080008392,None,0,54,170.77824316700207,170.79164491700067,,172.7829772920013,,,,,,,,,,,,,,,,,,,,,,,,,,,,,,,,,,,,,,,,002499,001,2024-06-30_16h34.41.052,5-24,2024.1.4,None,2024-06-30 16h34.46.520930 +0900,
Images/Speaker1.jpg,Images/Speaker2.jpg,Images/Speaker3.jpg,Images/Speaker4.jpg,Audio/Speaker2_En/P2-1-En.wav,Speaker2,گوینده۲,,,,,,,,,,,,,,,,0,54,54,20,,,,,,,,,,,,,172.80855008300205,,,,,,,,,,,,,,,,,,,,,,,,,,,,,,,,,,,,,,,,,,,,,172.78374608300146,172.80855008300205,172.80855008300205,172.80855008300205,172.80855008300205,172.8161198333333,172.80855008300205,172.80855008300205,172.9673092080011,Incorrect! The correct answer is Speaker2. نادرست! پاسخ صحیح گوینده۲ است,1,0.15768266699888045,None,0,55,172.97104929200214,172.9834819170028,174.9922972500026,174.9690757080025,,,,,,,,,,,,,,,,,,,,,,,,,,,,,,,,,,,,,,,,002499,001,2024-06-30_16h34.41.052,5-24,2024.1.4,None,2024-06-30 16h34.46.520930 +0900,
Images/Speaker1.jpg,Images/Speaker2.jpg,Images/Speaker3.jpg,Images/Speaker4.jpg,Audio/Speaker2_En/P2-9-En.wav,Speaker2,گوینده۲,,,,,,,,,,,,,,,,0,55,55,28,,,,,,,,,,,,,174.9922972500026,,,,,,,,,,,,,,,,,,,,,,,,,,,,,,,,,,,,,,,,,,,,,174.96923162500025,174.9922972500026,174.9922972500026,174.9922972500026,174.9922972500026,175.0021893333365,174.9922972500026,174.9922972500026,175.18196683300266,Incorrect! The correct answer is Speaker2. نادرست! پاسخ صحیح گوینده۲ است,1,0.18160245800027042,None,0,56,175.1857443330009,175.1978036670007,177.20528129200102,177.18128208300186,,,,,,,,,,,,,,,,,,,,,,,,,,,,,,,,,,,,,,,,002499,001,2024-06-30_16h34.41.052,5-24,2024.1.4,None,2024-06-30 16h34.46.520930 +0900,
Images/Speaker1.jpg,Images/Speaker2.jpg,Images/Speaker3.jpg,Images/Speaker4.jpg,Audio/Speaker1_En/P1-9-En.wav,Speaker1,گوینده ۱,,,,,,,,,,,,,,,,0,56,56,8,,,,,,,,,,,,,177.20528129200102,,,,,,,,,,,,,,,,,,,,,,,,,,,,,,,,,,,,,,,,,,,,,177.18146283300302,177.20528129200102,177.20528129200102,177.20528129200102,177.20528129200102,177.21435341633384,177.20528129200102,177.20528129200102,177.44072250000318,Correct! صحیح است,1,0.22910195899748942,None,0,57,177.4445360000027,177.45582520800235,179.46566950000124,179.44193841700326,,,,,,,,,,,,,,,,,,,,,,,,,,,,,,,,,,,,,,,,002499,001,2024-06-30_16h34.41.052,5-24,2024.1.4,None,2024-06-30 16h34.46.520930 +0900,
Images/Speaker1.jpg,Images/Speaker2.jpg,Images/Speaker3.jpg,Images/Speaker4.jpg,Audio/Speaker3_En/P3-18-En.wav,Speaker3,گوینده۳,,,,,,,,,,,,,,,,0,57,57,57,,,,,,,,,,,,,179.46566950000124,,,,,,,,,,,,,,,,,,,,,,,,,,,,,,,,,,,,,,,,,,,,,179.44247404199996,179.46566950000124,179.46566950000124,179.46566950000124,179.46566950000124,179.47436862533556,179.46566950000124,179.46566950000124,179.7152432920011,Incorrect! The correct answer is Speaker3. نادرست! پاسخ صحیح گوینده۳ است,1,0.24777800000083516,None,0,58,179.7192001250005,179.7325075000008,181.74258037500113,181.71769366700028,,,,,,,,,,,,,,,,,,,,,,,,,,,,,,,,,,,,,,,,002499,001,2024-06-30_16h34.41.052,5-24,2024.1.4,None,2024-06-30 16h34.46.520930 +0900,
Images/Speaker1.jpg,Images/Speaker2.jpg,Images/Speaker3.jpg,Images/Speaker4.jpg,Audio/Speaker4_En/P4-1-En.wav,Speaker4,گوینده۴,,,,,,,,,,,,,,,,0,58,58,60,,,,,,,,,,,,,181.74258037500113,,,,,,,,,,,,,,,,,,,,,,,,,,,,,,,,,,,,,,,,,,,,,181.71786912500102,181.74258037500113,181.74258037500113,181.74258037500113,181.74258037500113,181.75078700033606,181.74258037500113,181.74258037500113,181.88843300000008,Incorrect! The correct answer is Speaker4. نادرست! پاسخ صحیح گوینده۴ است,1,0.14484270799948717,None,0,59,181.89263262500026,181.90528883300067,,183.90134758300337,,,,,,,,,,,,,,,,,,,,,,,,,,,,,,,,,,,,,,,,002499,001,2024-06-30_16h34.41.052,5-24,2024.1.4,None,2024-06-30 16h34.46.520930 +0900,
Images/Speaker1.jpg,Images/Speaker2.jpg,Images/Speaker3.jpg,Images/Speaker4.jpg,Audio/Speaker4_En/P4-4-En.wav,Speaker4,گوینده۴,,,,,,,,,,,,,,,,0,59,59,63,,,,,,,,,,,,,183.92480058300134,,,,,,,,,,,,,,,,,,,,,,,,,,,,,,,,,,,,,,,,,,,,,183.90150562500276,183.92480058300134,183.92480058300134,183.92480058300134,183.92480058300134,183.93464233333412,183.92480058300134,183.92480058300134,184.23029483300343,Incorrect! The correct answer is Speaker4. نادرست! پاسخ صحیح گوینده۴ است,1,0.2982907500008878,None,0,60,184.2342110000027,184.24469537500045,,186.23515558300278,,,,,,,,,,,,,,,,,,,,,,,,,,,,,,,,,,,,,,,,002499,001,2024-06-30_16h34.41.052,5-24,2024.1.4,None,2024-06-30 16h34.46.520930 +0900,
Images/Speaker1.jpg,Images/Speaker2.jpg,Images/Speaker3.jpg,Images/Speaker4.jpg,Audio/Speaker1_En/P1-6-En.wav,Speaker1,گوینده ۱,,,,,,,,,,,,,,,,0,60,60,5,,,,,,,,,,,,,186.25888029199996,,,,,,,,,,,,,,,,,,,,,,,,,,,,,,,,,,,,,,,,,,,,,186.23533366700212,186.25888029199996,186.25888029199996,186.25888029199996,186.25888029199996,186.2684512913334,186.25888029199996,186.25888029199996,186.55285304200152,Correct! صحیح است,1,0.2840845419996185,None,0,61,186.55709087500145,186.56576308300282,188.57669304200317,188.553510208003,,,,,,,,,,,,,,,,,,,,,,,,,,,,,,,,,,,,,,,,002499,001,2024-06-30_16h34.41.052,5-24,2024.1.4,None,2024-06-30 16h34.46.520930 +0900,
Images/Speaker1.jpg,Images/Speaker2.jpg,Images/Speaker3.jpg,Images/Speaker4.jpg,Audio/Speaker3_En/P3-16-En.wav,Speaker3,گوینده۳,,,,,,,,,,,,,,,,0,61,61,55,,,,,,,,,,,,,188.57669304200317,,,,,,,,,,,,,,,,,,,,,,,,,,,,,,,,,,,,,,,,,,,,,188.55368354200255,188.57669304200317,188.57669304200317,188.57669304200317,188.57669304200317,188.5865317913345,188.57669304200317,188.57669304200317,188.83978191700226,Incorrect! The correct answer is Speaker3. نادرست! پاسخ صحیح گوینده۳ است,1,0.2551972500004922,None,0,62,188.84362375000273,188.85663462500088,190.86294287500277,190.83993045800162,,,,,,,,,,,,,,,,,,,,,,,,,,,,,,,,,,,,,,,,002499,001,2024-06-30_16h34.41.052,5-24,2024.1.4,None,2024-06-30 16h34.46.520930 +0900,
Images/Speaker1.jpg,Images/Speaker2.jpg,Images/Speaker3.jpg,Images/Speaker4.jpg,Audio/Speaker1_En/P1-17-En.wav,Speaker1,گوینده ۱,,,,,,,,,,,,,,,,0,62,62,16,,,,,,,,,,,,,190.86294287500277,,,,,,,,,,,,,,,,,,,,,,,,,,,,,,,,,,,,,,,,,,,,,190.8401005420019,190.86294287500277,190.86294287500277,190.86294287500277,190.86294287500277,190.85635758366723,190.86294287500277,190.86294287500277,191.1326352080032,Correct! صحیح است,1,0.26559091699891724,None,0,63,191.13645650000035,191.14780004200293,193.15967912500128,193.13537220800208,,,,,,,,,,,,,,,,,,,,,,,,,,,,,,,,,,,,,,,,002499,001,2024-06-30_16h34.41.052,5-24,2024.1.4,None,2024-06-30 16h34.46.520930 +0900,
Images/Speaker1.jpg,Images/Speaker2.jpg,Images/Speaker3.jpg,Images/Speaker4.jpg,Audio/Speaker3_En/P3-19-En.wav,Speaker3,گوینده۳,,,,,,,,,,,,,,,,0,63,63,58,,,,,,,,,,,,,193.15967912500128,,,,,,,,,,,,,,,,,,,,,,,,,,,,,,,,,,,,,,,,,,,,,193.13629575000232,193.15967912500128,193.15967912500128,193.15967912500128,193.15967912500128,193.16775737533368,193.15967912500128,193.15967912500128,193.24698162500135,Incorrect! The correct answer is Speaker3. نادرست! پاسخ صحیح گوینده۳ است,1,0.084136875000695,None,0,64,193.25091920800332,193.26373429200248,195.27233379200334,195.2495708330025,,,,,,,,,,,,,,,,,,,,,,,,,,,,,,,,,,,,,,,,002499,001,2024-06-30_16h34.41.052,5-24,2024.1.4,None,2024-06-30 16h34.46.520930 +0900,
Images/Speaker1.jpg,Images/Speaker2.jpg,Images/Speaker3.jpg,Images/Speaker4.jpg,Audio/Speaker1_En/P1-10-En.wav,Speaker1,گوینده ۱,,,,,,,,,,,,,,,,0,64,64,9,,,,,,,,,,,,,195.27233379200334,,,,,,,,,,,,,,,,,,,,,,,,,,,,,,,,,,,,,,,,,,,,,195.2497326670018,195.27233379200334,195.27233379200334,195.27233379200334,195.27233379200334,195.26598533366658,195.27233379200334,195.27233379200334,195.44978283300225,Correct! صحیح است,1,0.17641641600130242,None,0,65,195.45395200000348,195.46433525000248,,197.45885887500117,,,,,,,,,,,,,,,,,,,,,,,,,,,,,,,,,,,,,,,,002499,001,2024-06-30_16h34.41.052,5-24,2024.1.4,None,2024-06-30 16h34.46.520930 +0900,
Images/Speaker1.jpg,Images/Speaker2.jpg,Images/Speaker3.jpg,Images/Speaker4.jpg,Audio/Speaker3_En/P3-12-En.wav,Speaker3,گوینده۳,,,,,,,,,,,,,,,,0,65,65,51,,,,,,,,,,,,,197.48279875000298,,,,,,,,,,,,,,,,,,,,,,,,,,,,,,,,,,,,,,,,,,,,,197.45940491700094,197.48279875000298,197.48279875000298,197.48279875000298,197.48279875000298,197.49204445833362,197.48279875000298,197.48279875000298,197.67293283300023,Incorrect! The correct answer is Speaker3. نادرست! پاسخ صحیح گوینده۳ است,1,0.1874063750001369,None,0,66,197.6767699580014,197.68936987500274,199.69779625000228,199.67477779200271,,,,,,,,,,,,,,,,,,,,,,,,,,,,,,,,,,,,,,,,002499,001,2024-06-30_16h34.41.052,5-24,2024.1.4,None,2024-06-30 16h34.46.520930 +0900,
Images/Speaker1.jpg,Images/Speaker2.jpg,Images/Speaker3.jpg,Images/Speaker4.jpg,Audio/Speaker1_En/P1-8-En.wav,Speaker1,گوینده ۱,,,,,,,,,,,,,,,,0,66,66,7,,,,,,,,,,,,,199.69779625000228,,,,,,,,,,,,,,,,,,,,,,,,,,,,,,,,,,,,,,,,,,,,,199.67498945800253,199.69779625000228,199.69779625000228,199.69779625000228,199.69779625000228,199.6912328336696,199.69779625000228,199.69779625000228,199.96338191700124,Correct! صحیح است,1,0.263821917000314,None,0,67,199.9674188750032,199.97838004200094,201.98683066700323,201.9630773750032,,,,,,,,,,,,,,,,,,,,,,,,,,,,,,,,,,,,,,,,002499,001,2024-06-30_16h34.41.052,5-24,2024.1.4,None,2024-06-30 16h34.46.520930 +0900,
Images/Speaker1.jpg,Images/Speaker2.jpg,Images/Speaker3.jpg,Images/Speaker4.jpg,Audio/Speaker3_En/P3-15-En.wav,Speaker3,گوینده۳,,,,,,,,,,,,,,,,0,67,67,54,,,,,,,,,,,,,201.98683066700323,,,,,,,,,,,,,,,,,,,,,,,,,,,,,,,,,,,,,,,,,,,,,201.9632780000029,201.98683066700323,201.98683066700323,201.98683066700323,201.98683066700323,201.99618675033395,201.98683066700323,201.98683066700323,202.2949225420016,Incorrect! The correct answer is Speaker3. نادرست! پاسخ صحیح گوینده۳ است,1,0.3026009580025857,None,0,68,202.2989117080033,202.31203604200346,,204.29977520800094,,,,,,,,,,,,,,,,,,,,,,,,,,,,,,,,,,,,,,,,002499,001,2024-06-30_16h34.41.052,5-24,2024.1.4,None,2024-06-30 16h34.46.520930 +0900,
Images/Speaker1.jpg,Images/Speaker2.jpg,Images/Speaker3.jpg,Images/Speaker4.jpg,Audio/Speaker2_En/P2-7-En.wav,Speaker2,گوینده۲,,,,,,,,,,,,,,,,0,68,68,26,,,,,,,,,,,,,204.3249385420022,,,,,,,,,,,,,,,,,,,,,,,,,,,,,,,,,,,,,,,,,,,,,204.3004183330013,204.3249385420022,204.3249385420022,204.3249385420022,204.3249385420022,204.3329597083362,204.3249385420022,204.3249385420022,204.50327420800022,Incorrect! The correct answer is Speaker2. نادرست! پاسخ صحیح گوینده۲ است,1,0.17395349999787868,None,0,69,204.50742591700327,204.5201968750007,,206.50968700000158,,,,,,,,,,,,,,,,,,,,,,,,,,,,,,,,,,,,,,,,002499,001,2024-06-30_16h34.41.052,5-24,2024.1.4,None,2024-06-30 16h34.46.520930 +0900,
Images/Speaker1.jpg,Images/Speaker2.jpg,Images/Speaker3.jpg,Images/Speaker4.jpg,Audio/Speaker1_En/P1-5-En.wav,Speaker1,گوینده ۱,,,,,,,,,,,,,,,,0,69,69,4,,,,,,,,,,,,,206.53290991700123,,,,,,,,,,,,,,,,,,,,,,,,,,,,,,,,,,,,,,,,,,,,,206.50987200000236,206.53290991700123,206.53290991700123,206.53290991700123,206.53290991700123,206.5263151246693,206.53290991700123,206.53290991700123,206.79095916700317,Correct! صحیح است,1,0.2513802079993184,None,0,70,206.79494991700267,206.8059419170022,208.82118587500008,208.7933452920006,,,,,,,,,,,,,,,,,,,,,,,,,,,,,,,,,,,,,,,,002499,001,2024-06-30_16h34.41.052,5-24,2024.1.4,None,2024-06-30 16h34.46.520930 +0900,
Images/Speaker1.jpg,Images/Speaker2.jpg,Images/Speaker3.jpg,Images/Speaker4.jpg,Audio/Speaker4_En/P4-2-En.wav,Speaker4,گوینده۴,,,,,,,,,,,,,,,,0,70,70,61,,,,,,,,,,,,,208.82118587500008,,,,,,,,,,,,,,,,,,,,,,,,,,,,,,,,,,,,,,,,,,,,,208.79417320800349,208.82118587500008,208.82118587500008,208.82118587500008,208.82118587500008,208.82584891633502,208.82118587500008,208.82118587500008,209.01698216700242,Incorrect! The correct answer is Speaker4. نادرست! پاسخ صحیح گوینده۴ است,1,0.18628479100152617,None,0,71,209.02092683299998,209.03347475000191,211.03986204200191,211.01671808300307,,,,,,,,,,,,,,,,,,,,,,,,,,,,,,,,,,,,,,,,002499,001,2024-06-30_16h34.41.052,5-24,2024.1.4,None,2024-06-30 16h34.46.520930 +0900,
Images/Speaker1.jpg,Images/Speaker2.jpg,Images/Speaker3.jpg,Images/Speaker4.jpg,Audio/Speaker2_En/P2-3-En.wav,Speaker2,گوینده۲,,,,,,,,,,,,,,,,0,71,71,22,,,,,,,,,,,,,211.03986204200191,,,,,,,,,,,,,,,,,,,,,,,,,,,,,,,,,,,,,,,,,,,,,211.01690995800163,211.03986204200191,211.03986204200191,211.03986204200191,211.03986204200191,211.04975091633656,211.03986204200191,211.03986204200191,211.16179575000206,Incorrect! The correct answer is Speaker2. نادرست! پاسخ صحیح گوینده۲ است,1,0.11968412499845726,None,0,72,211.165622833003,211.17852100000164,213.1902563750009,213.16606270800185,,,,,,,,,,,,,,,,,,,,,,,,,,,,,,,,,,,,,,,,002499,001,2024-06-30_16h34.41.052,5-24,2024.1.4,None,2024-06-30 16h34.46.520930 +0900,
Images/Speaker1.jpg,Images/Speaker2.jpg,Images/Speaker3.jpg,Images/Speaker4.jpg,Audio/Speaker4_En/P4-6-En.wav,Speaker4,گوینده۴,,,,,,,,,,,,,,,,0,72,72,65,,,,,,,,,,,,,213.1902563750009,,,,,,,,,,,,,,,,,,,,,,,,,,,,,,,,,,,,,,,,,,,,,213.16691029200229,213.1902563750009,213.1902563750009,213.1902563750009,213.1902563750009,213.19856816633597,213.1902563750009,213.1902563750009,213.3620992920005,Incorrect! The correct answer is Speaker4. نادرست! پاسخ صحیح گوینده۴ است,1,0.16814520800107857,None,0,73,213.36590941700342,213.3791317920004,,215.36947495800268,,,,,,,,,,,,,,,,,,,,,,,,,,,,,,,,,,,,,,,,002499,001,2024-06-30_16h34.41.052,5-24,2024.1.4,None,2024-06-30 16h34.46.520930 +0900,
Images/Speaker1.jpg,Images/Speaker2.jpg,Images/Speaker3.jpg,Images/Speaker4.jpg,Audio/Speaker1_En/P1-4-En.wav,Speaker1,گوینده ۱,,,,,,,,,,,,,,,,0,73,73,3,,,,,,,,,,,,,215.39456879200225,,,,,,,,,,,,,,,,,,,,,,,,,,,,,,,,,,,,,,,,,,,,,215.37008275000335,215.39456879200225,215.39456879200225,215.39456879200225,215.39456879200225,215.40263583333632,215.39456879200225,215.39456879200225,215.60202008300257,Correct! صحیح است,1,0.1984027500002412,None,0,74,215.60624595800255,215.61691620800048,217.6280612920018,217.60317725000277,,,,,,,,,,,,,,,,,,,,,,,,,,,,,,,,,,,,,,,,002499,001,2024-06-30_16h34.41.052,5-24,2024.1.4,None,2024-06-30 16h34.46.520930 +0900,
Images/Speaker1.jpg,Images/Speaker2.jpg,Images/Speaker3.jpg,Images/Speaker4.jpg,Audio/Speaker2_En/P2-17-En.wav,Speaker2,گوینده۲,,,,,,,,,,,,,,,,0,74,74,36,,,,,,,,,,,,,217.6280612920018,,,,,,,,,,,,,,,,,,,,,,,,,,,,,,,,,,,,,,,,,,,,,217.6041657920032,217.6280612920018,217.6280612920018,217.6280612920018,217.6280612920018,217.63541116633547,217.6280612920018,217.6280612920018,217.75035070800004,Incorrect! The correct answer is Speaker2. نادرست! پاسخ صحیح گوینده۲ است,1,0.11869766699965112,None,0,75,217.75436937500126,217.76686545800112,219.77935829200214,219.75440450000315,,,,,,,,,,,,,,,,,,,,,,,,,,,,,,,,,,,,,,,,002499,001,2024-06-30_16h34.41.052,5-24,2024.1.4,None,2024-06-30 16h34.46.520930 +0900,
Images/Speaker1.jpg,Images/Speaker2.jpg,Images/Speaker3.jpg,Images/Speaker4.jpg,Audio/Speaker3_En/P3-4-En.wav,Speaker3,گوینده۳,,,,,,,,,,,,,,,,0,75,75,43,,,,,,,,,,,,,219.77935829200214,,,,,,,,,,,,,,,,,,,,,,,,,,,,,,,,,,,,,,,,,,,,,219.7546104580033,219.77935829200214,219.77935829200214,219.77935829200214,219.77935829200214,219.78741962533655,219.77935829200214,219.77935829200214,219.96247425000183,Incorrect! The correct answer is Speaker3. نادرست! پاسخ صحیح گوینده۳ است,1,0.18132979099755175,None,0,76,219.96624866700222,219.97812420800255,221.9911655420001,221.96689912500005,,,,,,,,,,,,,,,,,,,,,,,,,,,,,,,,,,,,,,,,002499,001,2024-06-30_16h34.41.052,5-24,2024.1.4,None,2024-06-30 16h34.46.520930 +0900,
Images/Speaker1.jpg,Images/Speaker2.jpg,Images/Speaker3.jpg,Images/Speaker4.jpg,Audio/Speaker3_En/P3-7-En.wav,Speaker3,گوینده۳,,,,,,,,,,,,,,,,0,76,76,46,,,,,,,,,,,,,221.9911655420001,,,,,,,,,,,,,,,,,,,,,,,,,,,,,,,,,,,,,,,,,,,,,221.96734120800102,221.9911655420001,221.9911655420001,221.9911655420001,221.9911655420001,221.99928491633597,221.9911655420001,221.9911655420001,222.37804041700292,Incorrect! The correct answer is Speaker3. نادرست! پاسخ صحیح گوینده۳ است,1,0.37249350000274717,None,0,77,222.38227179200112,222.39506837500085,224.403973708002,224.38080225000158,,,,,,,,,,,,,,,,,,,,,,,,,,,,,,,,,,,,,,,,002499,001,2024-06-30_16h34.41.052,5-24,2024.1.4,None,2024-06-30 16h34.46.520930 +0900,
Images/Speaker1.jpg,Images/Speaker2.jpg,Images/Speaker3.jpg,Images/Speaker4.jpg,Audio/Speaker2_En/P2-5-En.wav,Speaker2,گوینده۲,,,,,,,,,,,,,,,,0,77,77,24,,,,,,,,,,,,,224.403973708002,,,,,,,,,,,,,,,,,,,,,,,,,,,,,,,,,,,,,,,,,,,,,224.38099479200173,224.403973708002,224.403973708002,224.403973708002,224.403973708002,224.41384716633598,224.403973708002,224.403973708002,224.47542191700268,Incorrect! The correct answer is Speaker2. نادرست! پاسخ صحیح گوینده۲ است,1,0.0647787089983467,None,0,78,224.47971666700323,224.49270466700182,,226.4804395420033,,,,,,,,,,,,,,,,,,,,,,,,,,,,,,,,,,,,,,,,002499,001,2024-06-30_16h34.41.052,5-24,2024.1.4,None,2024-06-30 16h34.46.520930 +0900,
Images/Speaker1.jpg,Images/Speaker2.jpg,Images/Speaker3.jpg,Images/Speaker4.jpg,Audio/Speaker2_En/P2-10-En.wav,Speaker2,گوینده۲,,,,,,,,,,,,,,,,0,78,78,29,,,,,,,,,,,,,226.50274583300052,,,,,,,,,,,,,,,,,,,,,,,,,,,,,,,,,,,,,,,,,,,,,226.48064541700296,226.50274583300052,226.50274583300052,226.50274583300052,226.50274583300052,226.49704112466887,226.50274583300052,226.50274583300052,226.8075495000012,Incorrect! The correct answer is Speaker2. نادرست! پاسخ صحیح گوینده۲ است,1,0.3037986669987731,None,0,79,226.81245825000224,226.8262858750022,,228.81643191700277,,,,,,,,,,,,,,,,,,,,,,,,,,,,,,,,,,,,,,,,002499,001,2024-06-30_16h34.41.052,5-24,2024.1.4,None,2024-06-30 16h34.46.520930 +0900,
Images/Speaker1.jpg,Images/Speaker2.jpg,Images/Speaker3.jpg,Images/Speaker4.jpg,Audio/Speaker1_En/P1-1-En.wav,Speaker1,گوینده ۱,,,,,,,,,,,,,,,,0,79,79,0,,,,,,,,,,,,,228.84223841700077,,,,,,,,,,,,,,,,,,,,,,,,,,,,,,,,,,,,,,,,,,,,,228.81710533300065,228.84223841700077,228.84223841700077,228.84223841700077,228.84223841700077,228.8496107083343,228.84223841700077,228.84223841700077,229.0166997080014,Correct! صحیح است,1,0.16958512500059442,None,0,80,229.0209828750012,229.03172033300143,231.01904970800024,231.0150271670027,,,,,,,,,,,,,,,,,,,,,,,,,,,,,,,,,,,,,,,,002499,001,2024-06-30_16h34.41.052,5-24,2024.1.4,None,2024-06-30 16h34.46.520930 +0900,
,,,,,,,,,,,,,,,,,,,,,,,,,,,,,,,,,,,,,,,,,,,,,,,,,,,,,,,,,,,,,,,,,,,,,,,,,,,,,,,,,,,,,,,,,,,,,,,,,,,,,,231.01508083299996,0,0,0.0,False,231.01526133300285,,,,,,,,,,,,,,,,,,,,,,,,,,,,,,,,,,002499,001,2024-06-30_16h34.41.052,5-24,2024.1.4,None,2024-06-30 16h34.46.520930 +0900,
,,,,,,,,,,,,,,,,,,,,,,,,,,,,,,,,,,,,,,,,,,,,,,,,,,,,,,,,,,,,,,,,,,,,,,,,,,,,,,,,,,,,,,,,,,,,,,,,,,,,,,,,,,,,231.01527229200292,231.01904970800024,238.67649600000004,236.00328875000196,,,,,,,,,,,,,,,,,,,,,,,,,,,,,,002499,001,2024-06-30_16h34.41.052,5-24,2024.1.4,None,2024-06-30 16h34.46.520930 +0900,
,,,,,,,Images/Speaker1.jpg,Images/Speaker2.jpg,Images/Speaker3.jpg,Images/Speaker4.jpg,Audio/Speaker4_Per/P4-3-Per.wav,Speaker4,گوینده۴,,,,,,,,,,,,,0,0,0,62,,,,,,,,,238.67649600000004,,,,,,,,,,,,,,,,,,,,,,,,,,,,,,,,,,,,,,,,,,,,,,,,,,,,,,,,,,,,,,,,,,,,,,,,,,236.02337729200008,236.04054333300155,None,No response,Images/Speaker1.jpg,Images/Speaker2.jpg,Images/Speaker3.jpg,Images/Speaker4.jpg,Audio/Speaker4_Per/P4-3-Per.wav,Speaker1,گوینده ۱,,,,,,,,,,,,,,,,,,,002499,001,2024-06-30_16h34.41.052,5-24,2024.1.4,None,2024-06-30 16h34.46.520930 +0900,
,,,,,,,Images/Speaker1.jpg,Images/Speaker2.jpg,Images/Speaker3.jpg,Images/Speaker4.jpg,Audio/Speaker2_Per/P2-8-Per.wav,Speaker2,گوینده۲,,,,,,,,,,,,,0,1,1,27,,,,,,,,,238.67649600000004,,,,,,,,,,,,,,,,,,,,,,,,,,,,,,,,,,,,,,,,,,,,,,,,,,,,,,,,,,,,,,,,,,,,,,,,,,236.0408660830035,236.05445808300283,None,No response,Images/Speaker1.jpg,Images/Speaker2.jpg,Images/Speaker3.jpg,Images/Speaker4.jpg,Audio/Speaker2_Per/P2-8-Per.wav,Speaker1,گوینده ۱,,,,,,,,,,,,,,,,,,,002499,001,2024-06-30_16h34.41.052,5-24,2024.1.4,None,2024-06-30 16h34.46.520930 +0900,
,,,,,,,Images/Speaker1.jpg,Images/Speaker2.jpg,Images/Speaker3.jpg,Images/Speaker4.jpg,Audio/Speaker4_Per/P4-18-Per.wav,Speaker4,گوینده۴,,,,,,,,,,,,,0,2,2,77,,,,,,,,,238.67649600000004,,,,,,,,,,,,,,,,,,,,,,,,,,,,,,,,,,,,,,,,,,,,,,,,,,,,,,,,,,,,,,,,,,,,,,,,,,236.0546365830014,236.0673173330033,None,No response,Images/Speaker1.jpg,Images/Speaker2.jpg,Images/Speaker3.jpg,Images/Speaker4.jpg,Audio/Speaker4_Per/P4-18-Per.wav,Speaker1,گوینده ۱,,,,,,,,,,,,,,,,,,,002499,001,2024-06-30_16h34.41.052,5-24,2024.1.4,None,2024-06-30 16h34.46.520930 +0900,
,,,,,,,Images/Speaker1.jpg,Images/Speaker2.jpg,Images/Speaker3.jpg,Images/Speaker4.jpg,Audio/Speaker1_Per/P1-5-Per.wav,Speaker1,گوینده ۱,,,,,,,,,,,,,0,3,3,4,,,,,,,,,238.67649600000004,,,,,,,,,,,,,,,,,,,,,,,,,,,,,,,,,,,,,,,,,,,,,,,,,,,,,,,,,,,,,,,,,,,,,,,,,,236.06749175000004,236.0805238330031,None,No response,Images/Speaker1.jpg,Images/Speaker2.jpg,Images/Speaker3.jpg,Images/Speaker4.jpg,Audio/Speaker1_Per/P1-5-Per.wav,Speaker1,گوینده ۱,,,,,,,,,,,,,,,,,,,002499,001,2024-06-30_16h34.41.052,5-24,2024.1.4,None,2024-06-30 16h34.46.520930 +0900,
,,,,,,,Images/Speaker1.jpg,Images/Speaker2.jpg,Images/Speaker3.jpg,Images/Speaker4.jpg,Audio/Speaker1_Per/P1-11-Per.wav,Speaker1,گوینده ۱,,,,,,,,,,,,,0,4,4,10,,,,,,,,,238.67649600000004,,,,,,,,,,,,,,,,,,,,,,,,,,,,,,,,,,,,,,,,,,,,,,,,,,,,,,,,,,,,,,,,,,,,,,,,,,236.08068800000183,236.09360654200282,None,No response,Images/Speaker1.jpg,Images/Speaker2.jpg,Images/Speaker3.jpg,Images/Speaker4.jpg,Audio/Speaker1_Per/P1-11-Per.wav,Speaker1,گوینده ۱,,,,,,,,,,,,,,,,,,,002499,001,2024-06-30_16h34.41.052,5-24,2024.1.4,None,2024-06-30 16h34.46.520930 +0900,
,,,,,,,Images/Speaker1.jpg,Images/Speaker2.jpg,Images/Speaker3.jpg,Images/Speaker4.jpg,Audio/Speaker4_Per/P4-12-Per.wav,Speaker4,گوینده۴,,,,,,,,,,,,,0,5,5,71,,,,,,,,,238.67649600000004,,,,,,,,,,,,,,,,,,,,,,,,,,,,,,,,,,,,,,,,,,,,,,,,,,,,,,,,,,,,,,,,,,,,,,,,,,236.09376704200258,236.10524208300194,None,No response,Images/Speaker1.jpg,Images/Speaker2.jpg,Images/Speaker3.jpg,Images/Speaker4.jpg,Audio/Speaker4_Per/P4-12-Per.wav,Speaker1,گوینده ۱,,,,,,,,,,,,,,,,,,,002499,001,2024-06-30_16h34.41.052,5-24,2024.1.4,None,2024-06-30 16h34.46.520930 +0900,
,,,,,,,Images/Speaker1.jpg,Images/Speaker2.jpg,Images/Speaker3.jpg,Images/Speaker4.jpg,Audio/Speaker3_Per/P3-1-Per.wav,Speaker3,گوینده۳,,,,,,,,,,,,,0,6,6,40,,,,,,,,,238.67649600000004,,,,,,,,,,,,,,,,,,,,,,,,,,,,,,,,,,,,,,,,,,,,,,,,,,,,,,,,,,,,,,,,,,,,,,,,,,236.10539966700162,236.11800691700046,None,No response,Images/Speaker1.jpg,Images/Speaker2.jpg,Images/Speaker3.jpg,Images/Speaker4.jpg,Audio/Speaker3_Per/P3-1-Per.wav,Speaker1,گوینده ۱,,,,,,,,,,,,,,,,,,,002499,001,2024-06-30_16h34.41.052,5-24,2024.1.4,None,2024-06-30 16h34.46.520930 +0900,
,,,,,,,Images/Speaker1.jpg,Images/Speaker2.jpg,Images/Speaker3.jpg,Images/Speaker4.jpg,Audio/Speaker3_Per/P3-5-Per.wav,Speaker3,گوینده۳,,,,,,,,,,,,,0,7,7,44,,,,,,,,,238.67649600000004,,,,,,,,,,,,,,,,,,,,,,,,,,,,,,,,,,,,,,,,,,,,,,,,,,,,,,,,,,,,,,,,,,,,,,,,,,236.11816129200088,236.1295282500032,None,No response,Images/Speaker1.jpg,Images/Speaker2.jpg,Images/Speaker3.jpg,Images/Speaker4.jpg,Audio/Speaker3_Per/P3-5-Per.wav,Speaker1,گوینده ۱,,,,,,,,,,,,,,,,,,,002499,001,2024-06-30_16h34.41.052,5-24,2024.1.4,None,2024-06-30 16h34.46.520930 +0900,
,,,,,,,Images/Speaker1.jpg,Images/Speaker2.jpg,Images/Speaker3.jpg,Images/Speaker4.jpg,Audio/Speaker1_Per/P1-7-Per.wav,Speaker1,گوینده ۱,,,,,,,,,,,,,0,8,8,6,,,,,,,,,238.67649600000004,,,,,,,,,,,,,,,,,,,,,,,,,,,,,,,,,,,,,,,,,,,,,,,,,,,,,,,,,,,,,,,,,,,,,,,,,,236.12967612500142,236.1410489580012,None,No response,Images/Speaker1.jpg,Images/Speaker2.jpg,Images/Speaker3.jpg,Images/Speaker4.jpg,Audio/Speaker1_Per/P1-7-Per.wav,Speaker1,گوینده ۱,,,,,,,,,,,,,,,,,,,002499,001,2024-06-30_16h34.41.052,5-24,2024.1.4,None,2024-06-30 16h34.46.520930 +0900,
,,,,,,,Images/Speaker1.jpg,Images/Speaker2.jpg,Images/Speaker3.jpg,Images/Speaker4.jpg,Audio/Speaker2_Per/P2-20-Per.wav,Speaker2,گوینده۲,,,,,,,,,,,,,0,9,9,39,,,,,,,,,238.67649600000004,,,,,,,,,,,,,,,,,,,,,,,,,,,,,,,,,,,,,,,,,,,,,,,,,,,,,,,,,,,,,,,,,,,,,,,,,,236.1412057080015,236.15215629200247,None,No response,Images/Speaker1.jpg,Images/Speaker2.jpg,Images/Speaker3.jpg,Images/Speaker4.jpg,Audio/Speaker2_Per/P2-20-Per.wav,Speaker1,گوینده ۱,,,,,,,,,,,,,,,,,,,002499,001,2024-06-30_16h34.41.052,5-24,2024.1.4,None,2024-06-30 16h34.46.520930 +0900,
,,,,,,,Images/Speaker1.jpg,Images/Speaker2.jpg,Images/Speaker3.jpg,Images/Speaker4.jpg,Audio/Speaker2_Per/P2-5-Per.wav,Speaker2,گوینده۲,,,,,,,,,,,,,0,10,10,24,,,,,,,,,238.67649600000004,,,,,,,,,,,,,,,,,,,,,,,,,,,,,,,,,,,,,,,,,,,,,,,,,,,,,,,,,,,,,,,,,,,,,,,,,,236.15230070800317,236.1634675000023,None,No response,Images/Speaker1.jpg,Images/Speaker2.jpg,Images/Speaker3.jpg,Images/Speaker4.jpg,Audio/Speaker2_Per/P2-5-Per.wav,Speaker1,گوینده ۱,,,,,,,,,,,,,,,,,,,002499,001,2024-06-30_16h34.41.052,5-24,2024.1.4,None,2024-06-30 16h34.46.520930 +0900,
,,,,,,,Images/Speaker1.jpg,Images/Speaker2.jpg,Images/Speaker3.jpg,Images/Speaker4.jpg,Audio/Speaker4_Per/P4-10-Per.wav,Speaker4,گوینده۴,,,,,,,,,,,,,0,11,11,69,,,,,,,,,238.67649600000004,,,,,,,,,,,,,,,,,,,,,,,,,,,,,,,,,,,,,,,,,,,,,,,,,,,,,,,,,,,,,,,,,,,,,,,,,,236.16361704200244,236.17469216700192,None,No response,Images/Speaker1.jpg,Images/Speaker2.jpg,Images/Speaker3.jpg,Images/Speaker4.jpg,Audio/Speaker4_Per/P4-10-Per.wav,Speaker1,گوینده ۱,,,,,,,,,,,,,,,,,,,002499,001,2024-06-30_16h34.41.052,5-24,2024.1.4,None,2024-06-30 16h34.46.520930 +0900,
,,,,,,,Images/Speaker1.jpg,Images/Speaker2.jpg,Images/Speaker3.jpg,Images/Speaker4.jpg,Audio/Speaker2_Per/P2-16-Per.wav,Speaker2,گوینده۲,,,,,,,,,,,,,0,12,12,35,,,,,,,,,238.67649600000004,,,,,,,,,,,,,,,,,,,,,,,,,,,,,,,,,,,,,,,,,,,,,,,,,,,,,,,,,,,,,,,,,,,,,,,,,,236.1748367500004,236.18564750000223,None,No response,Images/Speaker1.jpg,Images/Speaker2.jpg,Images/Speaker3.jpg,Images/Speaker4.jpg,Audio/Speaker2_Per/P2-16-Per.wav,Speaker1,گوینده ۱,,,,,,,,,,,,,,,,,,,002499,001,2024-06-30_16h34.41.052,5-24,2024.1.4,None,2024-06-30 16h34.46.520930 +0900,
,,,,,,,Images/Speaker1.jpg,Images/Speaker2.jpg,Images/Speaker3.jpg,Images/Speaker4.jpg,Audio/Speaker2_Per/P2-1-Per.wav,Speaker2,گوینده۲,,,,,,,,,,,,,0,13,13,20,,,,,,,,,238.67649600000004,,,,,,,,,,,,,,,,,,,,,,,,,,,,,,,,,,,,,,,,,,,,,,,,,,,,,,,,,,,,,,,,,,,,,,,,,,236.18579179200242,236.1965534580013,None,No response,Images/Speaker1.jpg,Images/Speaker2.jpg,Images/Speaker3.jpg,Images/Speaker4.jpg,Audio/Speaker2_Per/P2-1-Per.wav,Speaker1,گوینده ۱,,,,,,,,,,,,,,,,,,,002499,001,2024-06-30_16h34.41.052,5-24,2024.1.4,None,2024-06-30 16h34.46.520930 +0900,
,,,,,,,Images/Speaker1.jpg,Images/Speaker2.jpg,Images/Speaker3.jpg,Images/Speaker4.jpg,Audio/Speaker1_Per/P1-17-Per.wav,Speaker1,گوینده ۱,,,,,,,,,,,,,0,14,14,16,,,,,,,,,238.67649600000004,,,,,,,,,,,,,,,,,,,,,,,,,,,,,,,,,,,,,,,,,,,,,,,,,,,,,,,,,,,,,,,,,,,,,,,,,,236.19669887500277,236.20750441700147,None,No response,Images/Speaker1.jpg,Images/Speaker2.jpg,Images/Speaker3.jpg,Images/Speaker4.jpg,Audio/Speaker1_Per/P1-17-Per.wav,Speaker1,گوینده ۱,,,,,,,,,,,,,,,,,,,002499,001,2024-06-30_16h34.41.052,5-24,2024.1.4,None,2024-06-30 16h34.46.520930 +0900,
,,,,,,,Images/Speaker1.jpg,Images/Speaker2.jpg,Images/Speaker3.jpg,Images/Speaker4.jpg,Audio/Speaker2_Per/P2-17-Per.wav,Speaker2,گوینده۲,,,,,,,,,,,,,0,15,15,36,,,,,,,,,238.67649600000004,,,,,,,,,,,,,,,,,,,,,,,,,,,,,,,,,,,,,,,,,,,,,,,,,,,,,,,,,,,,,,,,,,,,,,,,,,236.20765391700115,236.21816520800348,None,No response,Images/Speaker1.jpg,Images/Speaker2.jpg,Images/Speaker3.jpg,Images/Speaker4.jpg,Audio/Speaker2_Per/P2-17-Per.wav,Speaker1,گوینده ۱,,,,,,,,,,,,,,,,,,,002499,001,2024-06-30_16h34.41.052,5-24,2024.1.4,None,2024-06-30 16h34.46.520930 +0900,
,,,,,,,Images/Speaker1.jpg,Images/Speaker2.jpg,Images/Speaker3.jpg,Images/Speaker4.jpg,Audio/Speaker1_Per/P1-8-Per.wav,Speaker1,گوینده ۱,,,,,,,,,,,,,0,16,16,7,,,,,,,,,238.67649600000004,,,,,,,,,,,,,,,,,,,,,,,,,,,,,,,,,,,,,,,,,,,,,,,,,,,,,,,,,,,,,,,,,,,,,,,,,,236.21830850000333,236.22931020800024,None,No response,Images/Speaker1.jpg,Images/Speaker2.jpg,Images/Speaker3.jpg,Images/Speaker4.jpg,Audio/Speaker1_Per/P1-8-Per.wav,Speaker1,گوینده ۱,,,,,,,,,,,,,,,,,,,002499,001,2024-06-30_16h34.41.052,5-24,2024.1.4,None,2024-06-30 16h34.46.520930 +0900,
,,,,,,,Images/Speaker1.jpg,Images/Speaker2.jpg,Images/Speaker3.jpg,Images/Speaker4.jpg,Audio/Speaker1_Per/P1-4-Per.wav,Speaker1,گوینده ۱,,,,,,,,,,,,,0,17,17,13,,,,,,,,,238.67649600000004,,,,,,,,,,,,,,,,,,,,,,,,,,,,,,,,,,,,,,,,,,,,,,,,,,,,,,,,,,,,,,,,,,,,,,,,,,236.22945100000288,236.24077408300218,None,No response,Images/Speaker1.jpg,Images/Speaker2.jpg,Images/Speaker3.jpg,Images/Speaker4.jpg,Audio/Speaker1_Per/P1-4-Per.wav,Speaker1,گوینده ۱,,,,,,,,,,,,,,,,,,,002499,001,2024-06-30_16h34.41.052,5-24,2024.1.4,None,2024-06-30 16h34.46.520930 +0900,
,,,,,,,Images/Speaker1.jpg,Images/Speaker2.jpg,Images/Speaker3.jpg,Images/Speaker4.jpg,Audio/Speaker4_Per/P4-5-Per.wav,Speaker4,گوینده۴,,,,,,,,,,,,,0,18,18,64,,,,,,,,,238.67649600000004,,,,,,,,,,,,,,,,,,,,,,,,,,,,,,,,,,,,,,,,,,,,,,,,,,,,,,,,,,,,,,,,,,,,,,,,,,236.24091441700148,236.25227908300076,None,No response,Images/Speaker1.jpg,Images/Speaker2.jpg,Images/Speaker3.jpg,Images/Speaker4.jpg,Audio/Speaker4_Per/P4-5-Per.wav,Speaker1,گوینده ۱,,,,,,,,,,,,,,,,,,,002499,001,2024-06-30_16h34.41.052,5-24,2024.1.4,None,2024-06-30 16h34.46.520930 +0900,
,,,,,,,Images/Speaker1.jpg,Images/Speaker2.jpg,Images/Speaker3.jpg,Images/Speaker4.jpg,Audio/Speaker2_Per/P2-3-Per.wav,Speaker2,گوینده۲,,,,,,,,,,,,,0,19,19,22,,,,,,,,,238.67649600000004,,,,,,,,,,,,,,,,,,,,,,,,,,,,,,,,,,,,,,,,,,,,,,,,,,,,,,,,,,,,,,,,,,,,,,,,,,236.2524187500021,236.26316133300134,None,No response,Images/Speaker1.jpg,Images/Speaker2.jpg,Images/Speaker3.jpg,Images/Speaker4.jpg,Audio/Speaker2_Per/P2-3-Per.wav,Speaker1,گوینده ۱,,,,,,,,,,,,,,,,,,,002499,001,2024-06-30_16h34.41.052,5-24,2024.1.4,None,2024-06-30 16h34.46.520930 +0900,
,,,,,,,Images/Speaker1.jpg,Images/Speaker2.jpg,Images/Speaker3.jpg,Images/Speaker4.jpg,Audio/Speaker1_Per/P1-16-Per.wav,Speaker1,گوینده ۱,,,,,,,,,,,,,0,20,20,15,,,,,,,,,238.67649600000004,,,,,,,,,,,,,,,,,,,,,,,,,,,,,,,,,,,,,,,,,,,,,,,,,,,,,,,,,,,,,,,,,,,,,,,,,,236.26330429200243,236.27424045800217,None,No response,Images/Speaker1.jpg,Images/Speaker2.jpg,Images/Speaker3.jpg,Images/Speaker4.jpg,Audio/Speaker1_Per/P1-16-Per.wav,Speaker1,گوینده ۱,,,,,,,,,,,,,,,,,,,002499,001,2024-06-30_16h34.41.052,5-24,2024.1.4,None,2024-06-30 16h34.46.520930 +0900,
,,,,,,,Images/Speaker1.jpg,Images/Speaker2.jpg,Images/Speaker3.jpg,Images/Speaker4.jpg,Audio/Speaker2_Per/P2-9-Per.wav,Speaker2,گوینده۲,,,,,,,,,,,,,0,21,21,28,,,,,,,,,238.67649600000004,,,,,,,,,,,,,,,,,,,,,,,,,,,,,,,,,,,,,,,,,,,,,,,,,,,,,,,,,,,,,,,,,,,,,,,,,,236.2743936250008,236.28535616700174,None,No response,Images/Speaker1.jpg,Images/Speaker2.jpg,Images/Speaker3.jpg,Images/Speaker4.jpg,Audio/Speaker2_Per/P2-9-Per.wav,Speaker1,گوینده ۱,,,,,,,,,,,,,,,,,,,002499,001,2024-06-30_16h34.41.052,5-24,2024.1.4,None,2024-06-30 16h34.46.520930 +0900,
,,,,,,,Images/Speaker1.jpg,Images/Speaker2.jpg,Images/Speaker3.jpg,Images/Speaker4.jpg,Audio/Speaker4_Per/P4-17-Per.wav,Speaker4,گوینده۴,,,,,,,,,,,,,0,22,22,76,,,,,,,,,238.67649600000004,,,,,,,,,,,,,,,,,,,,,,,,,,,,,,,,,,,,,,,,,,,,,,,,,,,,,,,,,,,,,,,,,,,,,,,,,,236.2854962920028,236.29608150000058,None,No response,Images/Speaker1.jpg,Images/Speaker2.jpg,Images/Speaker3.jpg,Images/Speaker4.jpg,Audio/Speaker4_Per/P4-17-Per.wav,Speaker1,گوینده ۱,,,,,,,,,,,,,,,,,,,002499,001,2024-06-30_16h34.41.052,5-24,2024.1.4,None,2024-06-30 16h34.46.520930 +0900,
,,,,,,,Images/Speaker1.jpg,Images/Speaker2.jpg,Images/Speaker3.jpg,Images/Speaker4.jpg,Audio/Speaker1_Per/P1-4-Per.wav,Speaker1,گوینده ۱,,,,,,,,,,,,,0,23,23,3,,,,,,,,,238.67649600000004,,,,,,,,,,,,,,,,,,,,,,,,,,,,,,,,,,,,,,,,,,,,,,,,,,,,,,,,,,,,,,,,,,,,,,,,,,236.2962294170029,236.30671050000092,None,No response,Images/Speaker1.jpg,Images/Speaker2.jpg,Images/Speaker3.jpg,Images/Speaker4.jpg,Audio/Speaker1_Per/P1-4-Per.wav,Speaker1,گوینده ۱,,,,,,,,,,,,,,,,,,,002499,001,2024-06-30_16h34.41.052,5-24,2024.1.4,None,2024-06-30 16h34.46.520930 +0900,
,,,,,,,Images/Speaker1.jpg,Images/Speaker2.jpg,Images/Speaker3.jpg,Images/Speaker4.jpg,Audio/Speaker4_Per/P4-7-Per.wav,Speaker4,گوینده۴,,,,,,,,,,,,,0,24,24,66,,,,,,,,,238.67649600000004,,,,,,,,,,,,,,,,,,,,,,,,,,,,,,,,,,,,,,,,,,,,,,,,,,,,,,,,,,,,,,,,,,,,,,,,,,236.30686245800098,236.31859525000255,None,No response,Images/Speaker1.jpg,Images/Speaker2.jpg,Images/Speaker3.jpg,Images/Speaker4.jpg,Audio/Speaker4_Per/P4-7-Per.wav,Speaker1,گوینده ۱,,,,,,,,,,,,,,,,,,,002499,001,2024-06-30_16h34.41.052,5-24,2024.1.4,None,2024-06-30 16h34.46.520930 +0900,
,,,,,,,Images/Speaker1.jpg,Images/Speaker2.jpg,Images/Speaker3.jpg,Images/Speaker4.jpg,Audio/Speaker4_Per/P4-14-Per.wav,Speaker4,گوینده۴,,,,,,,,,,,,,0,25,25,73,,,,,,,,,238.67649600000004,,,,,,,,,,,,,,,,,,,,,,,,,,,,,,,,,,,,,,,,,,,,,,,,,,,,,,,,,,,,,,,,,,,,,,,,,,236.31873737500064,236.33087108300242,None,No response,Images/Speaker1.jpg,Images/Speaker2.jpg,Images/Speaker3.jpg,Images/Speaker4.jpg,Audio/Speaker4_Per/P4-14-Per.wav,Speaker1,گوینده ۱,,,,,,,,,,,,,,,,,,,002499,001,2024-06-30_16h34.41.052,5-24,2024.1.4,None,2024-06-30 16h34.46.520930 +0900,
,,,,,,,Images/Speaker1.jpg,Images/Speaker2.jpg,Images/Speaker3.jpg,Images/Speaker4.jpg,Audio/Speaker1_Per/P1-6-Per.wav,Speaker1,گوینده ۱,,,,,,,,,,,,,0,26,26,5,,,,,,,,,238.67649600000004,,,,,,,,,,,,,,,,,,,,,,,,,,,,,,,,,,,,,,,,,,,,,,,,,,,,,,,,,,,,,,,,,,,,,,,,,,236.3310140829999,236.34267820800233,None,No response,Images/Speaker1.jpg,Images/Speaker2.jpg,Images/Speaker3.jpg,Images/Speaker4.jpg,Audio/Speaker1_Per/P1-6-Per.wav,Speaker1,گوینده ۱,,,,,,,,,,,,,,,,,,,002499,001,2024-06-30_16h34.41.052,5-24,2024.1.4,None,2024-06-30 16h34.46.520930 +0900,
,,,,,,,Images/Speaker1.jpg,Images/Speaker2.jpg,Images/Speaker3.jpg,Images/Speaker4.jpg,Audio/Speaker4_Per/P4-1-Per.wav,Speaker4,گوینده۴,,,,,,,,,,,,,0,27,27,60,,,,,,,,,238.67649600000004,,,,,,,,,,,,,,,,,,,,,,,,,,,,,,,,,,,,,,,,,,,,,,,,,,,,,,,,,,,,,,,,,,,,,,,,,,236.34281937500054,236.35397183300302,None,No response,Images/Speaker1.jpg,Images/Speaker2.jpg,Images/Speaker3.jpg,Images/Speaker4.jpg,Audio/Speaker4_Per/P4-1-Per.wav,Speaker1,گوینده ۱,,,,,,,,,,,,,,,,,,,002499,001,2024-06-30_16h34.41.052,5-24,2024.1.4,None,2024-06-30 16h34.46.520930 +0900,
,,,,,,,Images/Speaker1.jpg,Images/Speaker2.jpg,Images/Speaker3.jpg,Images/Speaker4.jpg,Audio/Speaker1_Per/P1-1-Per.wav,Speaker1,گوینده ۱,,,,,,,,,,,,,0,28,28,0,,,,,,,,,238.67649600000004,,,,,,,,,,,,,,,,,,,,,,,,,,,,,,,,,,,,,,,,,,,,,,,,,,,,,,,,,,,,,,,,,,,,,,,,,,236.35411879200183,236.36524800000188,None,No response,Images/Speaker1.jpg,Images/Speaker2.jpg,Images/Speaker3.jpg,Images/Speaker4.jpg,Audio/Speaker1_Per/P1-1-Per.wav,Speaker1,گوینده ۱,,,,,,,,,,,,,,,,,,,002499,001,2024-06-30_16h34.41.052,5-24,2024.1.4,None,2024-06-30 16h34.46.520930 +0900,
,,,,,,,Images/Speaker1.jpg,Images/Speaker2.jpg,Images/Speaker3.jpg,Images/Speaker4.jpg,Audio/Speaker1_Per/P1-12-Per.wav,Speaker1,گوینده ۱,,,,,,,,,,,,,0,29,29,11,,,,,,,,,238.67649600000004,,,,,,,,,,,,,,,,,,,,,,,,,,,,,,,,,,,,,,,,,,,,,,,,,,,,,,,,,,,,,,,,,,,,,,,,,,236.36539341700336,236.37628495800163,None,No response,Images/Speaker1.jpg,Images/Speaker2.jpg,Images/Speaker3.jpg,Images/Speaker4.jpg,Audio/Speaker1_Per/P1-12-Per.wav,Speaker1,گوینده ۱,,,,,,,,,,,,,,,,,,,002499,001,2024-06-30_16h34.41.052,5-24,2024.1.4,None,2024-06-30 16h34.46.520930 +0900,
,,,,,,,Images/Speaker1.jpg,Images/Speaker2.jpg,Images/Speaker3.jpg,Images/Speaker4.jpg,Audio/Speaker2_Per/P2-19-Per.wav,Speaker2,گوینده۲,,,,,,,,,,,,,0,30,30,38,,,,,,,,,238.67649600000004,,,,,,,,,,,,,,,,,,,,,,,,,,,,,,,,,,,,,,,,,,,,,,,,,,,,,,,,,,,,,,,,,,,,,,,,,,236.3764335420019,236.38733279200096,None,No response,Images/Speaker1.jpg,Images/Speaker2.jpg,Images/Speaker3.jpg,Images/Speaker4.jpg,Audio/Speaker2_Per/P2-19-Per.wav,Speaker1,گوینده ۱,,,,,,,,,,,,,,,,,,,002499,001,2024-06-30_16h34.41.052,5-24,2024.1.4,None,2024-06-30 16h34.46.520930 +0900,
,,,,,,,Images/Speaker1.jpg,Images/Speaker2.jpg,Images/Speaker3.jpg,Images/Speaker4.jpg,Audio/Speaker3_Per/P3-18-Per.wav,Speaker3,گوینده۳,,,,,,,,,,,,,0,31,31,57,,,,,,,,,238.67649600000004,,,,,,,,,,,,,,,,,,,,,,,,,,,,,,,,,,,,,,,,,,,,,,,,,,,,,,,,,,,,,,,,,,,,,,,,,,236.38748108300206,236.3981587920025,None,No response,Images/Speaker1.jpg,Images/Speaker2.jpg,Images/Speaker3.jpg,Images/Speaker4.jpg,Audio/Speaker3_Per/P3-18-Per.wav,Speaker1,گوینده ۱,,,,,,,,,,,,,,,,,,,002499,001,2024-06-30_16h34.41.052,5-24,2024.1.4,None,2024-06-30 16h34.46.520930 +0900,
,,,,,,,Images/Speaker1.jpg,Images/Speaker2.jpg,Images/Speaker3.jpg,Images/Speaker4.jpg,Audio/Speaker1_Per/P1-19-Per.wav,Speaker1,گوینده ۱,,,,,,,,,,,,,0,32,32,18,,,,,,,,,238.67649600000004,,,,,,,,,,,,,,,,,,,,,,,,,,,,,,,,,,,,,,,,,,,,,,,,,,,,,,,,,,,,,,,,,,,,,,,,,,236.39829691700288,236.40975316700133,None,No response,Images/Speaker1.jpg,Images/Speaker2.jpg,Images/Speaker3.jpg,Images/Speaker4.jpg,Audio/Speaker1_Per/P1-19-Per.wav,Speaker1,گوینده ۱,,,,,,,,,,,,,,,,,,,002499,001,2024-06-30_16h34.41.052,5-24,2024.1.4,None,2024-06-30 16h34.46.520930 +0900,
,,,,,,,Images/Speaker1.jpg,Images/Speaker2.jpg,Images/Speaker3.jpg,Images/Speaker4.jpg,Audio/Speaker4_Per/P4-6-Per.wav,Speaker4,گوینده۴,,,,,,,,,,,,,0,33,33,65,,,,,,,,,238.67649600000004,,,,,,,,,,,,,,,,,,,,,,,,,,,,,,,,,,,,,,,,,,,,,,,,,,,,,,,,,,,,,,,,,,,,,,,,,,236.40989987500143,236.42089941700033,None,No response,Images/Speaker1.jpg,Images/Speaker2.jpg,Images/Speaker3.jpg,Images/Speaker4.jpg,Audio/Speaker4_Per/P4-6-Per.wav,Speaker1,گوینده ۱,,,,,,,,,,,,,,,,,,,002499,001,2024-06-30_16h34.41.052,5-24,2024.1.4,None,2024-06-30 16h34.46.520930 +0900,
,,,,,,,Images/Speaker1.jpg,Images/Speaker2.jpg,Images/Speaker3.jpg,Images/Speaker4.jpg,Audio/Speaker1_Per/P1-9-Per.wav,Speaker1,گوینده ۱,,,,,,,,,,,,,0,34,34,8,,,,,,,,,238.67649600000004,,,,,,,,,,,,,,,,,,,,,,,,,,,,,,,,,,,,,,,,,,,,,,,,,,,,,,,,,,,,,,,,,,,,,,,,,,236.42104279200066,236.43262795800183,None,No response,Images/Speaker1.jpg,Images/Speaker2.jpg,Images/Speaker3.jpg,Images/Speaker4.jpg,Audio/Speaker1_Per/P1-9-Per.wav,Speaker1,گوینده ۱,,,,,,,,,,,,,,,,,,,002499,001,2024-06-30_16h34.41.052,5-24,2024.1.4,None,2024-06-30 16h34.46.520930 +0900,
,,,,,,,Images/Speaker1.jpg,Images/Speaker2.jpg,Images/Speaker3.jpg,Images/Speaker4.jpg,Audio/Speaker3_Per/P3-2-Per.wav,Speaker3,گوینده۳,,,,,,,,,,,,,0,35,35,41,,,,,,,,,238.67649600000004,,,,,,,,,,,,,,,,,,,,,,,,,,,,,,,,,,,,,,,,,,,,,,,,,,,,,,,,,,,,,,,,,,,,,,,,,,236.43277387500348,236.44482812500064,None,No response,Images/Speaker1.jpg,Images/Speaker2.jpg,Images/Speaker3.jpg,Images/Speaker4.jpg,Audio/Speaker3_Per/P3-2-Per.wav,Speaker1,گوینده ۱,,,,,,,,,,,,,,,,,,,002499,001,2024-06-30_16h34.41.052,5-24,2024.1.4,None,2024-06-30 16h34.46.520930 +0900,
,,,,,,,Images/Speaker1.jpg,Images/Speaker2.jpg,Images/Speaker3.jpg,Images/Speaker4.jpg,Audio/Speaker4_Per/P4-2-Per.wav,Speaker4,گوینده۴,,,,,,,,,,,,,0,36,36,61,,,,,,,,,238.67649600000004,,,,,,,,,,,,,,,,,,,,,,,,,,,,,,,,,,,,,,,,,,,,,,,,,,,,,,,,,,,,,,,,,,,,,,,,,,236.44497379200038,236.45685204200345,None,No response,Images/Speaker1.jpg,Images/Speaker2.jpg,Images/Speaker3.jpg,Images/Speaker4.jpg,Audio/Speaker4_Per/P4-2-Per.wav,Speaker1,گوینده ۱,,,,,,,,,,,,,,,,,,,002499,001,2024-06-30_16h34.41.052,5-24,2024.1.4,None,2024-06-30 16h34.46.520930 +0900,
,,,,,,,Images/Speaker1.jpg,Images/Speaker2.jpg,Images/Speaker3.jpg,Images/Speaker4.jpg,Audio/Speaker1_Per/P1-18-Per.wav,Speaker1,گوینده ۱,,,,,,,,,,,,,0,37,37,17,,,,,,,,,238.67649600000004,,,,,,,,,,,,,,,,,,,,,,,,,,,,,,,,,,,,,,,,,,,,,,,,,,,,,,,,,,,,,,,,,,,,,,,,,,236.4569952080019,236.46779445800348,None,No response,Images/Speaker1.jpg,Images/Speaker2.jpg,Images/Speaker3.jpg,Images/Speaker4.jpg,Audio/Speaker1_Per/P1-18-Per.wav,Speaker1,گوینده ۱,,,,,,,,,,,,,,,,,,,002499,001,2024-06-30_16h34.41.052,5-24,2024.1.4,None,2024-06-30 16h34.46.520930 +0900,
,,,,,,,Images/Speaker1.jpg,Images/Speaker2.jpg,Images/Speaker3.jpg,Images/Speaker4.jpg,Audio/Speaker4_Per/P4-15-Per.wav,Speaker4,گوینده۴,,,,,,,,,,,,,0,38,38,74,,,,,,,,,238.67649600000004,,,,,,,,,,,,,,,,,,,,,,,,,,,,,,,,,,,,,,,,,,,,,,,,,,,,,,,,,,,,,,,,,,,,,,,,,,236.46793487500327,236.4794507080005,None,No response,Images/Speaker1.jpg,Images/Speaker2.jpg,Images/Speaker3.jpg,Images/Speaker4.jpg,Audio/Speaker4_Per/P4-15-Per.wav,Speaker1,گوینده ۱,,,,,,,,,,,,,,,,,,,002499,001,2024-06-30_16h34.41.052,5-24,2024.1.4,None,2024-06-30 16h34.46.520930 +0900,
,,,,,,,Images/Speaker1.jpg,Images/Speaker2.jpg,Images/Speaker3.jpg,Images/Speaker4.jpg,Audio/Speaker3_Per/P3-16-Per.wav,Speaker3,گوینده۳,,,,,,,,,,,,,0,39,39,55,,,,,,,,,238.67649600000004,,,,,,,,,,,,,,,,,,,,,,,,,,,,,,,,,,,,,,,,,,,,,,,,,,,,,,,,,,,,,,,,,,,,,,,,,,236.47959829200045,236.49064679200092,None,No response,Images/Speaker1.jpg,Images/Speaker2.jpg,Images/Speaker3.jpg,Images/Speaker4.jpg,Audio/Speaker3_Per/P3-16-Per.wav,Speaker1,گوینده ۱,,,,,,,,,,,,,,,,,,,002499,001,2024-06-30_16h34.41.052,5-24,2024.1.4,None,2024-06-30 16h34.46.520930 +0900,
,,,,,,,Images/Speaker1.jpg,Images/Speaker2.jpg,Images/Speaker3.jpg,Images/Speaker4.jpg,Audio/Speaker2_Per/P2-10-Per.wav,Speaker2,گوینده۲,,,,,,,,,,,,,0,40,40,29,,,,,,,,,238.67649600000004,,,,,,,,,,,,,,,,,,,,,,,,,,,,,,,,,,,,,,,,,,,,,,,,,,,,,,,,,,,,,,,,,,,,,,,,,,236.49079025000174,236.50197562500034,None,No response,Images/Speaker1.jpg,Images/Speaker2.jpg,Images/Speaker3.jpg,Images/Speaker4.jpg,Audio/Speaker2_Per/P2-10-Per.wav,Speaker1,گوینده ۱,,,,,,,,,,,,,,,,,,,002499,001,2024-06-30_16h34.41.052,5-24,2024.1.4,None,2024-06-30 16h34.46.520930 +0900,
,,,,,,,Images/Speaker1.jpg,Images/Speaker2.jpg,Images/Speaker3.jpg,Images/Speaker4.jpg,Audio/Speaker2_Per/P2-2-Per.wav,Speaker2,گوینده۲,,,,,,,,,,,,,0,41,41,21,,,,,,,,,238.67649600000004,,,,,,,,,,,,,,,,,,,,,,,,,,,,,,,,,,,,,,,,,,,,,,,,,,,,,,,,,,,,,,,,,,,,,,,,,,236.50211787500302,236.51360312500037,None,No response,Images/Speaker1.jpg,Images/Speaker2.jpg,Images/Speaker3.jpg,Images/Speaker4.jpg,Audio/Speaker2_Per/P2-2-Per.wav,Speaker1,گوینده ۱,,,,,,,,,,,,,,,,,,,002499,001,2024-06-30_16h34.41.052,5-24,2024.1.4,None,2024-06-30 16h34.46.520930 +0900,
,,,,,,,Images/Speaker1.jpg,Images/Speaker2.jpg,Images/Speaker3.jpg,Images/Speaker4.jpg,Audio/Speaker4_Per/P4-11-Per.wav,Speaker4,گوینده۴,,,,,,,,,,,,,0,42,42,70,,,,,,,,,238.67649600000004,,,,,,,,,,,,,,,,,,,,,,,,,,,,,,,,,,,,,,,,,,,,,,,,,,,,,,,,,,,,,,,,,,,,,,,,,,236.51373937500102,236.52540662500178,None,No response,Images/Speaker1.jpg,Images/Speaker2.jpg,Images/Speaker3.jpg,Images/Speaker4.jpg,Audio/Speaker4_Per/P4-11-Per.wav,Speaker1,گوینده ۱,,,,,,,,,,,,,,,,,,,002499,001,2024-06-30_16h34.41.052,5-24,2024.1.4,None,2024-06-30 16h34.46.520930 +0900,
,,,,,,,Images/Speaker1.jpg,Images/Speaker2.jpg,Images/Speaker3.jpg,Images/Speaker4.jpg,Audio/Speaker4_Per/P4-13-Per.wav,Speaker4,گوینده۴,,,,,,,,,,,,,0,43,43,72,,,,,,,,,238.67649600000004,,,,,,,,,,,,,,,,,,,,,,,,,,,,,,,,,,,,,,,,,,,,,,,,,,,,,,,,,,,,,,,,,,,,,,,,,,236.52555720800228,236.53695954200157,None,No response,Images/Speaker1.jpg,Images/Speaker2.jpg,Images/Speaker3.jpg,Images/Speaker4.jpg,Audio/Speaker4_Per/P4-13-Per.wav,Speaker1,گوینده ۱,,,,,,,,,,,,,,,,,,,002499,001,2024-06-30_16h34.41.052,5-24,2024.1.4,None,2024-06-30 16h34.46.520930 +0900,
,,,,,,,Images/Speaker1.jpg,Images/Speaker2.jpg,Images/Speaker3.jpg,Images/Speaker4.jpg,Audio/Speaker2_Per/P2-4-Per.wav,Speaker2,گوینده۲,,,,,,,,,,,,,0,44,44,23,,,,,,,,,238.67649600000004,,,,,,,,,,,,,,,,,,,,,,,,,,,,,,,,,,,,,,,,,,,,,,,,,,,,,,,,,,,,,,,,,,,,,,,,,,236.53710025000328,236.54830137500176,None,No response,Images/Speaker1.jpg,Images/Speaker2.jpg,Images/Speaker3.jpg,Images/Speaker4.jpg,Audio/Speaker2_Per/P2-4-Per.wav,Speaker1,گوینده ۱,,,,,,,,,,,,,,,,,,,002499,001,2024-06-30_16h34.41.052,5-24,2024.1.4,None,2024-06-30 16h34.46.520930 +0900,
,,,,,,,Images/Speaker1.jpg,Images/Speaker2.jpg,Images/Speaker3.jpg,Images/Speaker4.jpg,Audio/Speaker3_Per/P3-3-Per.wav,Speaker3,گوینده۳,,,,,,,,,,,,,0,45,45,42,,,,,,,,,238.67649600000004,,,,,,,,,,,,,,,,,,,,,,,,,,,,,,,,,,,,,,,,,,,,,,,,,,,,,,,,,,,,,,,,,,,,,,,,,,236.54844470800163,236.55946212500203,None,No response,Images/Speaker1.jpg,Images/Speaker2.jpg,Images/Speaker3.jpg,Images/Speaker4.jpg,Audio/Speaker3_Per/P3-3-Per.wav,Speaker1,گوینده ۱,,,,,,,,,,,,,,,,,,,002499,001,2024-06-30_16h34.41.052,5-24,2024.1.4,None,2024-06-30 16h34.46.520930 +0900,
,,,,,,,Images/Speaker1.jpg,Images/Speaker2.jpg,Images/Speaker3.jpg,Images/Speaker4.jpg,Audio/Speaker2_Per/P2-12-Per.wav,Speaker2,گوینده۲,,,,,,,,,,,,,0,46,46,31,,,,,,,,,238.67649600000004,,,,,,,,,,,,,,,,,,,,,,,,,,,,,,,,,,,,,,,,,,,,,,,,,,,,,,,,,,,,,,,,,,,,,,,,,,236.55961670800025,236.57111454200276,None,No response,Images/Speaker1.jpg,Images/Speaker2.jpg,Images/Speaker3.jpg,Images/Speaker4.jpg,Audio/Speaker2_Per/P2-12-Per.wav,Speaker1,گوینده ۱,,,,,,,,,,,,,,,,,,,002499,001,2024-06-30_16h34.41.052,5-24,2024.1.4,None,2024-06-30 16h34.46.520930 +0900,
,,,,,,,Images/Speaker1.jpg,Images/Speaker2.jpg,Images/Speaker3.jpg,Images/Speaker4.jpg,Audio/Speaker4_Per/P4-20-Per.wav,Speaker4,گوینده۴,,,,,,,,,,,,,0,47,47,79,,,,,,,,,238.67649600000004,,,,,,,,,,,,,,,,,,,,,,,,,,,,,,,,,,,,,,,,,,,,,,,,,,,,,,,,,,,,,,,,,,,,,,,,,,236.571260333003,236.581868958001,None,No response,Images/Speaker1.jpg,Images/Speaker2.jpg,Images/Speaker3.jpg,Images/Speaker4.jpg,Audio/Speaker4_Per/P4-20-Per.wav,Speaker1,گوینده ۱,,,,,,,,,,,,,,,,,,,002499,001,2024-06-30_16h34.41.052,5-24,2024.1.4,None,2024-06-30 16h34.46.520930 +0900,
,,,,,,,Images/Speaker1.jpg,Images/Speaker2.jpg,Images/Speaker3.jpg,Images/Speaker4.jpg,Audio/Speaker3_Per/P3-19-Per.wav,Speaker3,گوینده۳,,,,,,,,,,,,,0,48,48,58,,,,,,,,,238.67649600000004,,,,,,,,,,,,,,,,,,,,,,,,,,,,,,,,,,,,,,,,,,,,,,,,,,,,,,,,,,,,,,,,,,,,,,,,,,236.5820161670017,236.5935278750003,None,No response,Images/Speaker1.jpg,Images/Speaker2.jpg,Images/Speaker3.jpg,Images/Speaker4.jpg,Audio/Speaker3_Per/P3-19-Per.wav,Speaker1,گوینده ۱,,,,,,,,,,,,,,,,,,,002499,001,2024-06-30_16h34.41.052,5-24,2024.1.4,None,2024-06-30 16h34.46.520930 +0900,
,,,,,,,Images/Speaker1.jpg,Images/Speaker2.jpg,Images/Speaker3.jpg,Images/Speaker4.jpg,Audio/Speaker3_Per/P3-6-Per.wav,Speaker3,گوینده۳,,,,,,,,,,,,,0,49,49,45,,,,,,,,,238.67649600000004,,,,,,,,,,,,,,,,,,,,,,,,,,,,,,,,,,,,,,,,,,,,,,,,,,,,,,,,,,,,,,,,,,,,,,,,,,236.5936673330034,236.6052045000033,None,No response,Images/Speaker1.jpg,Images/Speaker2.jpg,Images/Speaker3.jpg,Images/Speaker4.jpg,Audio/Speaker3_Per/P3-6-Per.wav,Speaker1,گوینده ۱,,,,,,,,,,,,,,,,,,,002499,001,2024-06-30_16h34.41.052,5-24,2024.1.4,None,2024-06-30 16h34.46.520930 +0900,
,,,,,,,Images/Speaker1.jpg,Images/Speaker2.jpg,Images/Speaker3.jpg,Images/Speaker4.jpg,Audio/Speaker3_Per/P3-8-Per.wav,Speaker3,گوینده۳,,,,,,,,,,,,,0,50,50,47,,,,,,,,,238.67649600000004,,,,,,,,,,,,,,,,,,,,,,,,,,,,,,,,,,,,,,,,,,,,,,,,,,,,,,,,,,,,,,,,,,,,,,,,,,236.60534591700343,236.6166052080007,None,No response,Images/Speaker1.jpg,Images/Speaker2.jpg,Images/Speaker3.jpg,Images/Speaker4.jpg,Audio/Speaker3_Per/P3-8-Per.wav,Speaker1,گوینده ۱,,,,,,,,,,,,,,,,,,,002499,001,2024-06-30_16h34.41.052,5-24,2024.1.4,None,2024-06-30 16h34.46.520930 +0900,
,,,,,,,Images/Speaker1.jpg,Images/Speaker2.jpg,Images/Speaker3.jpg,Images/Speaker4.jpg,Audio/Speaker2_Per/P2-6-Per.wav,Speaker2,گوینده۲,,,,,,,,,,,,,0,51,51,25,,,,,,,,,238.67649600000004,,,,,,,,,,,,,,,,,,,,,,,,,,,,,,,,,,,,,,,,,,,,,,,,,,,,,,,,,,,,,,,,,,,,,,,,,,236.61674841700005,236.6275080000014,None,No response,Images/Speaker1.jpg,Images/Speaker2.jpg,Images/Speaker3.jpg,Images/Speaker4.jpg,Audio/Speaker2_Per/P2-6-Per.wav,Speaker1,گوینده ۱,,,,,,,,,,,,,,,,,,,002499,001,2024-06-30_16h34.41.052,5-24,2024.1.4,None,2024-06-30 16h34.46.520930 +0900,
,,,,,,,Images/Speaker1.jpg,Images/Speaker2.jpg,Images/Speaker3.jpg,Images/Speaker4.jpg,Audio/Speaker1_Per/P1-15-Per.wav,Speaker1,گوینده ۱,,,,,,,,,,,,,0,52,52,14,,,,,,,,,238.67649600000004,,,,,,,,,,,,,,,,,,,,,,,,,,,,,,,,,,,,,,,,,,,,,,,,,,,,,,,,,,,,,,,,,,,,,,,,,,236.62764475000222,236.639042625,None,No response,Images/Speaker1.jpg,Images/Speaker2.jpg,Images/Speaker3.jpg,Images/Speaker4.jpg,Audio/Speaker1_Per/P1-15-Per.wav,Speaker1,گوینده ۱,,,,,,,,,,,,,,,,,,,002499,001,2024-06-30_16h34.41.052,5-24,2024.1.4,None,2024-06-30 16h34.46.520930 +0900,
,,,,,,,Images/Speaker1.jpg,Images/Speaker2.jpg,Images/Speaker3.jpg,Images/Speaker4.jpg,Audio/Speaker3_Per/P3-11-Per.wav,Speaker3,گوینده۳,,,,,,,,,,,,,0,53,53,50,,,,,,,,,238.67649600000004,,,,,,,,,,,,,,,,,,,,,,,,,,,,,,,,,,,,,,,,,,,,,,,,,,,,,,,,,,,,,,,,,,,,,,,,,,236.6391778330035,236.65118812500077,None,No response,Images/Speaker1.jpg,Images/Speaker2.jpg,Images/Speaker3.jpg,Images/Speaker4.jpg,Audio/Speaker3_Per/P3-11-Per.wav,Speaker1,گوینده ۱,,,,,,,,,,,,,,,,,,,002499,001,2024-06-30_16h34.41.052,5-24,2024.1.4,None,2024-06-30 16h34.46.520930 +0900,
,,,,,,,Images/Speaker1.jpg,Images/Speaker2.jpg,Images/Speaker3.jpg,Images/Speaker4.jpg,Audio/Speaker3_Per/P3-4-Per.wav,Speaker3,گوینده۳,,,,,,,,,,,,,0,54,54,43,,,,,,,,,238.67649600000004,,,,,,,,,,,,,,,,,,,,,,,,,,,,,,,,,,,,,,,,,,,,,,,,,,,,,,,,,,,,,,,,,,,,,,,,,,236.6513261250002,236.66329354200207,None,No response,Images/Speaker1.jpg,Images/Speaker2.jpg,Images/Speaker3.jpg,Images/Speaker4.jpg,Audio/Speaker3_Per/P3-4-Per.wav,Speaker1,گوینده ۱,,,,,,,,,,,,,,,,,,,002499,001,2024-06-30_16h34.41.052,5-24,2024.1.4,None,2024-06-30 16h34.46.520930 +0900,
,,,,,,,Images/Speaker1.jpg,Images/Speaker2.jpg,Images/Speaker3.jpg,Images/Speaker4.jpg,Audio/Speaker4_Per/P4-8-Per.wav,Speaker4,گوینده۴,,,,,,,,,,,,,0,55,55,67,,,,,,,,,238.67649600000004,,,,,,,,,,,,,,,,,,,,,,,,,,,,,,,,,,,,,,,,,,,,,,,,,,,,,,,,,,,,,,,,,,,,,,,,,,236.66344500000196,236.67491200000222,None,No response,Images/Speaker1.jpg,Images/Speaker2.jpg,Images/Speaker3.jpg,Images/Speaker4.jpg,Audio/Speaker4_Per/P4-8-Per.wav,Speaker1,گوینده ۱,,,,,,,,,,,,,,,,,,,002499,001,2024-06-30_16h34.41.052,5-24,2024.1.4,None,2024-06-30 16h34.46.520930 +0900,
,,,,,,,Images/Speaker1.jpg,Images/Speaker2.jpg,Images/Speaker3.jpg,Images/Speaker4.jpg,Audio/Speaker4_Per/P4-9-Per.wav,Speaker4,گوینده۴,,,,,,,,,,,,,0,56,56,68,,,,,,,,,238.67649600000004,,,,,,,,,,,,,,,,,,,,,,,,,,,,,,,,,,,,,,,,,,,,,,,,,,,,,,,,,,,,,,,,,,,,,,,,,,236.67505437500222,236.68601237500116,None,No response,Images/Speaker1.jpg,Images/Speaker2.jpg,Images/Speaker3.jpg,Images/Speaker4.jpg,Audio/Speaker4_Per/P4-9-Per.wav,Speaker1,گوینده ۱,,,,,,,,,,,,,,,,,,,002499,001,2024-06-30_16h34.41.052,5-24,2024.1.4,None,2024-06-30 16h34.46.520930 +0900,
,,,,,,,Images/Speaker1.jpg,Images/Speaker2.jpg,Images/Speaker3.jpg,Images/Speaker4.jpg,Audio/Speaker2_Per/P2-11-Per.wav,Speaker2,گوینده۲,,,,,,,,,,,,,0,57,57,30,,,,,,,,,238.67649600000004,,,,,,,,,,,,,,,,,,,,,,,,,,,,,,,,,,,,,,,,,,,,,,,,,,,,,,,,,,,,,,,,,,,,,,,,,,236.68616275000022,236.6975099170013,None,No response,Images/Speaker1.jpg,Images/Speaker2.jpg,Images/Speaker3.jpg,Images/Speaker4.jpg,Audio/Speaker2_Per/P2-11-Per.wav,Speaker1,گوینده ۱,,,,,,,,,,,,,,,,,,,002499,001,2024-06-30_16h34.41.052,5-24,2024.1.4,None,2024-06-30 16h34.46.520930 +0900,
,,,,,,,Images/Speaker1.jpg,Images/Speaker2.jpg,Images/Speaker3.jpg,Images/Speaker4.jpg,Audio/Speaker1_Per/P1-20-Per.wav,Speaker1,گوینده ۱,,,,,,,,,,,,,0,58,58,19,,,,,,,,,238.67649600000004,,,,,,,,,,,,,,,,,,,,,,,,,,,,,,,,,,,,,,,,,,,,,,,,,,,,,,,,,,,,,,,,,,,,,,,,,,236.69764758300153,236.70875420800076,None,No response,Images/Speaker1.jpg,Images/Speaker2.jpg,Images/Speaker3.jpg,Images/Speaker4.jpg,Audio/Speaker1_Per/P1-20-Per.wav,Speaker1,گوینده ۱,,,,,,,,,,,,,,,,,,,002499,001,2024-06-30_16h34.41.052,5-24,2024.1.4,None,2024-06-30 16h34.46.520930 +0900,
,,,,,,,Images/Speaker1.jpg,Images/Speaker2.jpg,Images/Speaker3.jpg,Images/Speaker4.jpg,Audio/Speaker3_Per/P3-12-Per.wav,Speaker3,گوینده۳,,,,,,,,,,,,,0,59,59,51,,,,,,,,,238.67649600000004,,,,,,,,,,,,,,,,,,,,,,,,,,,,,,,,,,,,,,,,,,,,,,,,,,,,,,,,,,,,,,,,,,,,,,,,,,236.7088961670015,236.71999337500165,None,No response,Images/Speaker1.jpg,Images/Speaker2.jpg,Images/Speaker3.jpg,Images/Speaker4.jpg,Audio/Speaker3_Per/P3-12-Per.wav,Speaker1,گوینده ۱,,,,,,,,,,,,,,,,,,,002499,001,2024-06-30_16h34.41.052,5-24,2024.1.4,None,2024-06-30 16h34.46.520930 +0900,
,,,,,,,Images/Speaker1.jpg,Images/Speaker2.jpg,Images/Speaker3.jpg,Images/Speaker4.jpg,Audio/Speaker3_Per/P3-9-Per.wav,Speaker3,گوینده۳,,,,,,,,,,,,,0,60,60,48,,,,,,,,,238.67649600000004,,,,,,,,,,,,,,,,,,,,,,,,,,,,,,,,,,,,,,,,,,,,,,,,,,,,,,,,,,,,,,,,,,,,,,,,,,236.7201293750004,236.73129333300312,None,No response,Images/Speaker1.jpg,Images/Speaker2.jpg,Images/Speaker3.jpg,Images/Speaker4.jpg,Audio/Speaker3_Per/P3-9-Per.wav,Speaker1,گوینده ۱,,,,,,,,,,,,,,,,,,,002499,001,2024-06-30_16h34.41.052,5-24,2024.1.4,None,2024-06-30 16h34.46.520930 +0900,
,,,,,,,Images/Speaker1.jpg,Images/Speaker2.jpg,Images/Speaker3.jpg,Images/Speaker4.jpg,Audio/Speaker3_Per/P3-7-Per.wav,Speaker3,گوینده۳,,,,,,,,,,,,,0,61,61,46,,,,,,,,,238.67649600000004,,,,,,,,,,,,,,,,,,,,,,,,,,,,,,,,,,,,,,,,,,,,,,,,,,,,,,,,,,,,,,,,,,,,,,,,,,236.73143250000066,236.74231004200192,None,No response,Images/Speaker1.jpg,Images/Speaker2.jpg,Images/Speaker3.jpg,Images/Speaker4.jpg,Audio/Speaker3_Per/P3-7-Per.wav,Speaker1,گوینده ۱,,,,,,,,,,,,,,,,,,,002499,001,2024-06-30_16h34.41.052,5-24,2024.1.4,None,2024-06-30 16h34.46.520930 +0900,
,,,,,,,Images/Speaker1.jpg,Images/Speaker2.jpg,Images/Speaker3.jpg,Images/Speaker4.jpg,Audio/Speaker4_Per/P4-19-Per.wav,Speaker4,گوینده۴,,,,,,,,,,,,,0,62,62,78,,,,,,,,,238.67649600000004,,,,,,,,,,,,,,,,,,,,,,,,,,,,,,,,,,,,,,,,,,,,,,,,,,,,,,,,,,,,,,,,,,,,,,,,,,236.74244841700056,236.75382204200287,None,No response,Images/Speaker1.jpg,Images/Speaker2.jpg,Images/Speaker3.jpg,Images/Speaker4.jpg,Audio/Speaker4_Per/P4-19-Per.wav,Speaker1,گوینده ۱,,,,,,,,,,,,,,,,,,,002499,001,2024-06-30_16h34.41.052,5-24,2024.1.4,None,2024-06-30 16h34.46.520930 +0900,
,,,,,,,Images/Speaker1.jpg,Images/Speaker2.jpg,Images/Speaker3.jpg,Images/Speaker4.jpg,Audio/Speaker2_Per/P2-13-Per.wav,Speaker2,گوینده۲,,,,,,,,,,,,,0,63,63,32,,,,,,,,,238.67649600000004,,,,,,,,,,,,,,,,,,,,,,,,,,,,,,,,,,,,,,,,,,,,,,,,,,,,,,,,,,,,,,,,,,,,,,,,,,236.7539627920014,236.76535408300333,None,No response,Images/Speaker1.jpg,Images/Speaker2.jpg,Images/Speaker3.jpg,Images/Speaker4.jpg,Audio/Speaker2_Per/P2-13-Per.wav,Speaker1,گوینده ۱,,,,,,,,,,,,,,,,,,,002499,001,2024-06-30_16h34.41.052,5-24,2024.1.4,None,2024-06-30 16h34.46.520930 +0900,
,,,,,,,Images/Speaker1.jpg,Images/Speaker2.jpg,Images/Speaker3.jpg,Images/Speaker4.jpg,Audio/Speaker3_Per/P3-10-Per.wav,Speaker3,گوینده۳,,,,,,,,,,,,,0,64,64,49,,,,,,,,,238.67649600000004,,,,,,,,,,,,,,,,,,,,,,,,,,,,,,,,,,,,,,,,,,,,,,,,,,,,,,,,,,,,,,,,,,,,,,,,,,236.76549991700085,236.7771420420031,None,No response,Images/Speaker1.jpg,Images/Speaker2.jpg,Images/Speaker3.jpg,Images/Speaker4.jpg,Audio/Speaker3_Per/P3-10-Per.wav,Speaker1,گوینده ۱,,,,,,,,,,,,,,,,,,,002499,001,2024-06-30_16h34.41.052,5-24,2024.1.4,None,2024-06-30 16h34.46.520930 +0900,
,,,,,,,Images/Speaker1.jpg,Images/Speaker2.jpg,Images/Speaker3.jpg,Images/Speaker4.jpg,Audio/Speaker3_Per/P3-13-Per.wav,Speaker3,گوینده۳,,,,,,,,,,,,,0,65,65,52,,,,,,,,,238.67649600000004,,,,,,,,,,,,,,,,,,,,,,,,,,,,,,,,,,,,,,,,,,,,,,,,,,,,,,,,,,,,,,,,,,,,,,,,,,236.7772817920013,236.78891487500005,None,No response,Images/Speaker1.jpg,Images/Speaker2.jpg,Images/Speaker3.jpg,Images/Speaker4.jpg,Audio/Speaker3_Per/P3-13-Per.wav,Speaker1,گوینده ۱,,,,,,,,,,,,,,,,,,,002499,001,2024-06-30_16h34.41.052,5-24,2024.1.4,None,2024-06-30 16h34.46.520930 +0900,
,,,,,,,Images/Speaker1.jpg,Images/Speaker2.jpg,Images/Speaker3.jpg,Images/Speaker4.jpg,Audio/Speaker2_Per/P2-7-Per.wav,Speaker2,گوینده۲,,,,,,,,,,,,,0,66,66,26,,,,,,,,,238.67649600000004,,,,,,,,,,,,,,,,,,,,,,,,,,,,,,,,,,,,,,,,,,,,,,,,,,,,,,,,,,,,,,,,,,,,,,,,,,236.78906520800228,236.8001383330011,None,No response,Images/Speaker1.jpg,Images/Speaker2.jpg,Images/Speaker3.jpg,Images/Speaker4.jpg,Audio/Speaker2_Per/P2-7-Per.wav,Speaker1,گوینده ۱,,,,,,,,,,,,,,,,,,,002499,001,2024-06-30_16h34.41.052,5-24,2024.1.4,None,2024-06-30 16h34.46.520930 +0900,
,,,,,,,Images/Speaker1.jpg,Images/Speaker2.jpg,Images/Speaker3.jpg,Images/Speaker4.jpg,Audio/Speaker3_Per/P3-15-Per.wav,Speaker3,گوینده۳,,,,,,,,,,,,,0,67,67,54,,,,,,,,,238.67649600000004,,,,,,,,,,,,,,,,,,,,,,,,,,,,,,,,,,,,,,,,,,,,,,,,,,,,,,,,,,,,,,,,,,,,,,,,,,236.80028120800125,236.81239916699997,None,No response,Images/Speaker1.jpg,Images/Speaker2.jpg,Images/Speaker3.jpg,Images/Speaker4.jpg,Audio/Speaker3_Per/P3-15-Per.wav,Speaker1,گوینده ۱,,,,,,,,,,,,,,,,,,,002499,001,2024-06-30_16h34.41.052,5-24,2024.1.4,None,2024-06-30 16h34.46.520930 +0900,
,,,,,,,Images/Speaker1.jpg,Images/Speaker2.jpg,Images/Speaker3.jpg,Images/Speaker4.jpg,Audio/Speaker1_Per/P1-2-Per.wav,Speaker1,گوینده ۱,,,,,,,,,,,,,0,68,68,1,,,,,,,,,238.67649600000004,,,,,,,,,,,,,,,,,,,,,,,,,,,,,,,,,,,,,,,,,,,,,,,,,,,,,,,,,,,,,,,,,,,,,,,,,,236.8125457080023,236.82393308300016,None,No response,Images/Speaker1.jpg,Images/Speaker2.jpg,Images/Speaker3.jpg,Images/Speaker4.jpg,Audio/Speaker1_Per/P1-2-Per.wav,Speaker1,گوینده ۱,,,,,,,,,,,,,,,,,,,002499,001,2024-06-30_16h34.41.052,5-24,2024.1.4,None,2024-06-30 16h34.46.520930 +0900,
,,,,,,,Images/Speaker1.jpg,Images/Speaker2.jpg,Images/Speaker3.jpg,Images/Speaker4.jpg,Audio/Speaker1_Per/P1-13-Per.wav,Speaker1,گوینده ۱,,,,,,,,,,,,,0,69,69,12,,,,,,,,,238.67649600000004,,,,,,,,,,,,,,,,,,,,,,,,,,,,,,,,,,,,,,,,,,,,,,,,,,,,,,,,,,,,,,,,,,,,,,,,,,236.82407012500335,236.83555783300108,None,No response,Images/Speaker1.jpg,Images/Speaker2.jpg,Images/Speaker3.jpg,Images/Speaker4.jpg,Audio/Speaker1_Per/P1-13-Per.wav,Speaker1,گوینده ۱,,,,,,,,,,,,,,,,,,,002499,001,2024-06-30_16h34.41.052,5-24,2024.1.4,None,2024-06-30 16h34.46.520930 +0900,
,,,,,,,Images/Speaker1.jpg,Images/Speaker2.jpg,Images/Speaker3.jpg,Images/Speaker4.jpg,Audio/Speaker2_Per/P2-18-Per.wav,Speaker2,گوینده۲,,,,,,,,,,,,,0,70,70,37,,,,,,,,,238.67649600000004,,,,,,,,,,,,,,,,,,,,,,,,,,,,,,,,,,,,,,,,,,,,,,,,,,,,,,,,,,,,,,,,,,,,,,,,,,236.83570341700033,236.84650950000287,None,No response,Images/Speaker1.jpg,Images/Speaker2.jpg,Images/Speaker3.jpg,Images/Speaker4.jpg,Audio/Speaker2_Per/P2-18-Per.wav,Speaker1,گوینده ۱,,,,,,,,,,,,,,,,,,,002499,001,2024-06-30_16h34.41.052,5-24,2024.1.4,None,2024-06-30 16h34.46.520930 +0900,
,,,,,,,Images/Speaker1.jpg,Images/Speaker2.jpg,Images/Speaker3.jpg,Images/Speaker4.jpg,Audio/Speaker1_Per/P1-10-Per.wav,Speaker1,گوینده ۱,,,,,,,,,,,,,0,71,71,9,,,,,,,,,238.67649600000004,,,,,,,,,,,,,,,,,,,,,,,,,,,,,,,,,,,,,,,,,,,,,,,,,,,,,,,,,,,,,,,,,,,,,,,,,,236.8466512920022,236.85846137500266,None,No response,Images/Speaker1.jpg,Images/Speaker2.jpg,Images/Speaker3.jpg,Images/Speaker4.jpg,Audio/Speaker1_Per/P1-10-Per.wav,Speaker1,گوینده ۱,,,,,,,,,,,,,,,,,,,002499,001,2024-06-30_16h34.41.052,5-24,2024.1.4,None,2024-06-30 16h34.46.520930 +0900,
,,,,,,,Images/Speaker1.jpg,Images/Speaker2.jpg,Images/Speaker3.jpg,Images/Speaker4.jpg,Audio/Speaker3_Per/P3-17-Per.wav,Speaker3,گوینده۳,,,,,,,,,,,,,0,72,72,56,,,,,,,,,238.67649600000004,,,,,,,,,,,,,,,,,,,,,,,,,,,,,,,,,,,,,,,,,,,,,,,,,,,,,,,,,,,,,,,,,,,,,,,,,,236.85860358300124,236.8693619580008,None,No response,Images/Speaker1.jpg,Images/Speaker2.jpg,Images/Speaker3.jpg,Images/Speaker4.jpg,Audio/Speaker3_Per/P3-17-Per.wav,Speaker1,گوینده ۱,,,,,,,,,,,,,,,,,,,002499,001,2024-06-30_16h34.41.052,5-24,2024.1.4,None,2024-06-30 16h34.46.520930 +0900,
