SpeakerImage1,SpeakerImage2,SpeakerImage3,SpeakerImage4,TrainingSound,EnglishCorrectAnswer,PersianCorrectAnswer,SpeakerPhoto1,SpeakerPhoto2,SpeakerPhoto3,SpeakerPhoto4,TestingSound,EnglishCorrectResponse,PersianCorrectResponse,repeated_TrainingLoopGroup1.thisRepN,repeated_TrainingLoopGroup1.thisTrialN,repeated_TrainingLoopGroup1.thisN,repeated_TrainingLoopGroup1.thisIndex,TrainingLoopGroup1.thisRepN,TrainingLoopGroup1.thisTrialN,TrainingLoopGroup1.thisN,TrainingLoopGroup1.thisIndex,testPhase1Loop.thisRepN,testPhase1Loop.thisTrialN,testPhase1Loop.thisN,testPhase1Loop.thisIndex,thisRow.t,notes,trial.started,trial.stopped,GroupSelection.started,GroupInstructions.started,key_resp.started,GroupSelection.stopped,key_resp.keys,key_resp.rt,key_resp.duration,HeadphoneCheck.started,text_13.started,mouse.started,checkbox.started,HeadphoneCheck.stopped,mouse.x,mouse.y,mouse.leftButton,mouse.midButton,mouse.rightButton,mouse.time,mouse.clicked_name,Headphone_Used,Introduction.started,text_2.started,text_2.stopped,image.started,sound_8.started,text_4.started,image.stopped,text_4.stopped,image_7.started,sound_10.started,text_5.started,image_7.stopped,text_5.stopped,image_8.started,sound_12.started,text_6.started,image_8.stopped,text_6.stopped,image_9.started,sound_14.started,text_7.started,image_9.stopped,text_7.stopped,Introduction.stopped,Instructions.started,InstructionText.started,InstructionText.stopped,Instructions.stopped,Countdown.started,number1.started,number1.stopped,number2.started,number2.stopped,number3.started,number3.stopped,start.started,start.stopped,silence.started,silence.stopped,Countdown.stopped,InitializeExperiment.started,InitializeExperiment.stopped,TrainingGroup1.started,image_1.started,image_2.started,image_3.started,image_4.started,sound1.started,Instruction.started,ResponseKey.started,SessionNumberText.started,TrainingGroup1.stopped,feedbackText,correct_responses_group1,total_trials_group1,ResponseKey.keys,ResponseKey.rt,ResponseKey.duration,FeedbackRoutine1.started,FeedbackText.started,FeedbackText.stopped,FeedbackRoutine1.stopped,Break.started,Break.stopped,mouse1.x,mouse1.y,mouse1.leftButton,mouse1.midButton,mouse1.rightButton,mouse1.time,mouse1.clicked_name,Proceed_Break,break_message.started,mouse1.started,checkbox1.started,text_component.started,CheckAccuracy1.started,accuracy_group1,proceed_to_test,CheckAccuracy1.stopped,WelcomeTest.started,text_12.started,text_12.stopped,WelcomeTest.stopped,TestPhase1.started,test1_image1.started,test1_image2.started,test1_image3.started,test1_image4.started,test1_sound.started,text_3.started,test1_response_keyboard.started,TestPhase1.stopped,test1_response_keyboard.keys,test1_response_keyboard.rt,test1_response_keyboard.duration,test1_response,test1_image_file1,test1_image_file2,test1_image_file3,test1_image_file4,test1_sound_file,english_correct_answer,persian_correct_answer,Finish.started,text_11.started,text_11.stopped,Finish.stopped,participant,session,date,expName,psychopyVersion,frameRate,expStart,
,,,,,,,,,,,,,,,,,,,,,,,,,,,,0.00837600000159,0.008682040999701712,,,,,,,,,,,,,,,,,,,,,,,,,,,,,,,,,,,,,,,,,,,,,,,,,,,,,,,,,,,,,,,,,,,,,,,,,,,,,,,,,,,,,,,,,,,,,,,,,,,,,,,,,,,,,,,,,,,,,,,,,,,,,,,,,004714,001,2024-08-04_14h29.33.713,5-34 ready-monolingual persian speaker,2024.1.5,None,2024-08-04 14h29.38.746552 +0900,
,,,,,,,,,,,,,,,,,,,,,,,,,,,,,,0.008699000001797685,0.01284062500053551,0.01284062500053551,1.4971508330017969,1,1.4431882499993662,None,,,,,,,,,,,,,,,,,,,,,,,,,,,,,,,,,,,,,,,,,,,,,,,,,,,,,,,,,,,,,,,,,,,,,,,,,,,,,,,,,,,,,,,,,,,,,,,,,,,,,,,,,,,,,,,,,,,,,,,,,,004714,001,2024-08-04_14h29.33.713,5-34 ready-monolingual persian speaker,2024.1.5,None,2024-08-04 14h29.38.746552 +0900,
,,,,,,,,,,,,,,,,,,,,,,,,,,,,,,,,,,,,,1.4972000000016124,1.5091171660023974,0.0002231660000688862,1.5091171660023974,1.9227462080016267,[-0.03054989816700611],[0.1415478615071283],[1],[0],[0],[0.4249466670007678],[],False,,,,,,,,,,,,,,,,,,,,,,,,,,,,,,,,,,,,,,,,,,,,,,,,,,,,,,,,,,,,,,,,,,,,,,,,,,,,,,,,,,,,,,,,,,,,,,,,,,,,,,,,,,,,,004714,001,2024-08-04_14h29.33.713,5-34 ready-monolingual persian speaker,2024.1.5,None,2024-08-04 14h29.38.746552 +0900,
,,,,,,,,,,,,,,,,,,,,,,,,,,,,,,,,,,,,,,,,,,,,,,,,,,1.922888666002109,1.9627666250016773,6.957182666003064,8.920401082999888,8.931942416668123,8.920401082999888,13.916065958001127,13.916065958001127,16.91345808299957,16.92350645766807,16.91345808299957,21.9034189160011,21.9034189160011,24.919674583001324,24.92844487466961,24.919674583001324,29.917052666001837,29.917052666001837,32.9138944160004,32.92489974966908,32.9138944160004,37.90632462500071,37.90632462500071,37.897933125001146,,,,,,,,,,,,,,,,,,,,,,,,,,,,,,,,,,,,,,,,,,,,,,,,,,,,,,,,,,,,,,,,,,,,,,,,,,,,,,,,,,,,,004714,001,2024-08-04_14h29.33.713,5-34 ready-monolingual persian speaker,2024.1.5,None,2024-08-04 14h29.38.746552 +0900,
,,,,,,,,,,,,,,,,,,,,,,,,,,,,,,,,,,,,,,,,,,,,,,,,,,,,,,,,,,,,,,,,,,,,,,,,,,37.89796475000185,37.912514999999985,47.905323958002555,47.902596625001024,,,,,,,,,,,,,,,,,,,,,,,,,,,,,,,,,,,,,,,,,,,,,,,,,,,,,,,,,,,,,,,,,,,,,,,,,,,,,,,,,004714,001,2024-08-04_14h29.33.713,5-34 ready-monolingual persian speaker,2024.1.5,None,2024-08-04 14h29.38.746552 +0900,
,,,,,,,,,,,,,,,,,,,,,,,,,,,,,,,,,,,,,,,,,,,,,,,,,,,,,,,,,,,,,,,,,,,,,,,,,,,,,,47.90261250000185,47.91970633300298,48.91611866600215,49.41538962500272,50.41621629099973,50.91445608300273,51.916916291000234,52.41424258299958,54.41159016600068,54.41684570800135,56.480103166002664,56.400163916001475,,,,,,,,,,,,,,,,,,,,,,,,,,,,,,,,,,,,,,,,,,,,,,,,,,,,,,,,,,,,,,,,,,,,,004714,001,2024-08-04_14h29.33.713,5-34 ready-monolingual persian speaker,2024.1.5,None,2024-08-04 14h29.38.746552 +0900,
,,,,,,,,,,,,,,,,,,,,,,,,,,,,,,,,,,,,,,,,,,,,,,,,,,,,,,,,,,,,,,,,,,,,,,,,,,,,,,,,,,,,,,,,,,56.400177791001624,56.40031875000204,,,,,,,,,,,,,,,,,,,,,,,,,,,,,,,,,,,,,,,,,,,,,,,,,,,,,,,,,,,,,,,,,,,004714,001,2024-08-04_14h29.33.713,5-34 ready-monolingual persian speaker,2024.1.5,None,2024-08-04 14h29.38.746552 +0900,
Images/Speaker1.jpg,Images/Speaker2.jpg,Images/Speaker3.jpg,Images/Speaker4.jpg,Audio/Speaker3_Per/P3-16-Per.wav,Speaker3,گوینده۳,,,,,,,,0,0,0,42,0,0,0,55,,,,,56.480103166002664,,,,,,,,,,,,,,,,,,,,,,,,,,,,,,,,,,,,,,,,,,,,,,,,,,,,,,,,,,,,,,,,,,56.452151958001195,56.480103166002664,56.480103166002664,56.480103166002664,56.480103166002664,56.48326637433396,56.480103166002664,56.480103166002664,56.480103166002664,59.882888000000094,صحیح است,1,1,3,3.393811124999047,None,59.88332729100148,59.894546833002096,61.90367425000295,61.877560750002885,61.87757000000056,61.87769166600265,[],[],[],[],[],[],[],False,,,,,,,,,,,,,,,,,,,,,,,,,,,,,,,,,,,,,004714,001,2024-08-04_14h29.33.713,5-34 ready-monolingual persian speaker,2024.1.5,None,2024-08-04 14h29.38.746552 +0900,
Images/Speaker1.jpg,Images/Speaker2.jpg,Images/Speaker3.jpg,Images/Speaker4.jpg,Audio/Speaker1_Per/P1-8-Per.wav,Speaker1,گوینده ۱,,,,,,,,0,0,0,42,0,1,1,7,,,,,61.90367425000295,,,,,,,,,,,,,,,,,,,,,,,,,,,,,,,,,,,,,,,,,,,,,,,,,,,,,,,,,,,,,,,,,,61.87846070800151,61.90367425000295,61.90367425000295,61.90367425000295,61.90367425000295,61.91069537433626,61.90367425000295,61.90367425000295,61.90367425000295,63.80466654100019,صحیح است,2,2,1,1.892713500001264,None,63.808447166000406,63.81665595800223,65.82966541600035,65.80265691600289,65.80268529100067,65.80309229100021,[],[],[],[],[],[],[],False,,,,,,,,,,,,,,,,,,,,,,,,,,,,,,,,,,,,,004714,001,2024-08-04_14h29.33.713,5-34 ready-monolingual persian speaker,2024.1.5,None,2024-08-04 14h29.38.746552 +0900,
Images/Speaker1.jpg,Images/Speaker2.jpg,Images/Speaker3.jpg,Images/Speaker4.jpg,Audio/Speaker4_Per/P4-4-Per.wav,Speaker4,گوینده۴,,,,,,,,0,0,0,42,0,2,2,63,,,,,65.82966541600035,,,,,,,,,,,,,,,,,,,,,,,,,,,,,,,,,,,,,,,,,,,,,,,,,,,,,,,,,,,,,,,,,,65.80466354100281,65.82966541600035,65.82966541600035,65.82966541600035,65.82966541600035,65.83528420833366,65.82966541600035,65.82966541600035,65.82966541600035,67.10650887500015,صحیح است,3,3,4,1.2757979170019098,None,67.111135500003,67.12262391600234,69.13808537500154,69.10940358300286,69.10941475000072,69.10956258300212,[],[],[],[],[],[],[],False,,,,,,,,,,,,,,,,,,,,,,,,,,,,,,,,,,,,,004714,001,2024-08-04_14h29.33.713,5-34 ready-monolingual persian speaker,2024.1.5,None,2024-08-04 14h29.38.746552 +0900,
Images/Speaker1.jpg,Images/Speaker2.jpg,Images/Speaker3.jpg,Images/Speaker4.jpg,Audio/Speaker1_Per/P1-9-Per.wav,Speaker1,گوینده ۱,,,,,,,,0,0,0,42,0,3,3,8,,,,,69.13808537500154,,,,,,,,,,,,,,,,,,,,,,,,,,,,,,,,,,,,,,,,,,,,,,,,,,,,,,,,,,,,,,,,,,69.11051791600039,69.13808537500154,69.13808537500154,69.13808537500154,69.13808537500154,69.14250974933432,69.13808537500154,69.13808537500154,69.13808537500154,70.55932333300007,صحیح است,4,4,1,1.4139288340011262,None,70.56315195800198,70.57416716599982,72.58237937500235,72.55686429100024,72.55688041600297,72.55699783300224,[],[],[],[],[],[],[],False,,,,,,,,,,,,,,,,,,,,,,,,,,,,,,,,,,,,,004714,001,2024-08-04_14h29.33.713,5-34 ready-monolingual persian speaker,2024.1.5,None,2024-08-04 14h29.38.746552 +0900,
Images/Speaker1.jpg,Images/Speaker2.jpg,Images/Speaker3.jpg,Images/Speaker4.jpg,Audio/Speaker3_Per/P3-14-Per.wav,Speaker3,گوینده۳,,,,,,,,0,0,0,42,0,4,4,53,,,,,72.58237937500235,,,,,,,,,,,,,,,,,,,,,,,,,,,,,,,,,,,,,,,,,,,,,,,,,,,,,,,,,,,,,,,,,,72.55741441600185,72.58237937500235,72.58237937500235,72.58237937500235,72.58237937500235,72.58998633333297,72.58237937500235,72.58237937500235,72.58237937500235,73.9384077499999,صحیح است,5,5,3,1.3535822910016577,None,73.94223183299982,73.95296670800235,75.96884895800031,75.94287145800263,75.94289745800052,75.94319862500197,[],[],[],[],[],[],[],False,,,,,,,,,,,,,,,,,,,,,,,,,,,,,,,,,,,,,004714,001,2024-08-04_14h29.33.713,5-34 ready-monolingual persian speaker,2024.1.5,None,2024-08-04 14h29.38.746552 +0900,
Images/Speaker1.jpg,Images/Speaker2.jpg,Images/Speaker3.jpg,Images/Speaker4.jpg,Audio/Speaker1_Per/P1-17-Per.wav,Speaker1,گوینده ۱,,,,,,,,0,0,0,42,0,5,5,16,,,,,75.96884895800031,,,,,,,,,,,,,,,,,,,,,,,,,,,,,,,,,,,,,,,,,,,,,,,,,,,,,,,,,,,,,,,,,,75.94435404100295,75.96884895800031,75.96884895800031,75.96884895800031,75.96884895800031,75.97540441633512,75.96884895800031,75.96884895800031,75.96884895800031,77.30499029100247,صحیح است,6,6,1,1.3344760410000163,None,77.30899095800123,77.31970095799988,,79.31076791600208,79.31077804100278,79.31089450000218,[],[],[],[],[],[],[],False,,,,,,,,,,,,,,,,,,,,,,,,,,,,,,,,,,,,,004714,001,2024-08-04_14h29.33.713,5-34 ready-monolingual persian speaker,2024.1.5,None,2024-08-04 14h29.38.746552 +0900,
Images/Speaker1.jpg,Images/Speaker2.jpg,Images/Speaker3.jpg,Images/Speaker4.jpg,Audio/Speaker4_Per/P4-19-Per.wav,Speaker4,گوینده۴,,,,,,,,0,0,0,42,0,6,6,78,,,,,79.33740616599971,,,,,,,,,,,,,,,,,,,,,,,,,,,,,,,,,,,,,,,,,,,,,,,,,,,,,,,,,,,,,,,,,,79.31131120800273,79.33740616599971,79.33740616599971,79.33740616599971,79.33740616599971,79.34405916633526,79.33740616599971,79.33740616599971,79.33740616599971,80.61362729100074,صحیح است,7,7,4,1.267918915997143,None,80.61754045800262,80.62552933299958,82.63780970800144,82.61341054100194,82.61342024999976,82.61354100000244,[],[],[],[],[],[],[],False,,,,,,,,,,,,,,,,,,,,,,,,,,,,,,,,,,,,,004714,001,2024-08-04_14h29.33.713,5-34 ready-monolingual persian speaker,2024.1.5,None,2024-08-04 14h29.38.746552 +0900,
Images/Speaker1.jpg,Images/Speaker2.jpg,Images/Speaker3.jpg,Images/Speaker4.jpg,Audio/Speaker3_Per/P3-10-Per.wav,Speaker3,گوینده۳,,,,,,,,0,0,0,42,0,7,7,49,,,,,82.63780970800144,,,,,,,,,,,,,,,,,,,,,,,,,,,,,,,,,,,,,,,,,,,,,,,,,,,,,,,,,,,,,,,,,,82.613996125001,82.63780970800144,82.63780970800144,82.63780970800144,82.63780970800144,82.6465579993351,82.63780970800144,82.63780970800144,82.63780970800144,84.43524841600083,صحیح است,8,8,3,1.793384500000684,None,84.43941229100164,84.45034808300261,86.46255462500267,86.43816095800139,86.43817083300019,86.43828804100121,[],[],[],[],[],[],[],False,,,,,,,,,,,,,,,,,,,,,,,,,,,,,,,,,,,,,004714,001,2024-08-04_14h29.33.713,5-34 ready-monolingual persian speaker,2024.1.5,None,2024-08-04 14h29.38.746552 +0900,
Images/Speaker1.jpg,Images/Speaker2.jpg,Images/Speaker3.jpg,Images/Speaker4.jpg,Audio/Speaker2_Per/P2-7-Per.wav,Speaker2,گوینده۲,,,,,,,,0,0,0,42,0,8,8,26,,,,,86.46255462500267,,,,,,,,,,,,,,,,,,,,,,,,,,,,,,,,,,,,,,,,,,,,,,,,,,,,,,,,,,,,,,,,,,86.43874816600146,86.46255462500267,86.46255462500267,86.46255462500267,86.46255462500267,86.4712323333338,86.46255462500267,86.46255462500267,86.46255462500267,88.03481366600317,صحیح است,9,9,2,1.5696123330017144,None,88.03885320799964,88.0498719160023,90.06073825000203,90.03633587500008,90.03636950000146,90.03683504100263,[],[],[],[],[],[],[],False,,,,,,,,,,,,,,,,,,,,,,,,,,,,,,,,,,,,,004714,001,2024-08-04_14h29.33.713,5-34 ready-monolingual persian speaker,2024.1.5,None,2024-08-04 14h29.38.746552 +0900,
Images/Speaker1.jpg,Images/Speaker2.jpg,Images/Speaker3.jpg,Images/Speaker4.jpg,Audio/Speaker4_Per/P4-17-Per.wav,Speaker4,گوینده۴,,,,,,,,0,0,0,42,0,9,9,76,,,,,90.06073825000203,,,,,,,,,,,,,,,,,,,,,,,,,,,,,,,,,,,,,,,,,,,,,,,,,,,,,,,,,,,,,,,,,,90.0377513750027,90.06073825000203,90.06073825000203,90.06073825000203,90.06073825000203,90.06878795833521,90.06073825000203,90.06073825000203,90.06073825000203,91.52569145800226,صحیح است,10,10,4,1.462780958001531,None,91.52984070800085,91.54095291600242,,93.53459379100241,93.5346301660029,93.53502579100314,[],[],[],[],[],[],[],False,,,,,,,,,,,,,,,,,,,,,,,,,,,,,,,,,,,,,004714,001,2024-08-04_14h29.33.713,5-34 ready-monolingual persian speaker,2024.1.5,None,2024-08-04 14h29.38.746552 +0900,
Images/Speaker1.jpg,Images/Speaker2.jpg,Images/Speaker3.jpg,Images/Speaker4.jpg,Audio/Speaker2_Per/P2-2-Per.wav,Speaker2,گوینده۲,,,,,,,,0,0,0,42,0,10,10,21,,,,,93.56230545800281,,,,,,,,,,,,,,,,,,,,,,,,,,,,,,,,,,,,,,,,,,,,,,,,,,,,,,,,,,,,,,,,,,93.53642050000053,93.56230545800281,93.56230545800281,93.56230545800281,93.56230545800281,93.56771362433622,93.56230545800281,93.56230545800281,93.56230545800281,94.65590283300116,صحیح است,11,11,2,1.0901814160024514,None,94.66014783300125,94.67098920799981,96.68192837500101,96.65859045800244,96.65859954100233,96.6587084160019,[],[],[],[],[],[],[],False,,,,,,,,,,,,,,,,,,,,,,,,,,,,,,,,,,,,,004714,001,2024-08-04_14h29.33.713,5-34 ready-monolingual persian speaker,2024.1.5,None,2024-08-04 14h29.38.746552 +0900,
Images/Speaker1.jpg,Images/Speaker2.jpg,Images/Speaker3.jpg,Images/Speaker4.jpg,Audio/Speaker1_Per/P1-12-Per.wav,Speaker1,گوینده ۱,,,,,,,,0,0,0,42,0,11,11,11,,,,,96.68192837500101,,,,,,,,,,,,,,,,,,,,,,,,,,,,,,,,,,,,,,,,,,,,,,,,,,,,,,,,,,,,,,,,,,96.65917329100193,96.68192837500101,96.68192837500101,96.68192837500101,96.68192837500101,96.67503783266899,96.68192837500101,96.68192837500101,96.68192837500101,98.22135574999993,صحیح است,12,12,1,1.537733749999461,None,98.22517941600017,98.23630200000116,100.24787412500154,100.22488437500215,100.2248940410027,100.2250148330022,[],[],[],[],[],[],[],False,,,,,,,,,,,,,,,,,,,,,,,,,,,,,,,,,,,,,004714,001,2024-08-04_14h29.33.713,5-34 ready-monolingual persian speaker,2024.1.5,None,2024-08-04 14h29.38.746552 +0900,
Images/Speaker1.jpg,Images/Speaker2.jpg,Images/Speaker3.jpg,Images/Speaker4.jpg,Audio/Speaker2_Per/P2-10-Per.wav,Speaker2,گوینده۲,,,,,,,,0,0,0,42,0,12,12,29,,,,,100.24787412500154,,,,,,,,,,,,,,,,,,,,,,,,,,,,,,,,,,,,,,,,,,,,,,,,,,,,,,,,,,,,,,,,,,100.22542287500255,100.24787412500154,100.24787412500154,100.24787412500154,100.24787412500154,100.2413439996674,100.24787412500154,100.24787412500154,100.24787412500154,101.228685666003,صحیح است,13,13,2,0.9681639160007762,None,101.23275445800027,101.24323837500197,,103.23457300000155,103.23460529099975,103.23497883300297,[],[],[],[],[],[],[],False,,,,,,,,,,,,,,,,,,,,,,,,,,,,,,,,,,,,,004714,001,2024-08-04_14h29.33.713,5-34 ready-monolingual persian speaker,2024.1.5,None,2024-08-04 14h29.38.746552 +0900,
Images/Speaker1.jpg,Images/Speaker2.jpg,Images/Speaker3.jpg,Images/Speaker4.jpg,Audio/Speaker2_Per/P2-1-Per.wav,Speaker2,گوینده۲,,,,,,,,0,0,0,42,0,13,13,20,,,,,103.26193641600184,,,,,,,,,,,,,,,,,,,,,,,,,,,,,,,,,,,,,,,,,,,,,,,,,,,,,,,,,,,,,,,,,,103.23634049999964,103.26193641600184,103.26193641600184,103.26193641600184,103.26193641600184,103.2677171243345,103.26193641600184,103.26193641600184,103.26193641600184,104.52635891600221,صحیح است,14,14,2,1.257029833002889,None,104.53019766600119,104.54621275000318,,106.5322743329998,106.53228329100239,106.53238225000314,[],[],[],[],[],[],[],False,,,,,,,,,,,,,,,,,,,,,,,,,,,,,,,,,,,,,004714,001,2024-08-04_14h29.33.713,5-34 ready-monolingual persian speaker,2024.1.5,None,2024-08-04 14h29.38.746552 +0900,
Images/Speaker1.jpg,Images/Speaker2.jpg,Images/Speaker3.jpg,Images/Speaker4.jpg,Audio/Speaker1_Per/P1-10-Per.wav,Speaker1,گوینده ۱,,,,,,,,0,0,0,42,0,14,14,9,,,,,106.55616687500151,,,,,,,,,,,,,,,,,,,,,,,,,,,,,,,,,,,,,,,,,,,,,,,,,,,,,,,,,,,,,,,,,,106.5328030410019,106.55616687500151,106.55616687500151,106.55616687500151,106.55616687500151,106.5655667493343,106.55616687500151,106.55616687500151,106.55616687500151,107.69749808300185,صحیح است,15,15,1,1.1402130419992318,None,107.70146408300207,107.71265854100056,,109.70920570800081,109.70921870800157,109.70932087500114,[],[],[],[],[],[],[],False,,,,,,,,,,,,,,,,,,,,,,,,,,,,,,,,,,,,,004714,001,2024-08-04_14h29.33.713,5-34 ready-monolingual persian speaker,2024.1.5,None,2024-08-04 14h29.38.746552 +0900,
Images/Speaker1.jpg,Images/Speaker2.jpg,Images/Speaker3.jpg,Images/Speaker4.jpg,Audio/Speaker3_Per/P3-1-Per.wav,Speaker3,گوینده۳,,,,,,,,0,0,0,42,0,15,15,40,,,,,109.73425962500187,,,,,,,,,,,,,,,,,,,,,,,,,,,,,,,,,,,,,,,,,,,,,,,,,,,,,,,,,,,,,,,,,,109.7097665830006,109.73425962500187,109.73425962500187,109.73425962500187,109.73425962500187,109.74250512433403,109.73425962500187,109.73425962500187,109.73425962500187,112.00223320800069,صحیح است,16,16,3,2.259764999998879,None,112.00619620799989,112.01485191600295,,114.01004637500228,114.01008391600044,114.01043904100152,[],[],[],[],[],[],[],False,,,,,,,,,,,,,,,,,,,,,,,,,,,,,,,,,,,,,004714,001,2024-08-04_14h29.33.713,5-34 ready-monolingual persian speaker,2024.1.5,None,2024-08-04 14h29.38.746552 +0900,
Images/Speaker1.jpg,Images/Speaker2.jpg,Images/Speaker3.jpg,Images/Speaker4.jpg,Audio/Speaker4_Per/P4-18-Per.wav,Speaker4,گوینده۴,,,,,,,,0,0,0,42,0,16,16,77,,,,,114.03662779099977,,,,,,,,,,,,,,,,,,,,,,,,,,,,,,,,,,,,,,,,,,,,,,,,,,,,,,,,,,,,,,,,,,114.01187312500042,114.03662779099977,114.03662779099977,114.03662779099977,114.03662779099977,114.04318041633499,114.03662779099977,114.03662779099977,114.03662779099977,115.22116104100132,نادرست! پاسخ صحیح گوینده۴ است,16,17,3,1.1760357499988459,None,115.22498483300296,115.23405412500142,,117.22627041600208,117.22630962500261,117.22674791600002,[],[],[],[],[],[],[],False,,,,,,,,,,,,,,,,,,,,,,,,,,,,,,,,,,,,,004714,001,2024-08-04_14h29.33.713,5-34 ready-monolingual persian speaker,2024.1.5,None,2024-08-04 14h29.38.746552 +0900,
Images/Speaker1.jpg,Images/Speaker2.jpg,Images/Speaker3.jpg,Images/Speaker4.jpg,Audio/Speaker3_Per/P3-17-Per.wav,Speaker3,گوینده۳,,,,,,,,0,0,0,42,0,17,17,56,,,,,117.25156404100198,,,,,,,,,,,,,,,,,,,,,,,,,,,,,,,,,,,,,,,,,,,,,,,,,,,,,,,,,,,,,,,,,,117.22816208299992,117.25156404100198,117.25156404100198,117.25156404100198,117.25156404100198,117.25941887433558,117.25156404100198,117.25156404100198,117.25156404100198,118.90987320800195,صحیح است,17,18,3,1.6557614159974037,None,118.91373304100125,118.92486570800247,120.93725720800285,120.91149566600143,120.91152195800169,120.91194908300167,[],[],[],[],[],[],[],False,,,,,,,,,,,,,,,,,,,,,,,,,,,,,,,,,,,,,004714,001,2024-08-04_14h29.33.713,5-34 ready-monolingual persian speaker,2024.1.5,None,2024-08-04 14h29.38.746552 +0900,
Images/Speaker1.jpg,Images/Speaker2.jpg,Images/Speaker3.jpg,Images/Speaker4.jpg,Audio/Speaker1_Per/P1-1-Per.wav,Speaker1,گوینده ۱,,,,,,,,0,0,0,42,0,18,18,0,,,,,120.93725720800285,,,,,,,,,,,,,,,,,,,,,,,,,,,,,,,,,,,,,,,,,,,,,,,,,,,,,,,,,,,,,,,,,,120.91354354100258,120.93725720800285,120.93725720800285,120.93725720800285,120.93725720800285,120.94401429133407,120.93725720800285,120.93725720800285,120.93725720800285,122.2577158330023,صحیح است,18,19,1,1.3172436249988095,None,122.26149304100181,122.27252200000294,,124.26693279100073,124.2669618330001,124.26735991600071,[],[],[],[],[],[],[],False,,,,,,,,,,,,,,,,,,,,,,,,,,,,,,,,,,,,,004714,001,2024-08-04_14h29.33.713,5-34 ready-monolingual persian speaker,2024.1.5,None,2024-08-04 14h29.38.746552 +0900,
Images/Speaker1.jpg,Images/Speaker2.jpg,Images/Speaker3.jpg,Images/Speaker4.jpg,Audio/Speaker4_Per/P4-1-Per.wav,Speaker4,گوینده۴,,,,,,,,0,0,0,42,0,19,19,60,,,,,124.29687520800144,,,,,,,,,,,,,,,,,,,,,,,,,,,,,,,,,,,,,,,,,,,,,,,,,,,,,,,,,,,,,,,,,,124.2687842910018,124.29687520800144,124.29687520800144,124.29687520800144,124.29687520800144,124.30008849933486,124.29687520800144,124.29687520800144,124.29687520800144,125.66705083300258,صحیح است,19,20,4,1.3613589589986077,None,125.6709372080004,125.68198358300288,127.69612041599976,127.66998541599969,127.67001312499997,127.67052366600183,[],[],[],[],[],[],[],False,,,,,,,,,,,,,,,,,,,,,,,,,,,,,,,,,,,,,004714,001,2024-08-04_14h29.33.713,5-34 ready-monolingual persian speaker,2024.1.5,None,2024-08-04 14h29.38.746552 +0900,
Images/Speaker1.jpg,Images/Speaker2.jpg,Images/Speaker3.jpg,Images/Speaker4.jpg,Audio/Speaker3_Per/P3-12-Per.wav,Speaker3,گوینده۳,,,,,,,,0,0,0,42,0,20,20,51,,,,,127.69612041599976,,,,,,,,,,,,,,,,,,,,,,,,,,,,,,,,,,,,,,,,,,,,,,,,,,,,,,,,,,,,,,,,,,127.67222191600013,127.69612041599976,127.69612041599976,127.69612041599976,127.69612041599976,127.70240154133401,127.69612041599976,127.69612041599976,127.69612041599976,129.11348158300098,نادرست! پاسخ صحیح گوینده۳ است,19,21,2,1.414652625000599,None,129.11750833300175,129.12948341599986,131.14381845800017,131.11833450000267,131.1183617500028,131.11868991600204,[],[],[],[],[],[],[],False,,,,,,,,,,,,,,,,,,,,,,,,,,,,,,,,,,,,,004714,001,2024-08-04_14h29.33.713,5-34 ready-monolingual persian speaker,2024.1.5,None,2024-08-04 14h29.38.746552 +0900,
Images/Speaker1.jpg,Images/Speaker2.jpg,Images/Speaker3.jpg,Images/Speaker4.jpg,Audio/Speaker1_Per/P1-3-Per.wav,Speaker1,گوینده ۱,,,,,,,,0,0,0,42,0,21,21,2,,,,,131.14381845800017,,,,,,,,,,,,,,,,,,,,,,,,,,,,,,,,,,,,,,,,,,,,,,,,,,,,,,,,,,,,,,,,,,131.12008541600153,131.14381845800017,131.14381845800017,131.14381845800017,131.14381845800017,131.15077254133627,131.14381845800017,131.14381845800017,131.14381845800017,132.42643533299997,صحیح است,20,22,1,1.281289624999772,None,132.43065125000066,132.44136620800055,134.44765700000062,134.42449979100275,134.4245079579996,134.42461983300018,[],[],[],[],[],[],[],False,,,,,,,,,,,,,,,,,,,,,,,,,,,,,,,,,,,,,004714,001,2024-08-04_14h29.33.713,5-34 ready-monolingual persian speaker,2024.1.5,None,2024-08-04 14h29.38.746552 +0900,
Images/Speaker1.jpg,Images/Speaker2.jpg,Images/Speaker3.jpg,Images/Speaker4.jpg,Audio/Speaker1_Per/P1-18-Per.wav,Speaker1,گوینده ۱,,,,,,,,0,0,0,42,0,22,22,17,,,,,134.44765700000062,,,,,,,,,,,,,,,,,,,,,,,,,,,,,,,,,,,,,,,,,,,,,,,,,,,,,,,,,,,,,,,,,,134.42504550000012,134.44765700000062,134.44765700000062,134.44765700000062,134.44765700000062,134.44091116666849,134.44765700000062,134.44765700000062,134.44765700000062,135.4841148330015,صحیح است,21,23,1,1.0308946249970177,None,135.48816250000164,135.4988121660026,137.5119662500001,137.48635187500258,137.4863731660007,137.48678637500052,[],[],[],[],[],[],[],False,,,,,,,,,,,,,,,,,,,,,,,,,,,,,,,,,,,,,004714,001,2024-08-04_14h29.33.713,5-34 ready-monolingual persian speaker,2024.1.5,None,2024-08-04 14h29.38.746552 +0900,
Images/Speaker1.jpg,Images/Speaker2.jpg,Images/Speaker3.jpg,Images/Speaker4.jpg,Audio/Speaker1_Per/P1-2-Per.wav,Speaker1,گوینده ۱,,,,,,,,0,0,0,42,0,23,23,1,,,,,137.5119662500001,,,,,,,,,,,,,,,,,,,,,,,,,,,,,,,,,,,,,,,,,,,,,,,,,,,,,,,,,,,,,,,,,,137.48824400000012,137.5119662500001,137.5119662500001,137.5119662500001,137.5119662500001,137.51893166633505,137.5119662500001,137.5119662500001,137.5119662500001,138.72583908300294,صحیح است,22,24,1,1.2046888750010112,None,138.72974220800097,138.74073166600283,140.751196833,140.72646066600282,140.72648816600122,140.7267912080024,[],[],[],[],[],[],[],False,,,,,,,,,,,,,,,,,,,,,,,,,,,,,,,,,,,,,004714,001,2024-08-04_14h29.33.713,5-34 ready-monolingual persian speaker,2024.1.5,None,2024-08-04 14h29.38.746552 +0900,
Images/Speaker1.jpg,Images/Speaker2.jpg,Images/Speaker3.jpg,Images/Speaker4.jpg,Audio/Speaker2_Per/P2-18-Per.wav,Speaker2,گوینده۲,,,,,,,,0,0,0,42,0,24,24,37,,,,,140.751196833,,,,,,,,,,,,,,,,,,,,,,,,,,,,,,,,,,,,,,,,,,,,,,,,,,,,,,,,,,,,,,,,,,140.72809929100185,140.751196833,140.751196833,140.751196833,140.751196833,140.7588084993336,140.751196833,140.751196833,140.751196833,141.84217645800163,صحیح است,23,25,2,1.0855442909996782,None,141.84601670800112,141.85619383300218,143.86691120800242,143.84076533299958,143.84078762500212,143.8411242910006,[],[],[],[],[],[],[],False,,,,,,,,,,,,,,,,,,,,,,,,,,,,,,,,,,,,,004714,001,2024-08-04_14h29.33.713,5-34 ready-monolingual persian speaker,2024.1.5,None,2024-08-04 14h29.38.746552 +0900,
Images/Speaker1.jpg,Images/Speaker2.jpg,Images/Speaker3.jpg,Images/Speaker4.jpg,Audio/Speaker1_Per/P1-20-Per.wav,Speaker1,گوینده ۱,,,,,,,,0,0,0,42,0,25,25,19,,,,,143.86691120800242,,,,,,,,,,,,,,,,,,,,,,,,,,,,,,,,,,,,,,,,,,,,,,,,,,,,,,,,,,,,,,,,,,143.84266412500074,143.86691120800242,143.86691120800242,143.86691120800242,143.86691120800242,143.87335241633315,143.86691120800242,143.86691120800242,143.86691120800242,145.01894629100207,صحیح است,24,26,1,1.1411475839995546,None,145.02291462500216,145.03376525000203,147.04540791600084,147.01895758300088,147.0189820830019,147.0193868330025,[],[],[],[],[],[],[],False,,,,,,,,,,,,,,,,,,,,,,,,,,,,,,,,,,,,,004714,001,2024-08-04_14h29.33.713,5-34 ready-monolingual persian speaker,2024.1.5,None,2024-08-04 14h29.38.746552 +0900,
Images/Speaker1.jpg,Images/Speaker2.jpg,Images/Speaker3.jpg,Images/Speaker4.jpg,Audio/Speaker2_Per/P2-3-Per.wav,Speaker2,گوینده۲,,,,,,,,0,0,0,42,0,26,26,22,,,,,147.04540791600084,,,,,,,,,,,,,,,,,,,,,,,,,,,,,,,,,,,,,,,,,,,,,,,,,,,,,,,,,,,,,,,,,,147.02095737499985,147.04540791600084,147.04540791600084,147.04540791600084,147.04540791600084,147.05148379133294,147.04540791600084,147.04540791600084,147.04540791600084,148.09219945800214,صحیح است,25,27,2,1.0394958340002631,None,148.09637270800158,148.10720500000025,150.11790079099956,150.09389050000027,150.09389945800285,150.0940171250004,[],[],[],[],[],[],[],False,,,,,,,,,,,,,,,,,,,,,,,,,,,,,,,,,,,,,004714,001,2024-08-04_14h29.33.713,5-34 ready-monolingual persian speaker,2024.1.5,None,2024-08-04 14h29.38.746552 +0900,
Images/Speaker1.jpg,Images/Speaker2.jpg,Images/Speaker3.jpg,Images/Speaker4.jpg,Audio/Speaker3_Per/P3-8-Per.wav,Speaker3,گوینده۳,,,,,,,,0,0,0,42,0,27,27,47,,,,,150.11790079099956,,,,,,,,,,,,,,,,,,,,,,,,,,,,,,,,,,,,,,,,,,,,,,,,,,,,,,,,,,,,,,,,,,150.0944461250001,150.11790079099956,150.11790079099956,150.11790079099956,150.11790079099956,150.12701224933386,150.11790079099956,150.11790079099956,150.11790079099956,151.57595975000004,صحیح است,26,28,3,1.4550405830013915,None,151.57984520800164,151.59082104100162,,153.5846246660003,153.58466283300004,153.5850825000016,[],[],[],[],[],[],[],False,,,,,,,,,,,,,,,,,,,,,,,,,,,,,,,,,,,,,004714,001,2024-08-04_14h29.33.713,5-34 ready-monolingual persian speaker,2024.1.5,None,2024-08-04 14h29.38.746552 +0900,
Images/Speaker1.jpg,Images/Speaker2.jpg,Images/Speaker3.jpg,Images/Speaker4.jpg,Audio/Speaker1_Per/P1-6-Per.wav,Speaker1,گوینده ۱,,,,,,,,0,0,0,42,0,28,28,5,,,,,153.61063625000315,,,,,,,,,,,,,,,,,,,,,,,,,,,,,,,,,,,,,,,,,,,,,,,,,,,,,,,,,,,,,,,,,,153.58640345800086,153.61063625000315,153.61063625000315,153.61063625000315,153.61063625000315,153.61776058333322,153.61063625000315,153.61063625000315,153.61063625000315,154.85806858300202,صحیح است,27,29,1,1.2411904580003466,None,154.86197162499957,154.87237204100165,156.88448337500085,156.85994058300275,156.85996654100018,156.8602522910005,[],[],[],[],[],[],[],False,,,,,,,,,,,,,,,,,,,,,,,,,,,,,,,,,,,,,004714,001,2024-08-04_14h29.33.713,5-34 ready-monolingual persian speaker,2024.1.5,None,2024-08-04 14h29.38.746552 +0900,
Images/Speaker1.jpg,Images/Speaker2.jpg,Images/Speaker3.jpg,Images/Speaker4.jpg,Audio/Speaker4_Per/P4-15-Per.wav,Speaker4,گوینده۴,,,,,,,,0,0,0,42,0,29,29,74,,,,,156.88448337500085,,,,,,,,,,,,,,,,,,,,,,,,,,,,,,,,,,,,,,,,,,,,,,,,,,,,,,,,,,,,,,,,,,156.86148754100213,156.88448337500085,156.88448337500085,156.88448337500085,156.88448337500085,156.89233920833482,156.88448337500085,156.88448337500085,156.88448337500085,158.2958316660006,صحیح است,28,30,4,1.401364792000095,None,158.2998770000013,158.31100887499997,,160.30095575000087,160.30096533300093,160.30106529100158,[],[],[],[],[],[],[],False,,,,,,,,,,,,,,,,,,,,,,,,,,,,,,,,,,,,,004714,001,2024-08-04_14h29.33.713,5-34 ready-monolingual persian speaker,2024.1.5,None,2024-08-04 14h29.38.746552 +0900,
Images/Speaker1.jpg,Images/Speaker2.jpg,Images/Speaker3.jpg,Images/Speaker4.jpg,Audio/Speaker2_Per/P2-15-Per.wav,Speaker2,گوینده۲,,,,,,,,0,0,0,42,0,30,30,34,,,,,160.32440812500136,,,,,,,,,,,,,,,,,,,,,,,,,,,,,,,,,,,,,,,,,,,,,,,,,,,,,,,,,,,,,,,,,,160.30155354100134,160.32440812500136,160.32440812500136,160.32440812500136,160.32440812500136,160.31758629166896,160.32440812500136,160.32440812500136,160.32440812500136,161.68791708299977,صحیح است,29,31,2,1.352674833000492,None,161.69205512500048,161.70332712500021,163.71018741599983,163.68604683300146,163.68605645800199,163.68617266600268,[],[],[],[],[],[],[],False,,,,,,,,,,,,,,,,,,,,,,,,,,,,,,,,,,,,,004714,001,2024-08-04_14h29.33.713,5-34 ready-monolingual persian speaker,2024.1.5,None,2024-08-04 14h29.38.746552 +0900,
Images/Speaker1.jpg,Images/Speaker2.jpg,Images/Speaker3.jpg,Images/Speaker4.jpg,Audio/Speaker2_Per/P2-11-Per.wav,Speaker2,گوینده۲,,,,,,,,0,0,0,42,0,31,31,30,,,,,163.71018741599983,,,,,,,,,,,,,,,,,,,,,,,,,,,,,,,,,,,,,,,,,,,,,,,,,,,,,,,,,,,,,,,,,,163.68659124999976,163.71018741599983,163.71018741599983,163.71018741599983,163.71018741599983,163.71918612433416,163.71018741599983,163.71018741599983,163.71018741599983,165.255839458001,صحیح است,30,32,2,1.5413699590026226,None,165.25987845800046,165.27077770800315,167.2824714160015,167.25742883299972,167.2574521250026,167.257777791001,[],[],[],[],[],[],[],False,,,,,,,,,,,,,,,,,,,,,,,,,,,,,,,,,,,,,004714,001,2024-08-04_14h29.33.713,5-34 ready-monolingual persian speaker,2024.1.5,None,2024-08-04 14h29.38.746552 +0900,
Images/Speaker1.jpg,Images/Speaker2.jpg,Images/Speaker3.jpg,Images/Speaker4.jpg,Audio/Speaker4_Per/P4-20-Per.wav,Speaker4,گوینده۴,,,,,,,,0,0,0,42,0,32,32,79,,,,,167.2824714160015,,,,,,,,,,,,,,,,,,,,,,,,,,,,,,,,,,,,,,,,,,,,,,,,,,,,,,,,,,,,,,,,,,167.25905295800112,167.2824714160015,167.2824714160015,167.2824714160015,167.2824714160015,167.2901939583358,167.2824714160015,167.2824714160015,167.2824714160015,168.83461383300164,صحیح است,31,33,4,1.5466545420022157,None,168.83832829099993,168.85023787500177,,170.84086462500272,170.84087837500192,170.84098570800052,[],[],[],[],[],[],[],False,,,,,,,,,,,,,,,,,,,,,,,,,,,,,,,,,,,,,004714,001,2024-08-04_14h29.33.713,5-34 ready-monolingual persian speaker,2024.1.5,None,2024-08-04 14h29.38.746552 +0900,
Images/Speaker1.jpg,Images/Speaker2.jpg,Images/Speaker3.jpg,Images/Speaker4.jpg,Audio/Speaker4_Per/P4-16-Per.wav,Speaker4,گوینده۴,,,,,,,,0,0,0,42,0,33,33,75,,,,,170.86389225000312,,,,,,,,,,,,,,,,,,,,,,,,,,,,,,,,,,,,,,,,,,,,,,,,,,,,,,,,,,,,,,,,,,170.8413881660017,170.86389225000312,170.86389225000312,170.86389225000312,170.86389225000312,170.85749449966923,170.86389225000312,170.86389225000312,170.86389225000312,172.4476509160013,صحیح است,32,34,4,1.577794749999157,None,172.4519321250009,172.4631115000011,174.47335608300273,174.45062366600177,174.45063508300154,174.45073491600124,[],[],[],[],[],[],[],False,,,,,,,,,,,,,,,,,,,,,,,,,,,,,,,,,,,,,004714,001,2024-08-04_14h29.33.713,5-34 ready-monolingual persian speaker,2024.1.5,None,2024-08-04 14h29.38.746552 +0900,
Images/Speaker1.jpg,Images/Speaker2.jpg,Images/Speaker3.jpg,Images/Speaker4.jpg,Audio/Speaker2_Per/P2-12-Per.wav,Speaker2,گوینده۲,,,,,,,,0,0,0,42,0,34,34,31,,,,,174.47335608300273,,,,,,,,,,,,,,,,,,,,,,,,,,,,,,,,,,,,,,,,,,,,,,,,,,,,,,,,,,,,,,,,,,174.45114262500283,174.47335608300273,174.47335608300273,174.47335608300273,174.47335608300273,174.46704245766912,174.47335608300273,174.47335608300273,174.47335608300273,176.23881987500135,صحیح است,33,35,2,1.7622537089991965,None,176.24275504100297,176.2532362910024,178.26100062499972,178.23682358299993,178.2368344580027,178.23694866600272,[],[],[],[],[],[],[],False,,,,,,,,,,,,,,,,,,,,,,,,,,,,,,,,,,,,,004714,001,2024-08-04_14h29.33.713,5-34 ready-monolingual persian speaker,2024.1.5,None,2024-08-04 14h29.38.746552 +0900,
Images/Speaker1.jpg,Images/Speaker2.jpg,Images/Speaker3.jpg,Images/Speaker4.jpg,Audio/Speaker3_Per/P3-9-Per.wav,Speaker3,گوینده۳,,,,,,,,0,0,0,42,0,35,35,48,,,,,178.26100062499972,,,,,,,,,,,,,,,,,,,,,,,,,,,,,,,,,,,,,,,,,,,,,,,,,,,,,,,,,,,,,,,,,,178.23738816600235,178.26100062499972,178.26100062499972,178.26100062499972,178.26100062499972,178.26995633333405,178.26100062499972,178.26100062499972,178.26100062499972,179.92163212500236,صحیح است,34,36,3,1.6520706660012365,None,179.92557624999972,179.93374170800234,,181.92761175000123,181.9276241660009,181.92772791600146,[],[],[],[],[],[],[],False,,,,,,,,,,,,,,,,,,,,,,,,,,,,,,,,,,,,,004714,001,2024-08-04_14h29.33.713,5-34 ready-monolingual persian speaker,2024.1.5,None,2024-08-04 14h29.38.746552 +0900,
Images/Speaker1.jpg,Images/Speaker2.jpg,Images/Speaker3.jpg,Images/Speaker4.jpg,Audio/Speaker4_Per/P4-11-Per.wav,Speaker4,گوینده۴,,,,,,,,0,0,0,42,0,36,36,70,,,,,181.95109200000297,,,,,,,,,,,,,,,,,,,,,,,,,,,,,,,,,,,,,,,,,,,,,,,,,,,,,,,,,,,,,,,,,,181.92820429100175,181.95109200000297,181.95109200000297,181.95109200000297,181.95109200000297,181.9442401666677,181.95109200000297,181.95109200000297,181.95109200000297,183.3817581660005,صحیح است,35,37,4,1.4296176669995475,None,183.38600387500264,183.39696195800207,,185.39375641600054,185.39378616600152,185.39413737500217,[],[],[],[],[],[],[],False,,,,,,,,,,,,,,,,,,,,,,,,,,,,,,,,,,,,,004714,001,2024-08-04_14h29.33.713,5-34 ready-monolingual persian speaker,2024.1.5,None,2024-08-04 14h29.38.746552 +0900,
Images/Speaker1.jpg,Images/Speaker2.jpg,Images/Speaker3.jpg,Images/Speaker4.jpg,Audio/Speaker1_Per/P1-19-Per.wav,Speaker1,گوینده ۱,,,,,,,,0,0,0,42,0,37,37,18,,,,,185.4213260409997,,,,,,,,,,,,,,,,,,,,,,,,,,,,,,,,,,,,,,,,,,,,,,,,,,,,,,,,,,,,,,,,,,185.39555487500184,185.4213260409997,185.4213260409997,185.4213260409997,185.4213260409997,185.42691887433517,185.4213260409997,185.4213260409997,185.4213260409997,186.91368404100285,صحیح است,36,38,1,1.4894888749986421,None,186.91748375000316,186.92815887500183,188.9340575410024,188.9119072909998,188.91191687500032,188.91201929100134,[],[],[],[],[],[],[],False,,,,,,,,,,,,,,,,,,,,,,,,,,,,,,,,,,,,,004714,001,2024-08-04_14h29.33.713,5-34 ready-monolingual persian speaker,2024.1.5,None,2024-08-04 14h29.38.746552 +0900,
Images/Speaker1.jpg,Images/Speaker2.jpg,Images/Speaker3.jpg,Images/Speaker4.jpg,Audio/Speaker2_Per/P2-6-Per.wav,Speaker2,گوینده۲,,,,,,,,0,0,0,42,0,38,38,25,,,,,188.9340575410024,,,,,,,,,,,,,,,,,,,,,,,,,,,,,,,,,,,,,,,,,,,,,,,,,,,,,,,,,,,,,,,,,,188.91240870800175,188.9340575410024,188.9340575410024,188.9340575410024,188.9340575410024,188.92837979166896,188.9340575410024,188.9340575410024,188.9340575410024,190.22987087500223,صحیح است,37,39,2,1.291705625000759,None,190.23404458300138,190.24501670800237,,192.23543625000093,192.23545341600038,192.23556033299974,[],[],[],[],[],[],[],False,,,,,,,,,,,,,,,,,,,,,,,,,,,,,,,,,,,,,004714,001,2024-08-04_14h29.33.713,5-34 ready-monolingual persian speaker,2024.1.5,None,2024-08-04 14h29.38.746552 +0900,
Images/Speaker1.jpg,Images/Speaker2.jpg,Images/Speaker3.jpg,Images/Speaker4.jpg,Audio/Speaker4_Per/P4-7-Per.wav,Speaker4,گوینده۴,,,,,,,,0,0,0,42,0,39,39,66,,,,,192.25886758300112,,,,,,,,,,,,,,,,,,,,,,,,,,,,,,,,,,,,,,,,,,,,,,,,,,,,,,,,,,,,,,,,,,192.23595691599985,192.25886758300112,192.25886758300112,192.25886758300112,192.25886758300112,192.25206454166644,192.25886758300112,192.25886758300112,192.25886758300112,194.25605787500172,صحیح است,38,40,4,1.9941658329989878,None,194.26002979100303,194.2711589999999,,196.26034479100053,196.26035458300248,201.8279995410012,[0.007128309572301426],[-0.18635437881873726],[1],[0],[0],[5.563682624997455],['checkbox'],True,196.27479595800105,0.0004325840018282179,196.27479595800105,196.27479595800105,,,,,,,,,,,,,,,,,,,,,,,,,,,,,,,,,004714,001,2024-08-04_14h29.33.713,5-34 ready-monolingual persian speaker,2024.1.5,None,2024-08-04 14h29.38.746552 +0900,
Images/Speaker1.jpg,Images/Speaker2.jpg,Images/Speaker3.jpg,Images/Speaker4.jpg,Audio/Speaker2_Per/P2-8-Per.wav,Speaker2,گوینده۲,,,,,,,,0,0,0,42,0,40,40,27,,,,,201.8461277910028,,,,,,,,,,,,,,,,,,,,,,,,,,,,,,,,,,,,,,,,,,,,,,,,,,,,,,,,,,,,,,,,,,201.8283876250025,201.8461277910028,201.8461277910028,201.8461277910028,201.8461277910028,201.85666904133592,201.8461277910028,201.8461277910028,201.8461277910028,204.2974807080027,صحیح است,39,41,2,2.446837166997284,None,204.30164637500275,204.3125547080017,206.32212337500096,206.29907129099956,206.2990815000012,206.299195333002,[],[],[],[],[],[],[],False,,,,,,,,,,,,,,,,,,,,,,,,,,,,,,,,,,,,,004714,001,2024-08-04_14h29.33.713,5-34 ready-monolingual persian speaker,2024.1.5,None,2024-08-04 14h29.38.746552 +0900,
Images/Speaker1.jpg,Images/Speaker2.jpg,Images/Speaker3.jpg,Images/Speaker4.jpg,Audio/Speaker4_Per/P4-12-Per.wav,Speaker4,گوینده۴,,,,,,,,0,0,0,42,0,41,41,71,,,,,206.32212337500096,,,,,,,,,,,,,,,,,,,,,,,,,,,,,,,,,,,,,,,,,,,,,,,,,,,,,,,,,,,,,,,,,,206.29964066600223,206.32212337500096,206.32212337500096,206.32212337500096,206.32212337500096,206.31544712466737,206.32212337500096,206.32212337500096,206.32212337500096,207.93821158300125,صحیح است,40,42,4,1.6121929170003568,None,207.94227870800023,207.95382812500247,209.96514000000025,209.94054154100013,209.94058191600197,209.94107033300315,[],[],[],[],[],[],[],False,,,,,,,,,,,,,,,,,,,,,,,,,,,,,,,,,,,,,004714,001,2024-08-04_14h29.33.713,5-34 ready-monolingual persian speaker,2024.1.5,None,2024-08-04 14h29.38.746552 +0900,
Images/Speaker1.jpg,Images/Speaker2.jpg,Images/Speaker3.jpg,Images/Speaker4.jpg,Audio/Speaker4_Per/P4-5-Per.wav,Speaker4,گوینده۴,,,,,,,,0,0,0,42,0,42,42,64,,,,,209.96514000000025,,,,,,,,,,,,,,,,,,,,,,,,,,,,,,,,,,,,,,,,,,,,,,,,,,,,,,,,,,,,,,,,,,209.94267820800087,209.96514000000025,209.96514000000025,209.96514000000025,209.96514000000025,209.9730741663339,209.96514000000025,209.96514000000025,209.96514000000025,211.49559450000015,نادرست! پاسخ صحیح گوینده۴ است,40,43,1,1.5261619169978076,None,211.49949520800146,211.51096095800312,213.5228472500021,213.49776037500123,213.4977931659996,213.49812445800126,[],[],[],[],[],[],[],False,,,,,,,,,,,,,,,,,,,,,,,,,,,,,,,,,,,,,004714,001,2024-08-04_14h29.33.713,5-34 ready-monolingual persian speaker,2024.1.5,None,2024-08-04 14h29.38.746552 +0900,
Images/Speaker1.jpg,Images/Speaker2.jpg,Images/Speaker3.jpg,Images/Speaker4.jpg,Audio/Speaker3_Per/P3-5-Per.wav,Speaker3,گوینده۳,,,,,,,,0,0,0,42,0,43,43,44,,,,,213.5228472500021,,,,,,,,,,,,,,,,,,,,,,,,,,,,,,,,,,,,,,,,,,,,,,,,,,,,,,,,,,,,,,,,,,213.49952458299958,213.5228472500021,213.5228472500021,213.5228472500021,213.5228472500021,213.53019999933582,213.5228472500021,213.5228472500021,213.5228472500021,215.17031754100026,صحیح است,41,44,3,1.6464714590001677,None,215.1745447909998,215.1853411250013,217.19841095800075,217.17253795800207,217.17256616600207,217.17287633300293,[],[],[],[],[],[],[],False,,,,,,,,,,,,,,,,,,,,,,,,,,,,,,,,,,,,,004714,001,2024-08-04_14h29.33.713,5-34 ready-monolingual persian speaker,2024.1.5,None,2024-08-04 14h29.38.746552 +0900,
Images/Speaker1.jpg,Images/Speaker2.jpg,Images/Speaker3.jpg,Images/Speaker4.jpg,Audio/Speaker3_Per/P3-4-Per.wav,Speaker3,گوینده۳,,,,,,,,0,0,0,42,0,44,44,43,,,,,217.19841095800075,,,,,,,,,,,,,,,,,,,,,,,,,,,,,,,,,,,,,,,,,,,,,,,,,,,,,,,,,,,,,,,,,,217.17419591600265,217.19841095800075,217.19841095800075,217.19841095800075,217.19841095800075,217.20499091633297,217.19841095800075,217.19841095800075,217.19841095800075,219.03001295800277,صحیح است,42,45,3,1.826244375002716,None,219.0342189160001,219.04492879100144,221.05924841600063,221.03391537500283,221.03395670800091,221.03438358300264,[],[],[],[],[],[],[],False,,,,,,,,,,,,,,,,,,,,,,,,,,,,,,,,,,,,,004714,001,2024-08-04_14h29.33.713,5-34 ready-monolingual persian speaker,2024.1.5,None,2024-08-04 14h29.38.746552 +0900,
Images/Speaker1.jpg,Images/Speaker2.jpg,Images/Speaker3.jpg,Images/Speaker4.jpg,Audio/Speaker1_Per/P1-15-Per.wav,Speaker1,گوینده ۱,,,,,,,,0,0,0,42,0,45,45,14,,,,,221.05924841600063,,,,,,,,,,,,,,,,,,,,,,,,,,,,,,,,,,,,,,,,,,,,,,,,,,,,,,,,,,,,,,,,,,221.03607345800265,221.05924841600063,221.05924841600063,221.05924841600063,221.05924841600063,221.06637829133302,221.05924841600063,221.05924841600063,221.05924841600063,222.41062041600162,صحیح است,43,46,1,1.3494980830000713,None,222.41483408299973,222.42588233300194,,224.4203948329996,224.42042720800237,224.4207589159996,[],[],[],[],[],[],[],False,,,,,,,,,,,,,,,,,,,,,,,,,,,,,,,,,,,,,004714,001,2024-08-04_14h29.33.713,5-34 ready-monolingual persian speaker,2024.1.5,None,2024-08-04 14h29.38.746552 +0900,
Images/Speaker1.jpg,Images/Speaker2.jpg,Images/Speaker3.jpg,Images/Speaker4.jpg,Audio/Speaker4_Per/P4-10-Per.wav,Speaker4,گوینده۴,,,,,,,,0,0,0,42,0,46,46,69,,,,,224.44567416599966,,,,,,,,,,,,,,,,,,,,,,,,,,,,,,,,,,,,,,,,,,,,,,,,,,,,,,,,,,,,,,,,,,224.42216658300094,224.44567416599966,224.44567416599966,224.44567416599966,224.44567416599966,224.45356641633458,224.44567416599966,224.44567416599966,224.44567416599966,227.06922162500268,صحیح است,44,47,4,2.6154611249985464,None,227.0732702910027,227.08189470800062,229.08780045800086,229.06512187500266,229.0651305829997,229.06523141599973,[],[],[],[],[],[],[],False,,,,,,,,,,,,,,,,,,,,,,,,,,,,,,,,,,,,,004714,001,2024-08-04_14h29.33.713,5-34 ready-monolingual persian speaker,2024.1.5,None,2024-08-04 14h29.38.746552 +0900,
Images/Speaker1.jpg,Images/Speaker2.jpg,Images/Speaker3.jpg,Images/Speaker4.jpg,Audio/Speaker2_Per/P2-5-Per.wav,Speaker2,گوینده۲,,,,,,,,0,0,0,42,0,47,47,24,,,,,229.08780045800086,,,,,,,,,,,,,,,,,,,,,,,,,,,,,,,,,,,,,,,,,,,,,,,,,,,,,,,,,,,,,,,,,,229.06562025000312,229.08780045800086,229.08780045800086,229.08780045800086,229.08780045800086,229.08158491666862,229.08780045800086,229.08780045800086,229.08780045800086,230.66304187500282,صحیح است,45,48,2,1.563851375001832,None,230.66708308300076,230.67796654100312,232.686614000002,232.66343970800153,232.6634479580025,232.66354750000028,[],[],[],[],[],[],[],False,,,,,,,,,,,,,,,,,,,,,,,,,,,,,,,,,,,,,004714,001,2024-08-04_14h29.33.713,5-34 ready-monolingual persian speaker,2024.1.5,None,2024-08-04 14h29.38.746552 +0900,
Images/Speaker1.jpg,Images/Speaker2.jpg,Images/Speaker3.jpg,Images/Speaker4.jpg,Audio/Speaker3_Per/P3-18-Per.wav,Speaker3,گوینده۳,,,,,,,,0,0,0,42,0,48,48,57,,,,,232.686614000002,,,,,,,,,,,,,,,,,,,,,,,,,,,,,,,,,,,,,,,,,,,,,,,,,,,,,,,,,,,,,,,,,,232.663969833,232.686614000002,232.686614000002,232.686614000002,232.686614000002,232.67983062466763,232.686614000002,232.686614000002,232.686614000002,234.10458254100013,صحیح است,46,49,3,1.406947792002029,None,234.10834854100176,234.11935320799967,236.1334181250022,236.10813154100106,236.1081410830011,236.10824520800088,[],[],[],[],[],[],[],False,,,,,,,,,,,,,,,,,,,,,,,,,,,,,,,,,,,,,004714,001,2024-08-04_14h29.33.713,5-34 ready-monolingual persian speaker,2024.1.5,None,2024-08-04 14h29.38.746552 +0900,
Images/Speaker1.jpg,Images/Speaker2.jpg,Images/Speaker3.jpg,Images/Speaker4.jpg,Audio/Speaker4_Per/P4-14-Per.wav,Speaker4,گوینده۴,,,,,,,,0,0,0,42,0,49,49,73,,,,,236.1334181250022,,,,,,,,,,,,,,,,,,,,,,,,,,,,,,,,,,,,,,,,,,,,,,,,,,,,,,,,,,,,,,,,,,236.10963679100314,236.1334181250022,236.1334181250022,236.1334181250022,236.1334181250022,236.14123862433604,236.1334181250022,236.1334181250022,236.1334181250022,238.2174253330013,صحیح است,47,50,4,2.082187749998411,None,238.22148470800312,238.23214120800185,240.24146595800266,240.21728912500112,240.21729995799978,240.21741083300003,[],[],[],[],[],[],[],False,,,,,,,,,,,,,,,,,,,,,,,,,,,,,,,,,,,,,004714,001,2024-08-04_14h29.33.713,5-34 ready-monolingual persian speaker,2024.1.5,None,2024-08-04 14h29.38.746552 +0900,
Images/Speaker1.jpg,Images/Speaker2.jpg,Images/Speaker3.jpg,Images/Speaker4.jpg,Audio/Speaker1_Per/P1-4-Per.wav,Speaker1,گوینده ۱,,,,,,,,0,0,0,42,0,50,50,3,,,,,240.24146595800266,,,,,,,,,,,,,,,,,,,,,,,,,,,,,,,,,,,,,,,,,,,,,,,,,,,,,,,,,,,,,,,,,,240.21786237500055,240.24146595800266,240.24146595800266,240.24146595800266,240.24146595800266,240.25037383333307,240.24146595800266,240.24146595800266,240.24146595800266,241.7169275410015,صحیح است,48,51,1,1.4736361249997572,None,241.72103904100004,241.7321985410017,243.74008454100112,243.7163552910024,243.71636320800098,243.71647129100165,[],[],[],[],[],[],[],False,,,,,,,,,,,,,,,,,,,,,,,,,,,,,,,,,,,,,004714,001,2024-08-04_14h29.33.713,5-34 ready-monolingual persian speaker,2024.1.5,None,2024-08-04 14h29.38.746552 +0900,
Images/Speaker1.jpg,Images/Speaker2.jpg,Images/Speaker3.jpg,Images/Speaker4.jpg,Audio/Speaker4_Per/P4-2-Per.wav,Speaker4,گوینده۴,,,,,,,,0,0,0,42,0,51,51,61,,,,,243.74008454100112,,,,,,,,,,,,,,,,,,,,,,,,,,,,,,,,,,,,,,,,,,,,,,,,,,,,,,,,,,,,,,,,,,243.7168840830018,243.74008454100112,243.74008454100112,243.74008454100112,243.74008454100112,243.7494786243338,243.74008454100112,243.74008454100112,243.74008454100112,245.35271012500016,صحیح است,49,52,4,1.611614333000034,None,245.35694575000161,245.36781770800008,247.3760031660022,247.35298049999983,247.35299041600229,247.35310300000128,[],[],[],[],[],[],[],False,,,,,,,,,,,,,,,,,,,,,,,,,,,,,,,,,,,,,004714,001,2024-08-04_14h29.33.713,5-34 ready-monolingual persian speaker,2024.1.5,None,2024-08-04 14h29.38.746552 +0900,
Images/Speaker1.jpg,Images/Speaker2.jpg,Images/Speaker3.jpg,Images/Speaker4.jpg,Audio/Speaker2_Per/P2-17-Per.wav,Speaker2,گوینده۲,,,,,,,,0,0,0,42,0,52,52,36,,,,,247.3760031660022,,,,,,,,,,,,,,,,,,,,,,,,,,,,,,,,,,,,,,,,,,,,,,,,,,,,,,,,,,,,,,,,,,247.35350333300084,247.3760031660022,247.3760031660022,247.3760031660022,247.3760031660022,247.3694397496695,247.3760031660022,247.3760031660022,247.3760031660022,248.7053318750004,صحیح است,50,53,2,1.3247127909999108,None,248.70936204100144,248.72017612499985,250.73050833300294,250.70741412500138,250.7074239579997,250.70753850000256,[],[],[],[],[],[],[],False,,,,,,,,,,,,,,,,,,,,,,,,,,,,,,,,,,,,,004714,001,2024-08-04_14h29.33.713,5-34 ready-monolingual persian speaker,2024.1.5,None,2024-08-04 14h29.38.746552 +0900,
Images/Speaker1.jpg,Images/Speaker2.jpg,Images/Speaker3.jpg,Images/Speaker4.jpg,Audio/Speaker1_Per/P1-16-Per.wav,Speaker1,گوینده ۱,,,,,,,,0,0,0,42,0,53,53,15,,,,,250.73050833300294,,,,,,,,,,,,,,,,,,,,,,,,,,,,,,,,,,,,,,,,,,,,,,,,,,,,,,,,,,,,,,,,,,250.7079545000015,250.73050833300294,250.73050833300294,250.73050833300294,250.73050833300294,250.72385658266674,250.73050833300294,250.73050833300294,250.73050833300294,252.0948063750002,صحیح است,51,54,1,1.3557467499995255,None,252.09873450000305,252.10733666600208,254.12202083300144,254.0968884160029,254.09691816600025,254.09729979100302,[],[],[],[],[],[],[],False,,,,,,,,,,,,,,,,,,,,,,,,,,,,,,,,,,,,,004714,001,2024-08-04_14h29.33.713,5-34 ready-monolingual persian speaker,2024.1.5,None,2024-08-04 14h29.38.746552 +0900,
Images/Speaker1.jpg,Images/Speaker2.jpg,Images/Speaker3.jpg,Images/Speaker4.jpg,Audio/Speaker4_Per/P4-9-Per.wav,Speaker4,گوینده۴,,,,,,,,0,0,0,42,0,54,54,68,,,,,254.12202083300144,,,,,,,,,,,,,,,,,,,,,,,,,,,,,,,,,,,,,,,,,,,,,,,,,,,,,,,,,,,,,,,,,,254.09862387500107,254.12202083300144,254.12202083300144,254.12202083300144,254.12202083300144,254.1293218743345,254.12202083300144,254.12202083300144,254.12202083300144,255.80603637500099,صحیح است,52,55,4,1.676866333000362,None,255.81004654100252,255.8210329579997,,257.8119480000023,257.81196083300165,257.81207650000215,[],[],[],[],[],[],[],False,,,,,,,,,,,,,,,,,,,,,,,,,,,,,,,,,,,,,004714,001,2024-08-04_14h29.33.713,5-34 ready-monolingual persian speaker,2024.1.5,None,2024-08-04 14h29.38.746552 +0900,
Images/Speaker1.jpg,Images/Speaker2.jpg,Images/Speaker3.jpg,Images/Speaker4.jpg,Audio/Speaker1_Per/P1-5-Per.wav,Speaker1,گوینده ۱,,,,,,,,0,0,0,42,0,55,55,4,,,,,257.8358107080021,,,,,,,,,,,,,,,,,,,,,,,,,,,,,,,,,,,,,,,,,,,,,,,,,,,,,,,,,,,,,,,,,,257.8125171660031,257.8358107080021,257.8358107080021,257.8358107080021,257.8358107080021,257.8452500833341,257.8358107080021,257.8358107080021,257.8358107080021,259.83027979100007,صحیح است,53,56,1,1.9848467500014522,None,259.83442125000147,259.84534975000133,,261.8410127080024,261.8410397080006,261.84137833299974,[],[],[],[],[],[],[],False,,,,,,,,,,,,,,,,,,,,,,,,,,,,,,,,,,,,,004714,001,2024-08-04_14h29.33.713,5-34 ready-monolingual persian speaker,2024.1.5,None,2024-08-04 14h29.38.746552 +0900,
Images/Speaker1.jpg,Images/Speaker2.jpg,Images/Speaker3.jpg,Images/Speaker4.jpg,Audio/Speaker1_Per/P1-11-Per.wav,Speaker1,گوینده ۱,,,,,,,,0,0,0,42,0,56,56,10,,,,,261.866766541003,,,,,,,,,,,,,,,,,,,,,,,,,,,,,,,,,,,,,,,,,,,,,,,,,,,,,,,,,,,,,,,,,,261.8426600410021,261.866766541003,261.866766541003,261.866766541003,261.866766541003,261.8741739993352,261.866766541003,261.866766541003,261.866766541003,263.2835496250009,صحیح است,54,57,1,1.414345000001049,None,263.28785966600117,263.29895750000287,265.3052448330018,265.28257900000244,265.28258941600143,265.2827039160002,[],[],[],[],[],[],[],False,,,,,,,,,,,,,,,,,,,,,,,,,,,,,,,,,,,,,004714,001,2024-08-04_14h29.33.713,5-34 ready-monolingual persian speaker,2024.1.5,None,2024-08-04 14h29.38.746552 +0900,
Images/Speaker1.jpg,Images/Speaker2.jpg,Images/Speaker3.jpg,Images/Speaker4.jpg,Audio/Speaker2_Per/P2-9-Per.wav,Speaker2,گوینده۲,,,,,,,,0,0,0,42,0,57,57,28,,,,,265.3052448330018,,,,,,,,,,,,,,,,,,,,,,,,,,,,,,,,,,,,,,,,,,,,,,,,,,,,,,,,,,,,,,,,,,265.2830990830007,265.3052448330018,265.3052448330018,265.3052448330018,265.3052448330018,265.29902495766896,265.3052448330018,265.3052448330018,265.3052448330018,266.303982458001,صحیح است,55,58,2,0.9927672919984616,None,266.3079551250012,266.3188692500007,268.3263994580011,268.3029947499999,268.30300437500046,268.30310562500017,[],[],[],[],[],[],[],False,,,,,,,,,,,,,,,,,,,,,,,,,,,,,,,,,,,,,004714,001,2024-08-04_14h29.33.713,5-34 ready-monolingual persian speaker,2024.1.5,None,2024-08-04 14h29.38.746552 +0900,
Images/Speaker1.jpg,Images/Speaker2.jpg,Images/Speaker3.jpg,Images/Speaker4.jpg,Audio/Speaker3_Per/P3-7-Per.wav,Speaker3,گوینده۳,,,,,,,,0,0,0,42,0,58,58,46,,,,,268.3263994580011,,,,,,,,,,,,,,,,,,,,,,,,,,,,,,,,,,,,,,,,,,,,,,,,,,,,,,,,,,,,,,,,,,268.3035324580014,268.3263994580011,268.3263994580011,268.3263994580011,268.3263994580011,268.336024583336,268.3263994580011,268.3263994580011,268.3263994580011,269.6448765000023,صحیح است,56,59,3,1.3088397500032443,None,269.6491001249997,269.65980254100214,271.6719946250014,271.64792175000184,271.64794779099975,271.6482257500029,[],[],[],[],[],[],[],False,,,,,,,,,,,,,,,,,,,,,,,,,,,,,,,,,,,,,004714,001,2024-08-04_14h29.33.713,5-34 ready-monolingual persian speaker,2024.1.5,None,2024-08-04 14h29.38.746552 +0900,
Images/Speaker1.jpg,Images/Speaker2.jpg,Images/Speaker3.jpg,Images/Speaker4.jpg,Audio/Speaker2_Per/P2-20-Per.wav,Speaker2,گوینده۲,,,,,,,,0,0,0,42,0,59,59,39,,,,,271.6719946250014,,,,,,,,,,,,,,,,,,,,,,,,,,,,,,,,,,,,,,,,,,,,,,,,,,,,,,,,,,,,,,,,,,271.649420208003,271.6719946250014,271.6719946250014,271.6719946250014,271.6719946250014,271.68043808333505,271.6719946250014,271.6719946250014,271.6719946250014,272.8854531249999,صحیح است,57,60,2,1.2056311659980565,None,272.88967104100084,272.898205583002,,274.8921802500008,274.89221420800095,274.892530000001,[],[],[],[],[],[],[],False,,,,,,,,,,,,,,,,,,,,,,,,,,,,,,,,,,,,,004714,001,2024-08-04_14h29.33.713,5-34 ready-monolingual persian speaker,2024.1.5,None,2024-08-04 14h29.38.746552 +0900,
Images/Speaker1.jpg,Images/Speaker2.jpg,Images/Speaker3.jpg,Images/Speaker4.jpg,Audio/Speaker4_Per/P4-8-Per.wav,Speaker4,گوینده۴,,,,,,,,0,0,0,42,0,60,60,67,,,,,274.91799025,,,,,,,,,,,,,,,,,,,,,,,,,,,,,,,,,,,,,,,,,,,,,,,,,,,,,,,,,,,,,,,,,,274.8939246250011,274.91799025,274.91799025,274.91799025,274.91799025,274.9253704993357,274.91799025,274.91799025,274.91799025,276.3129646660018,صحیح است,58,61,4,1.3919731249989127,None,276.31670254100027,276.32764987500195,278.33632566600136,278.3134080410018,278.3134177080028,278.31351716599966,[],[],[],[],[],[],[],False,,,,,,,,,,,,,,,,,,,,,,,,,,,,,,,,,,,,,004714,001,2024-08-04_14h29.33.713,5-34 ready-monolingual persian speaker,2024.1.5,None,2024-08-04 14h29.38.746552 +0900,
Images/Speaker1.jpg,Images/Speaker2.jpg,Images/Speaker3.jpg,Images/Speaker4.jpg,Audio/Speaker2_Per/P2-13-Per.wav,Speaker2,گوینده۲,,,,,,,,0,0,0,42,0,61,61,32,,,,,278.33632566600136,,,,,,,,,,,,,,,,,,,,,,,,,,,,,,,,,,,,,,,,,,,,,,,,,,,,,,,,,,,,,,,,,,278.313979458002,278.33632566600136,278.33632566600136,278.33632566600136,278.33632566600136,278.3297709576693,278.33632566600136,278.33632566600136,278.33632566600136,279.7340886250022,صحیح است,59,62,2,1.3958348329979344,None,279.73797862500214,279.7487671660019,281.7601242080018,281.7341185000005,281.7341451250031,281.7345940000014,[],[],[],[],[],[],[],False,,,,,,,,,,,,,,,,,,,,,,,,,,,,,,,,,,,,,004714,001,2024-08-04_14h29.33.713,5-34 ready-monolingual persian speaker,2024.1.5,None,2024-08-04 14h29.38.746552 +0900,
Images/Speaker1.jpg,Images/Speaker2.jpg,Images/Speaker3.jpg,Images/Speaker4.jpg,Audio/Speaker3_Per/P3-13-Per.wav,Speaker3,گوینده۳,,,,,,,,0,0,0,42,0,62,62,52,,,,,281.7601242080018,,,,,,,,,,,,,,,,,,,,,,,,,,,,,,,,,,,,,,,,,,,,,,,,,,,,,,,,,,,,,,,,,,281.73579629100277,281.7601242080018,281.7601242080018,281.7601242080018,281.7601242080018,281.76670704133403,281.7601242080018,281.7601242080018,281.7601242080018,283.02122000000236,صحیح است,60,63,3,1.25296308399993,None,283.025169833003,283.035973500002,285.0428737080001,285.0198065830009,285.0198162910019,285.0199177909999,[],[],[],[],[],[],[],False,,,,,,,,,,,,,,,,,,,,,,,,,,,,,,,,,,,,,004714,001,2024-08-04_14h29.33.713,5-34 ready-monolingual persian speaker,2024.1.5,None,2024-08-04 14h29.38.746552 +0900,
Images/Speaker1.jpg,Images/Speaker2.jpg,Images/Speaker3.jpg,Images/Speaker4.jpg,Audio/Speaker4_Per/P4-6-Per.wav,Speaker4,گوینده۴,,,,,,,,0,0,0,42,0,63,63,65,,,,,285.0428737080001,,,,,,,,,,,,,,,,,,,,,,,,,,,,,,,,,,,,,,,,,,,,,,,,,,,,,,,,,,,,,,,,,,285.02034520800225,285.0428737080001,285.0428737080001,285.0428737080001,285.0428737080001,285.03626637466755,285.0428737080001,285.0428737080001,285.0428737080001,286.3586640829999,صحیح است,61,64,4,1.31367795800179,None,286.36267991600107,286.3733699580007,288.3857052500025,288.3617288750029,288.36173858300026,288.3618608750003,[],[],[],[],[],[],[],False,,,,,,,,,,,,,,,,,,,,,,,,,,,,,,,,,,,,,004714,001,2024-08-04_14h29.33.713,5-34 ready-monolingual persian speaker,2024.1.5,None,2024-08-04 14h29.38.746552 +0900,
Images/Speaker1.jpg,Images/Speaker2.jpg,Images/Speaker3.jpg,Images/Speaker4.jpg,Audio/Speaker2_Per/P2-19-Per.wav,Speaker2,گوینده۲,,,,,,,,0,0,0,42,0,64,64,38,,,,,288.3857052500025,,,,,,,,,,,,,,,,,,,,,,,,,,,,,,,,,,,,,,,,,,,,,,,,,,,,,,,,,,,,,,,,,,288.36226895800064,288.3857052500025,288.3857052500025,288.3857052500025,288.3857052500025,288.3948275413354,288.3857052500025,288.3857052500025,288.3857052500025,289.67260695799996,صحیح است,62,65,2,1.283713415999955,None,289.6774611660003,289.6889075830004,,291.68240683300246,291.6824415830015,291.6827831660012,[],[],[],[],[],[],[],False,,,,,,,,,,,,,,,,,,,,,,,,,,,,,,,,,,,,,004714,001,2024-08-04_14h29.33.713,5-34 ready-monolingual persian speaker,2024.1.5,None,2024-08-04 14h29.38.746552 +0900,
Images/Speaker1.jpg,Images/Speaker2.jpg,Images/Speaker3.jpg,Images/Speaker4.jpg,Audio/Speaker2_Per/P2-14-Per.wav,Speaker2,گوینده۲,,,,,,,,0,0,0,42,0,65,65,33,,,,,291.7082041249996,,,,,,,,,,,,,,,,,,,,,,,,,,,,,,,,,,,,,,,,,,,,,,,,,,,,,,,,,,,,,,,,,,291.6843659160004,291.7082041249996,291.7082041249996,291.7082041249996,291.7082041249996,291.7155606243364,291.7082041249996,291.7082041249996,291.7082041249996,293.08789037500173,صحیح است,63,66,2,1.3686740420016577,None,293.0920878329998,293.1030737910005,,295.0982377500004,295.0982817080003,295.0986063750024,[],[],[],[],[],[],[],False,,,,,,,,,,,,,,,,,,,,,,,,,,,,,,,,,,,,,004714,001,2024-08-04_14h29.33.713,5-34 ready-monolingual persian speaker,2024.1.5,None,2024-08-04 14h29.38.746552 +0900,
Images/Speaker1.jpg,Images/Speaker2.jpg,Images/Speaker3.jpg,Images/Speaker4.jpg,Audio/Speaker4_Per/P4-13-Per.wav,Speaker4,گوینده۴,,,,,,,,0,0,0,42,0,66,66,72,,,,,295.1271894160018,,,,,,,,,,,,,,,,,,,,,,,,,,,,,,,,,,,,,,,,,,,,,,,,,,,,,,,,,,,,,,,,,,295.10000995800146,295.1271894160018,295.1271894160018,295.1271894160018,295.1271894160018,295.1314096243336,295.1271894160018,295.1271894160018,295.1271894160018,296.7306567910018,صحیح است,64,67,4,1.5925689169998805,None,296.7346057080031,296.74528737500077,298.7521172910019,298.72927729100047,298.7292872910002,298.72939558300277,[],[],[],[],[],[],[],False,,,,,,,,,,,,,,,,,,,,,,,,,,,,,,,,,,,,,004714,001,2024-08-04_14h29.33.713,5-34 ready-monolingual persian speaker,2024.1.5,None,2024-08-04 14h29.38.746552 +0900,
Images/Speaker1.jpg,Images/Speaker2.jpg,Images/Speaker3.jpg,Images/Speaker4.jpg,Audio/Speaker1_Per/P1-13-Per.wav,Speaker1,گوینده ۱,,,,,,,,0,0,0,42,0,67,67,12,,,,,298.7521172910019,,,,,,,,,,,,,,,,,,,,,,,,,,,,,,,,,,,,,,,,,,,,,,,,,,,,,,,,,,,,,,,,,,298.7298650410012,298.7521172910019,298.7521172910019,298.7521172910019,298.7521172910019,298.74576491666835,298.7521172910019,298.7521172910019,298.7521172910019,300.4177585409998,صحیح است,65,68,1,1.656124124998314,None,300.42150862500057,300.4296469580004,302.4402047910007,302.41638845800117,302.41639775000294,302.4165161250021,[],[],[],[],[],[],[],False,,,,,,,,,,,,,,,,,,,,,,,,,,,,,,,,,,,,,004714,001,2024-08-04_14h29.33.713,5-34 ready-monolingual persian speaker,2024.1.5,None,2024-08-04 14h29.38.746552 +0900,
Images/Speaker1.jpg,Images/Speaker2.jpg,Images/Speaker3.jpg,Images/Speaker4.jpg,Audio/Speaker1_Per/P1-7-Per.wav,Speaker1,گوینده ۱,,,,,,,,0,0,0,42,0,68,68,6,,,,,302.4402047910007,,,,,,,,,,,,,,,,,,,,,,,,,,,,,,,,,,,,,,,,,,,,,,,,,,,,,,,,,,,,,,,,,,302.41694166600064,302.4402047910007,302.4402047910007,302.4402047910007,302.4402047910007,302.44948933333626,302.4402047910007,302.4402047910007,302.4402047910007,303.7375874160025,صحیح است,66,69,1,1.2916918749979232,None,303.74157870800263,303.7519577910025,305.7585691660024,305.7356077080003,305.735617833001,305.73575062500095,[],[],[],[],[],[],[],False,,,,,,,,,,,,,,,,,,,,,,,,,,,,,,,,,,,,,004714,001,2024-08-04_14h29.33.713,5-34 ready-monolingual persian speaker,2024.1.5,None,2024-08-04 14h29.38.746552 +0900,
Images/Speaker1.jpg,Images/Speaker2.jpg,Images/Speaker3.jpg,Images/Speaker4.jpg,Audio/Speaker4_Per/P4-3-Per.wav,Speaker4,گوینده۴,,,,,,,,0,0,0,42,0,69,69,62,,,,,305.7585691660024,,,,,,,,,,,,,,,,,,,,,,,,,,,,,,,,,,,,,,,,,,,,,,,,,,,,,,,,,,,,,,,,,,305.73616595800195,305.7585691660024,305.7585691660024,305.7585691660024,305.7585691660024,305.75199854166954,305.7585691660024,305.7585691660024,305.7585691660024,307.06846454100014,صحیح است,67,70,4,1.3020795410011488,None,307.07279612500133,307.08135949999996,309.08972545800134,309.06572108300315,309.06572925,309.0658293330016,[],[],[],[],[],[],[],False,,,,,,,,,,,,,,,,,,,,,,,,,,,,,,,,,,,,,004714,001,2024-08-04_14h29.33.713,5-34 ready-monolingual persian speaker,2024.1.5,None,2024-08-04 14h29.38.746552 +0900,
Images/Speaker1.jpg,Images/Speaker2.jpg,Images/Speaker3.jpg,Images/Speaker4.jpg,Audio/Speaker3_Per/P3-15-Per.wav,Speaker3,گوینده۳,,,,,,,,0,0,0,42,0,70,70,54,,,,,309.08972545800134,,,,,,,,,,,,,,,,,,,,,,,,,,,,,,,,,,,,,,,,,,,,,,,,,,,,,,,,,,,,,,,,,,309.06622408300245,309.08972545800134,309.08972545800134,309.08972545800134,309.08972545800134,309.098842208336,309.08972545800134,309.08972545800134,309.08972545800134,311.1346584580024,صحیح است,68,71,3,2.0396202500014624,None,311.1384275410019,311.1493651250021,313.1564126250014,313.13304895799956,313.13305862500056,313.13317508300315,[],[],[],[],[],[],[],False,,,,,,,,,,,,,,,,,,,,,,,,,,,,,,,,,,,,,004714,001,2024-08-04_14h29.33.713,5-34 ready-monolingual persian speaker,2024.1.5,None,2024-08-04 14h29.38.746552 +0900,
Images/Speaker1.jpg,Images/Speaker2.jpg,Images/Speaker3.jpg,Images/Speaker4.jpg,Audio/Speaker1_Per/P1-4-Per.wav,Speaker1,گوینده ۱,,,,,,,,0,0,0,42,0,71,71,13,,,,,313.1564126250014,,,,,,,,,,,,,,,,,,,,,,,,,,,,,,,,,,,,,,,,,,,,,,,,,,,,,,,,,,,,,,,,,,313.1336093330028,313.1564126250014,313.1564126250014,313.1564126250014,313.1564126250014,313.1494595416664,313.1564126250014,313.1564126250014,313.1564126250014,314.4860375410026,صحیح است,69,72,1,1.328421124999295,None,314.4901311659996,314.50086100000044,316.51103412500015,316.4853022910029,316.4853120830012,316.48544995799966,[],[],[],[],[],[],[],False,,,,,,,,,,,,,,,,,,,,,,,,,,,,,,,,,,,,,004714,001,2024-08-04_14h29.33.713,5-34 ready-monolingual persian speaker,2024.1.5,None,2024-08-04 14h29.38.746552 +0900,
Images/Speaker1.jpg,Images/Speaker2.jpg,Images/Speaker3.jpg,Images/Speaker4.jpg,Audio/Speaker3_Per/P3-11-Per.wav,Speaker3,گوینده۳,,,,,,,,0,0,0,42,0,72,72,50,,,,,316.51103412500015,,,,,,,,,,,,,,,,,,,,,,,,,,,,,,,,,,,,,,,,,,,,,,,,,,,,,,,,,,,,,,,,,,316.48587175000284,316.51103412500015,316.51103412500015,316.51103412500015,316.51103412500015,316.51837654133533,316.51103412500015,316.51103412500015,316.51103412500015,318.5261118330018,صحیح است,70,73,3,2.0136450000027253,None,318.53002387500237,318.54100608299996,320.5476594580032,320.5238777500017,320.52388779100147,320.5239907080031,[],[],[],[],[],[],[],False,,,,,,,,,,,,,,,,,,,,,,,,,,,,,,,,,,,,,004714,001,2024-08-04_14h29.33.713,5-34 ready-monolingual persian speaker,2024.1.5,None,2024-08-04 14h29.38.746552 +0900,
Images/Speaker1.jpg,Images/Speaker2.jpg,Images/Speaker3.jpg,Images/Speaker4.jpg,Audio/Speaker3_Per/P3-19-Per.wav,Speaker3,گوینده۳,,,,,,,,0,0,0,42,0,73,73,58,,,,,320.5476594580032,,,,,,,,,,,,,,,,,,,,,,,,,,,,,,,,,,,,,,,,,,,,,,,,,,,,,,,,,,,,,,,,,,320.5244016659999,320.5476594580032,320.5476594580032,320.5476594580032,320.5476594580032,320.5569468743347,320.5476594580032,320.5476594580032,320.5476594580032,322.162585500002,صحیح است,71,74,3,1.605458207999618,None,322.1669468330001,322.1778195830011,324.1948929160026,324.165508666003,324.16555041600077,324.1660430000011,[],[],[],[],[],[],[],False,,,,,,,,,,,,,,,,,,,,,,,,,,,,,,,,,,,,,004714,001,2024-08-04_14h29.33.713,5-34 ready-monolingual persian speaker,2024.1.5,None,2024-08-04 14h29.38.746552 +0900,
Images/Speaker1.jpg,Images/Speaker2.jpg,Images/Speaker3.jpg,Images/Speaker4.jpg,Audio/Speaker3_Per/P3-2-Per.wav,Speaker3,گوینده۳,,,,,,,,0,0,0,42,0,74,74,41,,,,,324.1948929160026,,,,,,,,,,,,,,,,,,,,,,,,,,,,,,,,,,,,,,,,,,,,,,,,,,,,,,,,,,,,,,,,,,324.1677404580005,324.1948929160026,324.1948929160026,324.1948929160026,324.1948929160026,324.19801316633357,324.1948929160026,324.1948929160026,324.1948929160026,325.58918087500206,صحیح است,72,75,3,1.3853720000006433,None,325.59452308300024,325.60551100000157,327.6166846660017,327.592138875003,327.5921755410018,327.5927346660028,[],[],[],[],[],[],[],False,,,,,,,,,,,,,,,,,,,,,,,,,,,,,,,,,,,,,004714,001,2024-08-04_14h29.33.713,5-34 ready-monolingual persian speaker,2024.1.5,None,2024-08-04 14h29.38.746552 +0900,
Images/Speaker1.jpg,Images/Speaker2.jpg,Images/Speaker3.jpg,Images/Speaker4.jpg,Audio/Speaker2_Per/P2-4-Per.wav,Speaker2,گوینده۲,,,,,,,,0,0,0,42,0,75,75,23,,,,,327.6166846660017,,,,,,,,,,,,,,,,,,,,,,,,,,,,,,,,,,,,,,,,,,,,,,,,,,,,,,,,,,,,,,,,,,327.5940100830012,327.6166846660017,327.6166846660017,327.6166846660017,327.6166846660017,327.6244937083361,327.6166846660017,327.6166846660017,327.6166846660017,328.60245233300157,صحیح است,73,76,2,0.9777775830007158,None,328.6063780410004,328.6147224160013,330.630882458001,330.6056833750008,330.6057108330024,330.606024875,[],[],[],[],[],[],[],False,,,,,,,,,,,,,,,,,,,,,,,,,,,,,,,,,,,,,004714,001,2024-08-04_14h29.33.713,5-34 ready-monolingual persian speaker,2024.1.5,None,2024-08-04 14h29.38.746552 +0900,
Images/Speaker1.jpg,Images/Speaker2.jpg,Images/Speaker3.jpg,Images/Speaker4.jpg,Audio/Speaker3_Per/P3-3-Per.wav,Speaker3,گوینده۳,,,,,,,,0,0,0,42,0,76,76,42,,,,,330.630882458001,,,,,,,,,,,,,,,,,,,,,,,,,,,,,,,,,,,,,,,,,,,,,,,,,,,,,,,,,,,,,,,,,,330.60733000000255,330.630882458001,330.630882458001,330.630882458001,330.630882458001,330.6380336243351,330.630882458001,330.630882458001,330.630882458001,332.0841561660018,صحیح است,74,77,3,1.4512381249987811,None,332.0882203330002,332.0990512080025,334.11335141600284,334.08858116600095,334.08863770800235,334.08900783300123,[],[],[],[],[],[],[],False,,,,,,,,,,,,,,,,,,,,,,,,,,,,,,,,,,,,,004714,001,2024-08-04_14h29.33.713,5-34 ready-monolingual persian speaker,2024.1.5,None,2024-08-04 14h29.38.746552 +0900,
Images/Speaker1.jpg,Images/Speaker2.jpg,Images/Speaker3.jpg,Images/Speaker4.jpg,Audio/Speaker3_Per/P3-6-Per.wav,Speaker3,گوینده۳,,,,,,,,0,0,0,42,0,77,77,45,,,,,334.11335141600284,,,,,,,,,,,,,,,,,,,,,,,,,,,,,,,,,,,,,,,,,,,,,,,,,,,,,,,,,,,,,,,,,,334.09021037500133,334.11335141600284,334.11335141600284,334.11335141600284,334.11335141600284,334.1213737493349,334.11335141600284,334.11335141600284,334.11335141600284,335.42082550000123,صحیح است,75,78,3,1.3007606250030221,None,335.42483304100097,335.4356712080007,,337.42924420800045,337.4292907500021,337.42963441600295,[],[],[],[],[],[],[],False,,,,,,,,,,,,,,,,,,,,,,,,,,,,,,,,,,,,,004714,001,2024-08-04_14h29.33.713,5-34 ready-monolingual persian speaker,2024.1.5,None,2024-08-04 14h29.38.746552 +0900,
Images/Speaker1.jpg,Images/Speaker2.jpg,Images/Speaker3.jpg,Images/Speaker4.jpg,Audio/Speaker3_Per/P3-20-Per.wav,Speaker3,گوینده۳,,,,,,,,0,0,0,42,0,78,78,59,,,,,337.453843041003,,,,,,,,,,,,,,,,,,,,,,,,,,,,,,,,,,,,,,,,,,,,,,,,,,,,,,,,,,,,,,,,,,337.43100104100085,337.453843041003,337.453843041003,337.453843041003,337.453843041003,337.4624305413349,337.453843041003,337.453843041003,337.453843041003,338.79729150000276,صحیح است,76,79,3,1.3324058750004042,None,338.80109708300006,338.8119340410012,340.8189424580014,340.7966559580018,340.79666395800086,340.7967600830016,[],[],[],[],[],[],[],False,,,,,,,,,,,,,,,,,,,,,,,,,,,,,,,,,,,,,004714,001,2024-08-04_14h29.33.713,5-34 ready-monolingual persian speaker,2024.1.5,None,2024-08-04 14h29.38.746552 +0900,
Images/Speaker1.jpg,Images/Speaker2.jpg,Images/Speaker3.jpg,Images/Speaker4.jpg,Audio/Speaker2_Per/P2-16-Per.wav,Speaker2,گوینده۲,,,,,,,,0,0,0,42,0,79,79,35,,,,,340.8189424580014,,,,,,,,,,,,,,,,,,,,,,,,,,,,,,,,,,,,,,,,,,,,,,,,,,,,,,,,,,,,,,,,,,340.7972069580028,340.8189424580014,340.8189424580014,340.8189424580014,340.8189424580014,340.8130951666683,340.8189424580014,340.8189424580014,340.8189424580014,342.13589416600007,صحیح است,77,80,2,1.3126014999979816,None,342.1402801660006,342.151316958003,344.1449657910016,344.1377210000028,344.1377461250013,344.13817791600013,[],[],[],[],[],[],[],False,,,,,,,,,,,,,,,,,,,,,,,,,,,,,,,,,,,,,004714,001,2024-08-04_14h29.33.713,5-34 ready-monolingual persian speaker,2024.1.5,None,2024-08-04 14h29.38.746552 +0900,
Images/Speaker1.jpg,Images/Speaker2.jpg,Images/Speaker3.jpg,Images/Speaker4.jpg,Audio/Speaker3_Per/P3-3-Per.wav,Speaker3,گوینده۳,,,,,,,,0,0,0,42,,,,,,,,,,,,,,,,,,,,,,,,,,,,,,,,,,,,,,,,,,,,,,,,,,,,,,,,,,,,,,,,,,,,,,,,,,,,,,,,,,,,,,,,,,,,,,,,,,,,,,,,,,,,,344.13972370800184,0.9625,True,344.14038274999984,,,,,,,,,,,,,,,,,,,,,,,,,,,,,004714,001,2024-08-04_14h29.33.713,5-34 ready-monolingual persian speaker,2024.1.5,None,2024-08-04 14h29.38.746552 +0900,
,,,,,,,,,,,,,,,,,,,,,,,,,,,,,,,,,,,,,,,,,,,,,,,,,,,,,,,,,,,,,,,,,,,,,,,,,,,,,,,,,,,,,,,,,,,,,,,,,,,,,,,,,,,,,,,,,,,,,,,,,,,,,,,,,,344.1404285000026,344.1449657910016,349.1677441250031,349.12851245800266,,,,,,,,,,,,,,,,,,,,,,,,,004714,001,2024-08-04_14h29.33.713,5-34 ready-monolingual persian speaker,2024.1.5,None,2024-08-04 14h29.38.746552 +0900,
,,,,,,,Images/Speaker1.jpg,Images/Speaker2.jpg,Images/Speaker3.jpg,Images/Speaker4.jpg,Audio/Speaker3_Per/P3-7-Per.wav,Speaker3,گوینده۳,,,,,,,,,0,0,0,46,349.1677441250031,,,,,,,,,,,,,,,,,,,,,,,,,,,,,,,,,,,,,,,,,,,,,,,,,,,,,,,,,,,,,,,,,,,,,,,,,,,,,,,,,,,,,,,,,,,,,,,,,,,,,,,,,,,,349.14678062500025,349.1677441250031,349.1677441250031,349.1677441250031,349.1677441250031,349.16154924933335,349.1677441250031,349.1677441250031,352.2673060410016,3,3.091024124998512,None,3,Images/Speaker1.jpg,Images/Speaker2.jpg,Images/Speaker3.jpg,Images/Speaker4.jpg,Audio/Speaker3_Per/P3-7-Per.wav,Speaker3,گوینده۳,,,,,004714,001,2024-08-04_14h29.33.713,5-34 ready-monolingual persian speaker,2024.1.5,None,2024-08-04 14h29.38.746552 +0900,
,,,,,,,Images/Speaker1.jpg,Images/Speaker2.jpg,Images/Speaker3.jpg,Images/Speaker4.jpg,Audio/Speaker3_Per/P3-15-Per.wav,Speaker3,گوینده۳,,,,,,,,,0,1,1,54,352.28984720800145,,,,,,,,,,,,,,,,,,,,,,,,,,,,,,,,,,,,,,,,,,,,,,,,,,,,,,,,,,,,,,,,,,,,,,,,,,,,,,,,,,,,,,,,,,,,,,,,,,,,,,,,,,,,352.26781050000136,352.28984720800145,352.28984720800145,352.28984720800145,352.28984720800145,352.2832132916667,352.28984720800145,352.28984720800145,353.516649125002,3,1.218601040996873,None,3,Images/Speaker1.jpg,Images/Speaker2.jpg,Images/Speaker3.jpg,Images/Speaker4.jpg,Audio/Speaker3_Per/P3-15-Per.wav,Speaker3,گوینده۳,,,,,004714,001,2024-08-04_14h29.33.713,5-34 ready-monolingual persian speaker,2024.1.5,None,2024-08-04 14h29.38.746552 +0900,
,,,,,,,Images/Speaker1.jpg,Images/Speaker2.jpg,Images/Speaker3.jpg,Images/Speaker4.jpg,Audio/Speaker4_Per/P4-9-Per.wav,Speaker4,گوینده۴,,,,,,,,,0,2,2,68,353.5421798330026,,,,,,,,,,,,,,,,,,,,,,,,,,,,,,,,,,,,,,,,,,,,,,,,,,,,,,,,,,,,,,,,,,,,,,,,,,,,,,,,,,,,,,,,,,,,,,,,,,,,,,,,,,,,353.52098970800216,353.5421798330026,353.5421798330026,353.5421798330026,353.5421798330026,353.5491949583343,353.5421798330026,353.5421798330026,354.95856379100223,4,1.4109205420027138,None,4,Images/Speaker1.jpg,Images/Speaker2.jpg,Images/Speaker3.jpg,Images/Speaker4.jpg,Audio/Speaker4_Per/P4-9-Per.wav,Speaker4,گوینده۴,,,,,004714,001,2024-08-04_14h29.33.713,5-34 ready-monolingual persian speaker,2024.1.5,None,2024-08-04 14h29.38.746552 +0900,
,,,,,,,Images/Speaker1.jpg,Images/Speaker2.jpg,Images/Speaker3.jpg,Images/Speaker4.jpg,Audio/Speaker4_Per/P4-5-Per.wav,Speaker4,گوینده۴,,,,,,,,,0,3,3,64,354.98432291599966,,,,,,,,,,,,,,,,,,,,,,,,,,,,,,,,,,,,,,,,,,,,,,,,,,,,,,,,,,,,,,,,,,,,,,,,,,,,,,,,,,,,,,,,,,,,,,,,,,,,,,,,,,,,354.96294025000316,354.98432291599966,354.98432291599966,354.98432291599966,354.98432291599966,354.98944566633554,354.98432291599966,354.98432291599966,356.41761433300053,4,1.4238370419989224,None,4,Images/Speaker1.jpg,Images/Speaker2.jpg,Images/Speaker3.jpg,Images/Speaker4.jpg,Audio/Speaker4_Per/P4-5-Per.wav,Speaker4,گوینده۴,,,,,004714,001,2024-08-04_14h29.33.713,5-34 ready-monolingual persian speaker,2024.1.5,None,2024-08-04 14h29.38.746552 +0900,
,,,,,,,Images/Speaker1.jpg,Images/Speaker2.jpg,Images/Speaker3.jpg,Images/Speaker4.jpg,Audio/Speaker2_Per/P2-7-Per.wav,Speaker2,گوینده۲,,,,,,,,,0,4,4,26,356.44339566599956,,,,,,,,,,,,,,,,,,,,,,,,,,,,,,,,,,,,,,,,,,,,,,,,,,,,,,,,,,,,,,,,,,,,,,,,,,,,,,,,,,,,,,,,,,,,,,,,,,,,,,,,,,,,356.4216301250017,356.44339566599956,356.44339566599956,356.44339566599956,356.44339566599956,356.4501313333353,356.44339566599956,356.44339566599956,357.6652200410026,2,1.2129944999978761,None,2,Images/Speaker1.jpg,Images/Speaker2.jpg,Images/Speaker3.jpg,Images/Speaker4.jpg,Audio/Speaker2_Per/P2-7-Per.wav,Speaker2,گوینده۲,,,,,004714,001,2024-08-04_14h29.33.713,5-34 ready-monolingual persian speaker,2024.1.5,None,2024-08-04 14h29.38.746552 +0900,
,,,,,,,Images/Speaker1.jpg,Images/Speaker2.jpg,Images/Speaker3.jpg,Images/Speaker4.jpg,Audio/Speaker4_Per/P4-13-Per.wav,Speaker4,گوینده۴,,,,,,,,,0,5,5,72,357.6904061660025,,,,,,,,,,,,,,,,,,,,,,,,,,,,,,,,,,,,,,,,,,,,,,,,,,,,,,,,,,,,,,,,,,,,,,,,,,,,,,,,,,,,,,,,,,,,,,,,,,,,,,,,,,,,357.6694283750003,357.6904061660025,357.6904061660025,357.6904061660025,357.6904061660025,357.6977735413352,357.6904061660025,357.6904061660025,359.6446616659996,4,1.9507965840020915,None,4,Images/Speaker1.jpg,Images/Speaker2.jpg,Images/Speaker3.jpg,Images/Speaker4.jpg,Audio/Speaker4_Per/P4-13-Per.wav,Speaker4,گوینده۴,,,,,004714,001,2024-08-04_14h29.33.713,5-34 ready-monolingual persian speaker,2024.1.5,None,2024-08-04 14h29.38.746552 +0900,
,,,,,,,Images/Speaker1.jpg,Images/Speaker2.jpg,Images/Speaker3.jpg,Images/Speaker4.jpg,Audio/Speaker2_Per/P2-1-Per.wav,Speaker2,گوینده۲,,,,,,,,,0,6,6,20,359.67059549999976,,,,,,,,,,,,,,,,,,,,,,,,,,,,,,,,,,,,,,,,,,,,,,,,,,,,,,,,,,,,,,,,,,,,,,,,,,,,,,,,,,,,,,,,,,,,,,,,,,,,,,,,,,,,359.6491622499998,359.67059549999976,359.67059549999976,359.67059549999976,359.67059549999976,359.67423599933363,359.67059549999976,359.67059549999976,360.85925708300056,2,1.184621958000207,None,2,Images/Speaker1.jpg,Images/Speaker2.jpg,Images/Speaker3.jpg,Images/Speaker4.jpg,Audio/Speaker2_Per/P2-1-Per.wav,Speaker2,گوینده۲,,,,,004714,001,2024-08-04_14h29.33.713,5-34 ready-monolingual persian speaker,2024.1.5,None,2024-08-04 14h29.38.746552 +0900,
,,,,,,,Images/Speaker1.jpg,Images/Speaker2.jpg,Images/Speaker3.jpg,Images/Speaker4.jpg,Audio/Speaker3_Per/P3-3-Per.wav,Speaker3,گوینده۳,,,,,,,,,0,7,7,42,360.88413800000126,,,,,,,,,,,,,,,,,,,,,,,,,,,,,,,,,,,,,,,,,,,,,,,,,,,,,,,,,,,,,,,,,,,,,,,,,,,,,,,,,,,,,,,,,,,,,,,,,,,,,,,,,,,,360.8635064580012,360.88413800000126,360.88413800000126,360.88413800000126,360.88413800000126,360.8918094583355,360.88413800000126,360.88413800000126,363.166660875002,1,2.2767865839996375,None,1,Images/Speaker1.jpg,Images/Speaker2.jpg,Images/Speaker3.jpg,Images/Speaker4.jpg,Audio/Speaker3_Per/P3-3-Per.wav,Speaker3,گوینده۳,,,,,004714,001,2024-08-04_14h29.33.713,5-34 ready-monolingual persian speaker,2024.1.5,None,2024-08-04 14h29.38.746552 +0900,
,,,,,,,Images/Speaker1.jpg,Images/Speaker2.jpg,Images/Speaker3.jpg,Images/Speaker4.jpg,Audio/Speaker2_Per/P2-15-Per.wav,Speaker2,گوینده۲,,,,,,,,,0,8,8,34,363.19404550000036,,,,,,,,,,,,,,,,,,,,,,,,,,,,,,,,,,,,,,,,,,,,,,,,,,,,,,,,,,,,,,,,,,,,,,,,,,,,,,,,,,,,,,,,,,,,,,,,,,,,,,,,,,,,363.1719100830014,363.19404550000036,363.19404550000036,363.19404550000036,363.19404550000036,363.199135291336,363.19404550000036,363.19404550000036,364.5225472500024,1,1.3261012089969881,None,1,Images/Speaker1.jpg,Images/Speaker2.jpg,Images/Speaker3.jpg,Images/Speaker4.jpg,Audio/Speaker2_Per/P2-15-Per.wav,Speaker2,گوینده۲,,,,,004714,001,2024-08-04_14h29.33.713,5-34 ready-monolingual persian speaker,2024.1.5,None,2024-08-04 14h29.38.746552 +0900,
,,,,,,,Images/Speaker1.jpg,Images/Speaker2.jpg,Images/Speaker3.jpg,Images/Speaker4.jpg,Audio/Speaker4_Per/P4-4-Per.wav,Speaker4,گوینده۴,,,,,,,,,0,9,9,63,364.5489020000023,,,,,,,,,,,,,,,,,,,,,,,,,,,,,,,,,,,,,,,,,,,,,,,,,,,,,,,,,,,,,,,,,,,,,,,,,,,,,,,,,,,,,,,,,,,,,,,,,,,,,,,,,,,,364.5266477080004,364.5489020000023,364.5489020000023,364.5489020000023,364.5489020000023,364.55504508333297,364.5489020000023,364.5489020000023,365.67302295800255,1,1.121222208999825,None,1,Images/Speaker1.jpg,Images/Speaker2.jpg,Images/Speaker3.jpg,Images/Speaker4.jpg,Audio/Speaker4_Per/P4-4-Per.wav,Speaker4,گوینده۴,,,,,004714,001,2024-08-04_14h29.33.713,5-34 ready-monolingual persian speaker,2024.1.5,None,2024-08-04 14h29.38.746552 +0900,
,,,,,,,Images/Speaker1.jpg,Images/Speaker2.jpg,Images/Speaker3.jpg,Images/Speaker4.jpg,Audio/Speaker1_Per/P1-12-Per.wav,Speaker1,گوینده ۱,,,,,,,,,0,10,10,11,365.6981024580018,,,,,,,,,,,,,,,,,,,,,,,,,,,,,,,,,,,,,,,,,,,,,,,,,,,,,,,,,,,,,,,,,,,,,,,,,,,,,,,,,,,,,,,,,,,,,,,,,,,,,,,,,,,,365.6769540830028,365.6981024580018,365.6981024580018,365.6981024580018,365.6981024580018,365.7054360833358,365.6981024580018,365.6981024580018,366.8832927080002,2,1.1798306250020687,None,2,Images/Speaker1.jpg,Images/Speaker2.jpg,Images/Speaker3.jpg,Images/Speaker4.jpg,Audio/Speaker1_Per/P1-12-Per.wav,Speaker1,گوینده ۱,,,,,004714,001,2024-08-04_14h29.33.713,5-34 ready-monolingual persian speaker,2024.1.5,None,2024-08-04 14h29.38.746552 +0900,
,,,,,,,Images/Speaker1.jpg,Images/Speaker2.jpg,Images/Speaker3.jpg,Images/Speaker4.jpg,Audio/Speaker1_Per/P1-19-Per.wav,Speaker1,گوینده ۱,,,,,,,,,0,11,11,18,366.91141224999956,,,,,,,,,,,,,,,,,,,,,,,,,,,,,,,,,,,,,,,,,,,,,,,,,,,,,,,,,,,,,,,,,,,,,,,,,,,,,,,,,,,,,,,,,,,,,,,,,,,,,,,,,,,,366.88896820800073,366.91141224999956,366.91141224999956,366.91141224999956,366.91141224999956,366.9157920833354,366.91141224999956,366.91141224999956,368.7807769580031,1,1.8618255830006092,None,1,Images/Speaker1.jpg,Images/Speaker2.jpg,Images/Speaker3.jpg,Images/Speaker4.jpg,Audio/Speaker1_Per/P1-19-Per.wav,Speaker1,گوینده ۱,,,,,004714,001,2024-08-04_14h29.33.713,5-34 ready-monolingual persian speaker,2024.1.5,None,2024-08-04 14h29.38.746552 +0900,
,,,,,,,Images/Speaker1.jpg,Images/Speaker2.jpg,Images/Speaker3.jpg,Images/Speaker4.jpg,Audio/Speaker1_Per/P1-3-Per.wav,Speaker1,گوینده ۱,,,,,,,,,0,12,12,2,368.8037461660024,,,,,,,,,,,,,,,,,,,,,,,,,,,,,,,,,,,,,,,,,,,,,,,,,,,,,,,,,,,,,,,,,,,,,,,,,,,,,,,,,,,,,,,,,,,,,,,,,,,,,,,,,,,,368.78514016600093,368.8037461660024,368.8037461660024,368.8037461660024,368.8037461660024,368.813591833336,368.8037461660024,368.8037461660024,371.18533704100264,1,2.37906029199803,None,1,Images/Speaker1.jpg,Images/Speaker2.jpg,Images/Speaker3.jpg,Images/Speaker4.jpg,Audio/Speaker1_Per/P1-3-Per.wav,Speaker1,گوینده ۱,,,,,004714,001,2024-08-04_14h29.33.713,5-34 ready-monolingual persian speaker,2024.1.5,None,2024-08-04 14h29.38.746552 +0900,
,,,,,,,Images/Speaker1.jpg,Images/Speaker2.jpg,Images/Speaker3.jpg,Images/Speaker4.jpg,Audio/Speaker3_Per/P3-18-Per.wav,Speaker3,گوینده۳,,,,,,,,,0,13,13,57,371.2108228750003,,,,,,,,,,,,,,,,,,,,,,,,,,,,,,,,,,,,,,,,,,,,,,,,,,,,,,,,,,,,,,,,,,,,,,,,,,,,,,,,,,,,,,,,,,,,,,,,,,,,,,,,,,,,371.1895396660002,371.2108228750003,371.2108228750003,371.2108228750003,371.2108228750003,371.2159435413346,371.2108228750003,371.2108228750003,372.6660445410016,3,1.4508923339999455,None,3,Images/Speaker1.jpg,Images/Speaker2.jpg,Images/Speaker3.jpg,Images/Speaker4.jpg,Audio/Speaker3_Per/P3-18-Per.wav,Speaker3,گوینده۳,,,,,004714,001,2024-08-04_14h29.33.713,5-34 ready-monolingual persian speaker,2024.1.5,None,2024-08-04 14h29.38.746552 +0900,
,,,,,,,Images/Speaker1.jpg,Images/Speaker2.jpg,Images/Speaker3.jpg,Images/Speaker4.jpg,Audio/Speaker1_Per/P1-4-Per.wav,Speaker1,گوینده ۱,,,,,,,,,0,14,14,13,372.6944749579998,,,,,,,,,,,,,,,,,,,,,,,,,,,,,,,,,,,,,,,,,,,,,,,,,,,,,,,,,,,,,,,,,,,,,,,,,,,,,,,,,,,,,,,,,,,,,,,,,,,,,,,,,,,,372.6700746250026,372.6944749579998,372.6944749579998,372.6944749579998,372.6944749579998,372.69862654133294,372.6944749579998,372.6944749579998,373.8758064160029,1,1.1754334580000432,None,1,Images/Speaker1.jpg,Images/Speaker2.jpg,Images/Speaker3.jpg,Images/Speaker4.jpg,Audio/Speaker1_Per/P1-4-Per.wav,Speaker1,گوینده ۱,,,,,004714,001,2024-08-04_14h29.33.713,5-34 ready-monolingual persian speaker,2024.1.5,None,2024-08-04 14h29.38.746552 +0900,
,,,,,,,Images/Speaker1.jpg,Images/Speaker2.jpg,Images/Speaker3.jpg,Images/Speaker4.jpg,Audio/Speaker4_Per/P4-14-Per.wav,Speaker4,گوینده۴,,,,,,,,,0,15,15,73,373.903252291002,,,,,,,,,,,,,,,,,,,,,,,,,,,,,,,,,,,,,,,,,,,,,,,,,,,,,,,,,,,,,,,,,,,,,,,,,,,,,,,,,,,,,,,,,,,,,,,,,,,,,,,,,,,,373.87984429100106,373.903252291002,373.903252291002,373.903252291002,373.903252291002,373.90835399933394,373.903252291002,373.903252291002,375.8538548329998,4,1.9412026250029157,None,4,Images/Speaker1.jpg,Images/Speaker2.jpg,Images/Speaker3.jpg,Images/Speaker4.jpg,Audio/Speaker4_Per/P4-14-Per.wav,Speaker4,گوینده۴,,,,,004714,001,2024-08-04_14h29.33.713,5-34 ready-monolingual persian speaker,2024.1.5,None,2024-08-04 14h29.38.746552 +0900,
,,,,,,,Images/Speaker1.jpg,Images/Speaker2.jpg,Images/Speaker3.jpg,Images/Speaker4.jpg,Audio/Speaker2_Per/P2-14-Per.wav,Speaker2,گوینده۲,,,,,,,,,0,16,16,33,375.8823137500003,,,,,,,,,,,,,,,,,,,,,,,,,,,,,,,,,,,,,,,,,,,,,,,,,,,,,,,,,,,,,,,,,,,,,,,,,,,,,,,,,,,,,,,,,,,,,,,,,,,,,,,,,,,,375.85828420800317,375.8823137500003,375.8823137500003,375.8823137500003,375.8823137500003,375.88627779133503,375.8823137500003,375.8823137500003,377.1840015830021,2,1.2900047080001968,None,2,Images/Speaker1.jpg,Images/Speaker2.jpg,Images/Speaker3.jpg,Images/Speaker4.jpg,Audio/Speaker2_Per/P2-14-Per.wav,Speaker2,گوینده۲,,,,,004714,001,2024-08-04_14h29.33.713,5-34 ready-monolingual persian speaker,2024.1.5,None,2024-08-04 14h29.38.746552 +0900,
,,,,,,,Images/Speaker1.jpg,Images/Speaker2.jpg,Images/Speaker3.jpg,Images/Speaker4.jpg,Audio/Speaker1_Per/P1-6-Per.wav,Speaker1,گوینده ۱,,,,,,,,,0,17,17,5,377.20941679099997,,,,,,,,,,,,,,,,,,,,,,,,,,,,,,,,,,,,,,,,,,,,,,,,,,,,,,,,,,,,,,,,,,,,,,,,,,,,,,,,,,,,,,,,,,,,,,,,,,,,,,,,,,,,377.18797475000247,377.20941679099997,377.20941679099997,377.20941679099997,377.20941679099997,377.21653716633637,377.20941679099997,377.20941679099997,378.3721246660025,1,1.1557077079996816,None,1,Images/Speaker1.jpg,Images/Speaker2.jpg,Images/Speaker3.jpg,Images/Speaker4.jpg,Audio/Speaker1_Per/P1-6-Per.wav,Speaker1,گوینده ۱,,,,,004714,001,2024-08-04_14h29.33.713,5-34 ready-monolingual persian speaker,2024.1.5,None,2024-08-04 14h29.38.746552 +0900,
,,,,,,,Images/Speaker1.jpg,Images/Speaker2.jpg,Images/Speaker3.jpg,Images/Speaker4.jpg,Audio/Speaker3_Per/P3-2-Per.wav,Speaker3,گوینده۳,,,,,,,,,0,18,18,41,378.39659700000266,,,,,,,,,,,,,,,,,,,,,,,,,,,,,,,,,,,,,,,,,,,,,,,,,,,,,,,,,,,,,,,,,,,,,,,,,,,,,,,,,,,,,,,,,,,,,,,,,,,,,,,,,,,,378.37643200000093,378.39659700000266,378.39659700000266,378.39659700000266,378.39659700000266,378.40458887433533,378.39659700000266,378.39659700000266,379.92350370799977,3,1.5198098340006254,None,3,Images/Speaker1.jpg,Images/Speaker2.jpg,Images/Speaker3.jpg,Images/Speaker4.jpg,Audio/Speaker3_Per/P3-2-Per.wav,Speaker3,گوینده۳,,,,,004714,001,2024-08-04_14h29.33.713,5-34 ready-monolingual persian speaker,2024.1.5,None,2024-08-04 14h29.38.746552 +0900,
,,,,,,,Images/Speaker1.jpg,Images/Speaker2.jpg,Images/Speaker3.jpg,Images/Speaker4.jpg,Audio/Speaker1_Per/P1-13-Per.wav,Speaker1,گوینده ۱,,,,,,,,,0,19,19,12,379.94894329100134,,,,,,,,,,,,,,,,,,,,,,,,,,,,,,,,,,,,,,,,,,,,,,,,,,,,,,,,,,,,,,,,,,,,,,,,,,,,,,,,,,,,,,,,,,,,,,,,,,,,,,,,,,,,379.92760754100163,379.94894329100134,379.94894329100134,379.94894329100134,379.94894329100134,379.95592229133445,379.94894329100134,379.94894329100134,381.28708245800226,1,1.3337571250012843,None,1,Images/Speaker1.jpg,Images/Speaker2.jpg,Images/Speaker3.jpg,Images/Speaker4.jpg,Audio/Speaker1_Per/P1-13-Per.wav,Speaker1,گوینده ۱,,,,,004714,001,2024-08-04_14h29.33.713,5-34 ready-monolingual persian speaker,2024.1.5,None,2024-08-04 14h29.38.746552 +0900,
,,,,,,,Images/Speaker1.jpg,Images/Speaker2.jpg,Images/Speaker3.jpg,Images/Speaker4.jpg,Audio/Speaker1_Per/P1-7-Per.wav,Speaker1,گوینده ۱,,,,,,,,,0,20,20,6,381.31206641600147,,,,,,,,,,,,,,,,,,,,,,,,,,,,,,,,,,,,,,,,,,,,,,,,,,,,,,,,,,,,,,,,,,,,,,,,,,,,,,,,,,,,,,,,,,,,,,,,,,,,,,,,,,,,381.29105370800244,381.31206641600147,381.31206641600147,381.31206641600147,381.31206641600147,381.3195737913343,381.31206641600147,381.31206641600147,382.4965588330015,1,1.1820680840028217,None,1,Images/Speaker1.jpg,Images/Speaker2.jpg,Images/Speaker3.jpg,Images/Speaker4.jpg,Audio/Speaker1_Per/P1-7-Per.wav,Speaker1,گوینده ۱,,,,,004714,001,2024-08-04_14h29.33.713,5-34 ready-monolingual persian speaker,2024.1.5,None,2024-08-04 14h29.38.746552 +0900,
,,,,,,,Images/Speaker1.jpg,Images/Speaker2.jpg,Images/Speaker3.jpg,Images/Speaker4.jpg,Audio/Speaker4_Per/P4-15-Per.wav,Speaker4,گوینده۴,,,,,,,,,0,21,21,74,382.5221554580021,,,,,,,,,,,,,,,,,,,,,,,,,,,,,,,,,,,,,,,,,,,,,,,,,,,,,,,,,,,,,,,,,,,,,,,,,,,,,,,,,,,,,,,,,,,,,,,,,,,,,,,,,,,,382.5004351250027,382.5221554580021,382.5221554580021,382.5221554580021,382.5221554580021,382.5290929993357,382.5221554580021,382.5221554580021,384.05902487500134,4,1.5345288749995234,None,4,Images/Speaker1.jpg,Images/Speaker2.jpg,Images/Speaker3.jpg,Images/Speaker4.jpg,Audio/Speaker4_Per/P4-15-Per.wav,Speaker4,گوینده۴,,,,,004714,001,2024-08-04_14h29.33.713,5-34 ready-monolingual persian speaker,2024.1.5,None,2024-08-04 14h29.38.746552 +0900,
,,,,,,,Images/Speaker1.jpg,Images/Speaker2.jpg,Images/Speaker3.jpg,Images/Speaker4.jpg,Audio/Speaker4_Per/P4-6-Per.wav,Speaker4,گوینده۴,,,,,,,,,0,22,22,65,384.08550991599986,,,,,,,,,,,,,,,,,,,,,,,,,,,,,,,,,,,,,,,,,,,,,,,,,,,,,,,,,,,,,,,,,,,,,,,,,,,,,,,,,,,,,,,,,,,,,,,,,,,,,,,,,,,,384.0630317080031,384.08550991599986,384.08550991599986,384.08550991599986,384.08550991599986,384.091486458336,384.08550991599986,384.08550991599986,385.31305412500296,4,1.2197768750011164,None,4,Images/Speaker1.jpg,Images/Speaker2.jpg,Images/Speaker3.jpg,Images/Speaker4.jpg,Audio/Speaker4_Per/P4-6-Per.wav,Speaker4,گوینده۴,,,,,004714,001,2024-08-04_14h29.33.713,5-34 ready-monolingual persian speaker,2024.1.5,None,2024-08-04 14h29.38.746552 +0900,
,,,,,,,Images/Speaker1.jpg,Images/Speaker2.jpg,Images/Speaker3.jpg,Images/Speaker4.jpg,Audio/Speaker4_Per/P4-18-Per.wav,Speaker4,گوینده۴,,,,,,,,,0,23,23,77,385.3359117910004,,,,,,,,,,,,,,,,,,,,,,,,,,,,,,,,,,,,,,,,,,,,,,,,,,,,,,,,,,,,,,,,,,,,,,,,,,,,,,,,,,,,,,,,,,,,,,,,,,,,,,,,,,,,385.31737766600054,385.3359117910004,385.3359117910004,385.3359117910004,385.3359117910004,385.345525541336,385.3359117910004,385.3359117910004,386.50568754100095,4,1.1674166659977345,None,4,Images/Speaker1.jpg,Images/Speaker2.jpg,Images/Speaker3.jpg,Images/Speaker4.jpg,Audio/Speaker4_Per/P4-18-Per.wav,Speaker4,گوینده۴,,,,,004714,001,2024-08-04_14h29.33.713,5-34 ready-monolingual persian speaker,2024.1.5,None,2024-08-04 14h29.38.746552 +0900,
,,,,,,,Images/Speaker1.jpg,Images/Speaker2.jpg,Images/Speaker3.jpg,Images/Speaker4.jpg,Audio/Speaker3_Per/P3-4-Per.wav,Speaker3,گوینده۳,,,,,,,,,0,24,24,43,386.5323905000005,,,,,,,,,,,,,,,,,,,,,,,,,,,,,,,,,,,,,,,,,,,,,,,,,,,,,,,,,,,,,,,,,,,,,,,,,,,,,,,,,,,,,,,,,,,,,,,,,,,,,,,,,,,,386.50956479100205,386.5323905000005,386.5323905000005,386.5323905000005,386.5323905000005,386.53817008333544,386.5323905000005,386.5323905000005,387.59196891600004,4,1.04767237499982,None,4,Images/Speaker1.jpg,Images/Speaker2.jpg,Images/Speaker3.jpg,Images/Speaker4.jpg,Audio/Speaker3_Per/P3-4-Per.wav,Speaker3,گوینده۳,,,,,004714,001,2024-08-04_14h29.33.713,5-34 ready-monolingual persian speaker,2024.1.5,None,2024-08-04 14h29.38.746552 +0900,
,,,,,,,Images/Speaker1.jpg,Images/Speaker2.jpg,Images/Speaker3.jpg,Images/Speaker4.jpg,Audio/Speaker4_Per/P4-10-Per.wav,Speaker4,گوینده۴,,,,,,,,,0,25,25,69,387.6151154580002,,,,,,,,,,,,,,,,,,,,,,,,,,,,,,,,,,,,,,,,,,,,,,,,,,,,,,,,,,,,,,,,,,,,,,,,,,,,,,,,,,,,,,,,,,,,,,,,,,,,,,,,,,,,387.5961891250008,387.6151154580002,387.6151154580002,387.6151154580002,387.6151154580002,387.6244787493347,387.6151154580002,387.6151154580002,389.13535262500227,4,1.507081374998961,None,4,Images/Speaker1.jpg,Images/Speaker2.jpg,Images/Speaker3.jpg,Images/Speaker4.jpg,Audio/Speaker4_Per/P4-10-Per.wav,Speaker4,گوینده۴,,,,,004714,001,2024-08-04_14h29.33.713,5-34 ready-monolingual persian speaker,2024.1.5,None,2024-08-04 14h29.38.746552 +0900,
,,,,,,,Images/Speaker1.jpg,Images/Speaker2.jpg,Images/Speaker3.jpg,Images/Speaker4.jpg,Audio/Speaker1_Per/P1-11-Per.wav,Speaker1,گوینده ۱,,,,,,,,,0,26,26,10,389.16555083300045,,,,,,,,,,,,,,,,,,,,,,,,,,,,,,,,,,,,,,,,,,,,,,,,,,,,,,,,,,,,,,,,,,,,,,,,,,,,,,,,,,,,,,,,,,,,,,,,,,,,,,,,,,,,389.14071854100257,389.16555083300045,389.16555083300045,389.16555083300045,389.16555083300045,389.167817791335,389.16555083300045,389.16555083300045,390.2442471249997,1,1.0715080420013692,None,1,Images/Speaker1.jpg,Images/Speaker2.jpg,Images/Speaker3.jpg,Images/Speaker4.jpg,Audio/Speaker1_Per/P1-11-Per.wav,Speaker1,گوینده ۱,,,,,004714,001,2024-08-04_14h29.33.713,5-34 ready-monolingual persian speaker,2024.1.5,None,2024-08-04 14h29.38.746552 +0900,
,,,,,,,Images/Speaker1.jpg,Images/Speaker2.jpg,Images/Speaker3.jpg,Images/Speaker4.jpg,Audio/Speaker3_Per/P3-9-Per.wav,Speaker3,گوینده۳,,,,,,,,,0,27,27,48,390.26928045800014,,,,,,,,,,,,,,,,,,,,,,,,,,,,,,,,,,,,,,,,,,,,,,,,,,,,,,,,,,,,,,,,,,,,,,,,,,,,,,,,,,,,,,,,,,,,,,,,,,,,,,,,,,,,390.24837441600175,390.26928045800014,390.26928045800014,390.26928045800014,390.26928045800014,390.2760745833334,390.26928045800014,390.26928045800014,391.6350075830014,3,1.3563395829987712,None,3,Images/Speaker1.jpg,Images/Speaker2.jpg,Images/Speaker3.jpg,Images/Speaker4.jpg,Audio/Speaker3_Per/P3-9-Per.wav,Speaker3,گوینده۳,,,,,004714,001,2024-08-04_14h29.33.713,5-34 ready-monolingual persian speaker,2024.1.5,None,2024-08-04 14h29.38.746552 +0900,
,,,,,,,Images/Speaker1.jpg,Images/Speaker2.jpg,Images/Speaker3.jpg,Images/Speaker4.jpg,Audio/Speaker4_Per/P4-7-Per.wav,Speaker4,گوینده۴,,,,,,,,,0,28,28,66,391.66057804100274,,,,,,,,,,,,,,,,,,,,,,,,,,,,,,,,,,,,,,,,,,,,,,,,,,,,,,,,,,,,,,,,,,,,,,,,,,,,,,,,,,,,,,,,,,,,,,,,,,,,,,,,,,,,391.63931958300236,391.66057804100274,391.66057804100274,391.66057804100274,391.66057804100274,391.6674822913342,391.66057804100274,391.66057804100274,392.91509987500103,4,1.2469920000003185,None,4,Images/Speaker1.jpg,Images/Speaker2.jpg,Images/Speaker3.jpg,Images/Speaker4.jpg,Audio/Speaker4_Per/P4-7-Per.wav,Speaker4,گوینده۴,,,,,004714,001,2024-08-04_14h29.33.713,5-34 ready-monolingual persian speaker,2024.1.5,None,2024-08-04 14h29.38.746552 +0900,
,,,,,,,Images/Speaker1.jpg,Images/Speaker2.jpg,Images/Speaker3.jpg,Images/Speaker4.jpg,Audio/Speaker4_Per/P4-2-Per.wav,Speaker4,گوینده۴,,,,,,,,,0,29,29,61,392.9394142910023,,,,,,,,,,,,,,,,,,,,,,,,,,,,,,,,,,,,,,,,,,,,,,,,,,,,,,,,,,,,,,,,,,,,,,,,,,,,,,,,,,,,,,,,,,,,,,,,,,,,,,,,,,,,392.9193751660023,392.9394142910023,392.9394142910023,392.9394142910023,392.9394142910023,392.9476007493363,392.9394142910023,392.9394142910023,394.1304611660016,4,1.1886146249999001,None,4,Images/Speaker1.jpg,Images/Speaker2.jpg,Images/Speaker3.jpg,Images/Speaker4.jpg,Audio/Speaker4_Per/P4-2-Per.wav,Speaker4,گوینده۴,,,,,004714,001,2024-08-04_14h29.33.713,5-34 ready-monolingual persian speaker,2024.1.5,None,2024-08-04 14h29.38.746552 +0900,
,,,,,,,Images/Speaker1.jpg,Images/Speaker2.jpg,Images/Speaker3.jpg,Images/Speaker4.jpg,Audio/Speaker2_Per/P2-20-Per.wav,Speaker2,گوینده۲,,,,,,,,,0,30,30,39,394.1548318330024,,,,,,,,,,,,,,,,,,,,,,,,,,,,,,,,,,,,,,,,,,,,,,,,,,,,,,,,,,,,,,,,,,,,,,,,,,,,,,,,,,,,,,,,,,,,,,,,,,,,,,,,,,,,394.1342925830031,394.1548318330024,394.1548318330024,394.1548318330024,394.1548318330024,394.14640274966973,394.1548318330024,394.1548318330024,395.22654700000203,2,1.0612503750016913,None,2,Images/Speaker1.jpg,Images/Speaker2.jpg,Images/Speaker3.jpg,Images/Speaker4.jpg,Audio/Speaker2_Per/P2-20-Per.wav,Speaker2,گوینده۲,,,,,004714,001,2024-08-04_14h29.33.713,5-34 ready-monolingual persian speaker,2024.1.5,None,2024-08-04 14h29.38.746552 +0900,
,,,,,,,Images/Speaker1.jpg,Images/Speaker2.jpg,Images/Speaker3.jpg,Images/Speaker4.jpg,Audio/Speaker2_Per/P2-8-Per.wav,Speaker2,گوینده۲,,,,,,,,,0,31,31,27,395.25206954100213,,,,,,,,,,,,,,,,,,,,,,,,,,,,,,,,,,,,,,,,,,,,,,,,,,,,,,,,,,,,,,,,,,,,,,,,,,,,,,,,,,,,,,,,,,,,,,,,,,,,,,,,,,,,395.2305561659996,395.25206954100213,395.25206954100213,395.25206954100213,395.25206954100213,395.2589952913336,395.25206954100213,395.25206954100213,396.33596891600246,2,1.075359375001426,None,2,Images/Speaker1.jpg,Images/Speaker2.jpg,Images/Speaker3.jpg,Images/Speaker4.jpg,Audio/Speaker2_Per/P2-8-Per.wav,Speaker2,گوینده۲,,,,,004714,001,2024-08-04_14h29.33.713,5-34 ready-monolingual persian speaker,2024.1.5,None,2024-08-04 14h29.38.746552 +0900,
,,,,,,,Images/Speaker1.jpg,Images/Speaker2.jpg,Images/Speaker3.jpg,Images/Speaker4.jpg,Audio/Speaker1_Per/P1-5-Per.wav,Speaker1,گوینده ۱,,,,,,,,,0,32,32,4,396.36204320800243,,,,,,,,,,,,,,,,,,,,,,,,,,,,,,,,,,,,,,,,,,,,,,,,,,,,,,,,,,,,,,,,,,,,,,,,,,,,,,,,,,,,,,,,,,,,,,,,,,,,,,,,,,,,396.34030783300113,396.36204320800243,396.36204320800243,396.36204320800243,396.36204320800243,396.3674203333362,396.36204320800243,396.36204320800243,397.4248863749999,1,1.0582469580003817,None,1,Images/Speaker1.jpg,Images/Speaker2.jpg,Images/Speaker3.jpg,Images/Speaker4.jpg,Audio/Speaker1_Per/P1-5-Per.wav,Speaker1,گوینده ۱,,,,,004714,001,2024-08-04_14h29.33.713,5-34 ready-monolingual persian speaker,2024.1.5,None,2024-08-04 14h29.38.746552 +0900,
,,,,,,,Images/Speaker1.jpg,Images/Speaker2.jpg,Images/Speaker3.jpg,Images/Speaker4.jpg,Audio/Speaker4_Per/P4-3-Per.wav,Speaker4,گوینده۴,,,,,,,,,0,33,33,62,397.4502933750009,,,,,,,,,,,,,,,,,,,,,,,,,,,,,,,,,,,,,,,,,,,,,,,,,,,,,,,,,,,,,,,,,,,,,,,,,,,,,,,,,,,,,,,,,,,,,,,,,,,,,,,,,,,,397.4293272080031,397.4502933750009,397.4502933750009,397.4502933750009,397.4502933750009,397.4573655833342,397.4502933750009,397.4502933750009,398.51086866600235,4,1.0579530840004736,None,4,Images/Speaker1.jpg,Images/Speaker2.jpg,Images/Speaker3.jpg,Images/Speaker4.jpg,Audio/Speaker4_Per/P4-3-Per.wav,Speaker4,گوینده۴,,,,,004714,001,2024-08-04_14h29.33.713,5-34 ready-monolingual persian speaker,2024.1.5,None,2024-08-04 14h29.38.746552 +0900,
,,,,,,,Images/Speaker1.jpg,Images/Speaker2.jpg,Images/Speaker3.jpg,Images/Speaker4.jpg,Audio/Speaker3_Per/P3-12-Per.wav,Speaker3,گوینده۳,,,,,,,,,0,34,34,51,398.5359475410005,,,,,,,,,,,,,,,,,,,,,,,,,,,,,,,,,,,,,,,,,,,,,,,,,,,,,,,,,,,,,,,,,,,,,,,,,,,,,,,,,,,,,,,,,,,,,,,,,,,,,,,,,,,,398.51494725000157,398.5359475410005,398.5359475410005,398.5359475410005,398.5359475410005,398.5419757913337,398.5359475410005,398.5359475410005,399.8753726249997,3,1.331597624997812,None,3,Images/Speaker1.jpg,Images/Speaker2.jpg,Images/Speaker3.jpg,Images/Speaker4.jpg,Audio/Speaker3_Per/P3-12-Per.wav,Speaker3,گوینده۳,,,,,004714,001,2024-08-04_14h29.33.713,5-34 ready-monolingual persian speaker,2024.1.5,None,2024-08-04 14h29.38.746552 +0900,
,,,,,,,Images/Speaker1.jpg,Images/Speaker2.jpg,Images/Speaker3.jpg,Images/Speaker4.jpg,Audio/Speaker4_Per/P4-19-Per.wav,Speaker4,گوینده۴,,,,,,,,,0,35,35,78,399.9010634160004,,,,,,,,,,,,,,,,,,,,,,,,,,,,,,,,,,,,,,,,,,,,,,,,,,,,,,,,,,,,,,,,,,,,,,,,,,,,,,,,,,,,,,,,,,,,,,,,,,,,,,,,,,,,399.879356458001,399.9010634160004,399.9010634160004,399.9010634160004,399.9010634160004,399.9078929993343,399.9010634160004,399.9010634160004,401.3059633330013,4,1.403867375000118,None,4,Images/Speaker1.jpg,Images/Speaker2.jpg,Images/Speaker3.jpg,Images/Speaker4.jpg,Audio/Speaker4_Per/P4-19-Per.wav,Speaker4,گوینده۴,,,,,004714,001,2024-08-04_14h29.33.713,5-34 ready-monolingual persian speaker,2024.1.5,None,2024-08-04 14h29.38.746552 +0900,
,,,,,,,Images/Speaker1.jpg,Images/Speaker2.jpg,Images/Speaker3.jpg,Images/Speaker4.jpg,Audio/Speaker2_Per/P2-11-Per.wav,Speaker2,گوینده۲,,,,,,,,,0,36,36,30,401.33175845799997,,,,,,,,,,,,,,,,,,,,,,,,,,,,,,,,,,,,,,,,,,,,,,,,,,,,,,,,,,,,,,,,,,,,,,,,,,,,,,,,,,,,,,,,,,,,,,,,,,,,,,,,,,,,401.3099673329998,401.33175845799997,401.33175845799997,401.33175845799997,401.33175845799997,401.3381523743342,401.33175845799997,401.33175845799997,402.544777375002,2,1.209704666001926,None,2,Images/Speaker1.jpg,Images/Speaker2.jpg,Images/Speaker3.jpg,Images/Speaker4.jpg,Audio/Speaker2_Per/P2-11-Per.wav,Speaker2,گوینده۲,,,,,004714,001,2024-08-04_14h29.33.713,5-34 ready-monolingual persian speaker,2024.1.5,None,2024-08-04 14h29.38.746552 +0900,
,,,,,,,Images/Speaker1.jpg,Images/Speaker2.jpg,Images/Speaker3.jpg,Images/Speaker4.jpg,Audio/Speaker1_Per/P1-2-Per.wav,Speaker1,گوینده ۱,,,,,,,,,0,37,37,1,402.5704695000022,,,,,,,,,,,,,,,,,,,,,,,,,,,,,,,,,,,,,,,,,,,,,,,,,,,,,,,,,,,,,,,,,,,,,,,,,,,,,,,,,,,,,,,,,,,,,,,,,,,,,,,,,,,,402.5487223750024,402.5704695000022,402.5704695000022,402.5704695000022,402.5704695000022,402.57732679133596,402.5704695000022,402.5704695000022,403.73297037500015,1,1.1536463750016992,None,1,Images/Speaker1.jpg,Images/Speaker2.jpg,Images/Speaker3.jpg,Images/Speaker4.jpg,Audio/Speaker1_Per/P1-2-Per.wav,Speaker1,گوینده ۱,,,,,004714,001,2024-08-04_14h29.33.713,5-34 ready-monolingual persian speaker,2024.1.5,None,2024-08-04 14h29.38.746552 +0900,
,,,,,,,Images/Speaker1.jpg,Images/Speaker2.jpg,Images/Speaker3.jpg,Images/Speaker4.jpg,Audio/Speaker3_Per/P3-10-Per.wav,Speaker3,گوینده۳,,,,,,,,,0,38,38,49,403.7586302080017,,,,,,,,,,,,,,,,,,,,,,,,,,,,,,,,,,,,,,,,,,,,,,,,,,,,,,,,,,,,,,,,,,,,,,,,,,,,,,,,,,,,,,,,,,,,,,,,,,,,,,,,,,,,403.7368395000012,403.7586302080017,403.7586302080017,403.7586302080017,403.7586302080017,403.7654548743344,403.7586302080017,403.7586302080017,405.0248966250001,3,1.2638679590018,None,3,Images/Speaker1.jpg,Images/Speaker2.jpg,Images/Speaker3.jpg,Images/Speaker4.jpg,Audio/Speaker3_Per/P3-10-Per.wav,Speaker3,گوینده۳,,,,,004714,001,2024-08-04_14h29.33.713,5-34 ready-monolingual persian speaker,2024.1.5,None,2024-08-04 14h29.38.746552 +0900,
,,,,,,,Images/Speaker1.jpg,Images/Speaker2.jpg,Images/Speaker3.jpg,Images/Speaker4.jpg,Audio/Speaker2_Per/P2-10-Per.wav,Speaker2,گوینده۲,,,,,,,,,0,39,39,29,405.0504287500007,,,,,,,,,,,,,,,,,,,,,,,,,,,,,,,,,,,,,,,,,,,,,,,,,,,,,,,,,,,,,,,,,,,,,,,,,,,,,,,,,,,,,,,,,,,,,,,,,,,,,,,,,,,,405.0287212080002,405.0504287500007,405.0504287500007,405.0504287500007,405.0504287500007,405.0573513743334,405.0504287500007,405.0504287500007,406.69183616600276,2,1.6305494999978691,None,2,Images/Speaker1.jpg,Images/Speaker2.jpg,Images/Speaker3.jpg,Images/Speaker4.jpg,Audio/Speaker2_Per/P2-10-Per.wav,Speaker2,گوینده۲,,,,,004714,001,2024-08-04_14h29.33.713,5-34 ready-monolingual persian speaker,2024.1.5,None,2024-08-04 14h29.38.746552 +0900,
,,,,,,,Images/Speaker1.jpg,Images/Speaker2.jpg,Images/Speaker3.jpg,Images/Speaker4.jpg,Audio/Speaker2_Per/P2-18-Per.wav,Speaker2,گوینده۲,,,,,,,,,0,40,40,37,406.7213006660022,,,,,,,,,,,,,,,,,,,,,,,,,,,,,,,,,,,,,,,,,,,,,,,,,,,,,,,,,,,,,,,,,,,,,,,,,,,,,,,,,,,,,,,,,,,,,,,,,,,,,,,,,,,,406.6976465410007,406.7213006660022,406.7213006660022,406.7213006660022,406.7213006660022,406.72434754133474,406.7213006660022,406.7213006660022,408.0474854580025,2,1.3149018329968385,None,2,Images/Speaker1.jpg,Images/Speaker2.jpg,Images/Speaker3.jpg,Images/Speaker4.jpg,Audio/Speaker2_Per/P2-18-Per.wav,Speaker2,گوینده۲,,,,,004714,001,2024-08-04_14h29.33.713,5-34 ready-monolingual persian speaker,2024.1.5,None,2024-08-04 14h29.38.746552 +0900,
,,,,,,,Images/Speaker1.jpg,Images/Speaker2.jpg,Images/Speaker3.jpg,Images/Speaker4.jpg,Audio/Speaker4_Per/P4-17-Per.wav,Speaker4,گوینده۴,,,,,,,,,0,41,41,76,408.07345612500285,,,,,,,,,,,,,,,,,,,,,,,,,,,,,,,,,,,,,,,,,,,,,,,,,,,,,,,,,,,,,,,,,,,,,,,,,,,,,,,,,,,,,,,,,,,,,,,,,,,,,,,,,,,,408.05189883300045,408.07345612500285,408.07345612500285,408.07345612500285,408.07345612500285,408.07814191633634,408.07345612500285,408.07345612500285,409.2238573329996,4,1.1462397499999497,None,4,Images/Speaker1.jpg,Images/Speaker2.jpg,Images/Speaker3.jpg,Images/Speaker4.jpg,Audio/Speaker4_Per/P4-17-Per.wav,Speaker4,گوینده۴,,,,,004714,001,2024-08-04_14h29.33.713,5-34 ready-monolingual persian speaker,2024.1.5,None,2024-08-04 14h29.38.746552 +0900,
,,,,,,,Images/Speaker1.jpg,Images/Speaker2.jpg,Images/Speaker3.jpg,Images/Speaker4.jpg,Audio/Speaker1_Per/P1-9-Per.wav,Speaker1,گوینده ۱,,,,,,,,,0,42,42,8,409.2509376250018,,,,,,,,,,,,,,,,,,,,,,,,,,,,,,,,,,,,,,,,,,,,,,,,,,,,,,,,,,,,,,,,,,,,,,,,,,,,,,,,,,,,,,,,,,,,,,,,,,,,,,,,,,,,409.22896983300234,409.2509376250018,409.2509376250018,409.2509376250018,409.2509376250018,409.256409916336,409.2509376250018,409.2509376250018,410.3025340830027,1,1.0437359579991607,None,1,Images/Speaker1.jpg,Images/Speaker2.jpg,Images/Speaker3.jpg,Images/Speaker4.jpg,Audio/Speaker1_Per/P1-9-Per.wav,Speaker1,گوینده ۱,,,,,004714,001,2024-08-04_14h29.33.713,5-34 ready-monolingual persian speaker,2024.1.5,None,2024-08-04 14h29.38.746552 +0900,
,,,,,,,Images/Speaker1.jpg,Images/Speaker2.jpg,Images/Speaker3.jpg,Images/Speaker4.jpg,Audio/Speaker3_Per/P3-16-Per.wav,Speaker3,گوینده۳,,,,,,,,,0,43,43,55,410.33151524999994,,,,,,,,,,,,,,,,,,,,,,,,,,,,,,,,,,,,,,,,,,,,,,,,,,,,,,,,,,,,,,,,,,,,,,,,,,,,,,,,,,,,,,,,,,,,,,,,,,,,,,,,,,,,410.3079686660021,410.33151524999994,410.33151524999994,410.33151524999994,410.33151524999994,410.3343180833331,410.33151524999994,410.33151524999994,411.34682220800096,3,1.014372875000845,None,3,Images/Speaker1.jpg,Images/Speaker2.jpg,Images/Speaker3.jpg,Images/Speaker4.jpg,Audio/Speaker3_Per/P3-16-Per.wav,Speaker3,گوینده۳,,,,,004714,001,2024-08-04_14h29.33.713,5-34 ready-monolingual persian speaker,2024.1.5,None,2024-08-04 14h29.38.746552 +0900,
