SpeakerImage1,SpeakerImage2,SpeakerImage3,SpeakerImage4,TrainingSound,EnglishCorrectAnswer,PersianCorrectAnswer,TrainingLoopGroup1.thisRepN,TrainingLoopGroup1.thisTrialN,TrainingLoopGroup1.thisN,TrainingLoopGroup1.thisIndex,TrainingLoopGroup2.thisRepN,TrainingLoopGroup2.thisTrialN,TrainingLoopGroup2.thisN,TrainingLoopGroup2.thisIndex,TrainingLoopGroup3.thisRepN,TrainingLoopGroup3.thisTrialN,TrainingLoopGroup3.thisN,TrainingLoopGroup3.thisIndex,thisRow.t,notes,trial.started,trial.stopped,GroupSelection.started,GroupInstructions.started,key_resp.started,GroupSelection.stopped,key_resp.keys,key_resp.rt,key_resp.duration,Introduction.started,text_2.started,image.started,sound_7.started,text_4.started,text_2.stopped,sound_8.started,image.stopped,text_4.stopped,image_7.started,sound_9.started,text_5.started,sound_10.started,image_7.stopped,text_5.stopped,image_8.started,sound_11.started,text_6.started,sound_12.started,image_8.stopped,text_6.stopped,image_9.started,sound_13.started,text_7.started,sound_14.started,image_9.stopped,text_7.stopped,Introduction.stopped,Instructions.started,InstructionText.started,InstructionText.stopped,Instructions.stopped,InitializeExperiment.started,InitializeExperiment.stopped,TrainingGroup3.started,SpeakerPicture3.started,image_15.started,image_16.started,image_17.started,Sound3.started,Instruction3.started,Response3.started,TrainingGroup3.stopped,feedbackText,Response3.keys,Response3.rt,Response3.duration,correct_responses_group3,total_trials_group3,FeedbackRoutine3.started,FeedbackText3.started,FeedbackText3.stopped,FeedbackRoutine3.stopped,CheckAccuracy3.started,CheckAccuracy3.stopped,participant,session,date,expName,psychopyVersion,frameRate,expStart,
,,,,,,,,,,,,,,,,,,,,,0.009388166999997338,0.00972704200012231,,,,,,,,,,,,,,,,,,,,,,,,,,,,,,,,,,,,,,,,,,,,,,,,,,,,,,,,,,,,,,,030935,001,2024-07-01_17h25.11.885,5-26,2024.1.4,None,2024-07-01 17h25.17.450356 +0900,
,,,,,,,,,,,,,,,,,,,,,,,0.009744083000441606,0.01443558299979486,0.01443558299979486,1.1784650830004466,3,1.1209605829999418,None,,,,,,,,,,,,,,,,,,,,,,,,,,,,,,,,,,,,,,,,,,,,,,,,,,,,,,,,030935,001,2024-07-01_17h25.11.885,5-26,2024.1.4,None,2024-07-01 17h25.17.450356 +0900,
,,,,,,,,,,,,,,,,,,,,,,,,,,,,,,1.1784890420003649,1.2359485420001874,6.171723999999813,6.182310083666622,6.171723999999813,6.234565875000044,11.17812962466657,16.16159024999979,16.16159024999979,16.177743291999832,16.178256916666456,16.177743291999832,21.179168166666628,26.173284833000253,26.173284833000253,26.173284833000253,26.183379874666812,26.173284833000253,31.177741333666987,36.16467945800014,36.16467945800014,36.17000604199984,36.1813461246668,36.17000604199984,41.18343766666682,46.16910800000005,46.16910800000005,46.154085832999954,,,,,,,,,,,,,,,,,,,,,,,,,,,,030935,001,2024-07-01_17h25.11.885,5-26,2024.1.4,None,2024-07-01 17h25.17.450356 +0900,
,,,,,,,,,,,,,,,,,,,,,,,,,,,,,,,,,,,,,,,,,,,,,,,,,,,,,,,,,,46.15410574999987,46.17709433300024,47.25277033299972,47.16990475000057,,,,,,,,,,,,,,,,,,,,,,,,030935,001,2024-07-01_17h25.11.885,5-26,2024.1.4,None,2024-07-01 17h25.17.450356 +0900,
,,,,,,,,,,,,,,,,,,,,,,,,,,,,,,,,,,,,,,,,,,,,,,,,,,,,,,,,,,,,,,47.16994912500013,47.17030849999992,,,,,,,,,,,,,,,,,,,,,,030935,001,2024-07-01_17h25.11.885,5-26,2024.1.4,None,2024-07-01 17h25.17.450356 +0900,
Images/Speaker1.jpg,Images/Speaker2.jpg,Images/Speaker3.jpg,Images/Speaker4.jpg,Audio/Speaker2_En/P2-10-En.wav,Speaker2,گوینده۲,,,,,,,,,0,0,0,29,47.25277033299972,,,,,,,,,,,,,,,,,,,,,,,,,,,,,,,,,,,,,,,,,,,,,47.22610404199986,47.25277033299972,47.25277033299972,47.25277033299972,47.25277033299972,47.252387333333296,47.25277033299972,47.25277033299972,49.2433527080002,Correct! صحیح است,2,1.9873400830001628,None,68,81,49.25251404200026,49.26527770800021,51.272084166999775,51.24927962499987,51.249293458000466,51.249457417000485,030935,001,2024-07-01_17h25.11.885,5-26,2024.1.4,None,2024-07-01 17h25.17.450356 +0900,
Images/Speaker1.jpg,Images/Speaker2.jpg,Images/Speaker3.jpg,Images/Speaker4.jpg,Audio/Speaker2_En/P2-4-En.wav,Speaker2,گوینده۲,,,,,,,,,0,1,1,23,51.272084166999775,,,,,,,,,,,,,,,,,,,,,,,,,,,,,,,,,,,,,,,,,,,,,51.24991320800018,51.272084166999775,51.272084166999775,51.272084166999775,51.272084166999775,51.26572874966702,51.272084166999775,51.272084166999775,52.333125082999686,Correct! صحیح است,2,1.051933791999545,None,68,82,52.33899233300053,52.35639575000005,,54.35065333300008,54.350663833,54.35090575000049,030935,001,2024-07-01_17h25.11.885,5-26,2024.1.4,None,2024-07-01 17h25.17.450356 +0900,
Images/Speaker1.jpg,Images/Speaker2.jpg,Images/Speaker3.jpg,Images/Speaker4.jpg,Audio/Speaker4_En/P4-5-En.wav,Speaker4,گوینده۴,,,,,,,,,0,2,2,64,54.37710145799974,,,,,,,,,,,,,,,,,,,,,,,,,,,,,,,,,,,,,,,,,,,,,54.35207137500038,54.37710145799974,54.37710145799974,54.37710145799974,54.37710145799974,54.38395225033358,54.37710145799974,54.37710145799974,55.858116667000104,Correct! صحیح است,4,1.4720198750001146,None,68,83,55.8625358750005,55.87345712499973,57.88512054200055,57.861600250000265,57.86163329200008,57.861991249999846,030935,001,2024-07-01_17h25.11.885,5-26,2024.1.4,None,2024-07-01 17h25.17.450356 +0900,
Images/Speaker1.jpg,Images/Speaker2.jpg,Images/Speaker3.jpg,Images/Speaker4.jpg,Audio/Speaker1_En/P1-8-En.wav,Speaker1,گوینده ۱,,,,,,,,,0,3,3,7,57.88512054200055,,,,,,,,,,,,,,,,,,,,,,,,,,,,,,,,,,,,,,,,,,,,,57.862819832999776,57.88512054200055,57.88512054200055,57.88512054200055,57.88512054200055,57.89401845833302,57.88512054200055,57.88512054200055,58.98475329200028,Correct! صحیح است,1,1.0891885000000912,None,68,84,58.98943104200043,59.00122270800057,61.011048750000555,60.98571741700016,60.98572816700016,60.98588033299984,030935,001,2024-07-01_17h25.11.885,5-26,2024.1.4,None,2024-07-01 17h25.17.450356 +0900,
Images/Speaker1.jpg,Images/Speaker2.jpg,Images/Speaker3.jpg,Images/Speaker4.jpg,Audio/Speaker4_En/P4-14-En.wav,Speaker4,گوینده۴,,,,,,,,,0,4,4,73,61.011048750000555,,,,,,,,,,,,,,,,,,,,,,,,,,,,,,,,,,,,,,,,,,,,,60.986325916999704,61.011048750000555,61.011048750000555,61.011048750000555,61.011048750000555,61.01881283333344,61.011048750000555,61.011048750000555,62.3547418750004,Correct! صحیح است,4,1.3383552499999496,None,68,85,62.359143499999846,62.37067783299972,64.38068800000019,64.35743087500032,64.35743999999977,64.35761512499994,030935,001,2024-07-01_17h25.11.885,5-26,2024.1.4,None,2024-07-01 17h25.17.450356 +0900,
Images/Speaker1.jpg,Images/Speaker2.jpg,Images/Speaker3.jpg,Images/Speaker4.jpg,Audio/Speaker4_En/P4-6-En.wav,Speaker4,گوینده۴,,,,,,,,,0,5,5,65,64.38068800000019,,,,,,,,,,,,,,,,,,,,,,,,,,,,,,,,,,,,,,,,,,,,,64.35804224999993,64.38068800000019,64.38068800000019,64.38068800000019,64.38068800000019,64.39049787533307,64.38068800000019,64.38068800000019,65.64309166699968,Correct! صحیح است,4,1.255093124999803,None,68,86,65.64759179199973,65.65689245799967,,67.6501077920002,67.65013358299984,67.65080949999992,030935,001,2024-07-01_17h25.11.885,5-26,2024.1.4,None,2024-07-01 17h25.17.450356 +0900,
Images/Speaker1.jpg,Images/Speaker2.jpg,Images/Speaker3.jpg,Images/Speaker4.jpg,Audio/Speaker1_En/P1-16-En.wav,Speaker1,گوینده ۱,,,,,,,,,0,6,6,15,67.67702904199996,,,,,,,,,,,,,,,,,,,,,,,,,,,,,,,,,,,,,,,,,,,,,67.65199912499975,67.67702904199996,67.67702904199996,67.67702904199996,67.67702904199996,67.68327087533319,67.67702904199996,67.67702904199996,69.15848737499982,Correct! صحیح است,1,1.4732086250005523,None,68,87,69.16284733300017,69.17201291699985,,71.16882012499991,71.16884816699985,71.16959166700053,030935,001,2024-07-01_17h25.11.885,5-26,2024.1.4,None,2024-07-01 17h25.17.450356 +0900,
Images/Speaker1.jpg,Images/Speaker2.jpg,Images/Speaker3.jpg,Images/Speaker4.jpg,Audio/Speaker3_En/P3-14-En.wav,Speaker3,گوینده۳,,,,,,,,,0,7,7,53,71.19349800000055,,,,,,,,,,,,,,,,,,,,,,,,,,,,,,,,,,,,,,,,,,,,,71.17110112499995,71.19349800000055,71.19349800000055,71.19349800000055,71.19349800000055,71.20197550033348,71.19349800000055,71.19349800000055,72.66037349999988,Correct! صحیح است,3,1.456727624999985,None,68,88,72.66486749999967,72.67619000000013,74.68416662500022,74.65953316700052,74.65957837499991,74.65984320799998,030935,001,2024-07-01_17h25.11.885,5-26,2024.1.4,None,2024-07-01 17h25.17.450356 +0900,
Images/Speaker1.jpg,Images/Speaker2.jpg,Images/Speaker3.jpg,Images/Speaker4.jpg,Audio/Speaker2_En/P2-2-En.wav,Speaker2,گوینده۲,,,,,,,,,0,8,8,21,74.68416662500022,,,,,,,,,,,,,,,,,,,,,,,,,,,,,,,,,,,,,,,,,,,,,74.66111974999967,74.68416662500022,74.68416662500022,74.68416662500022,74.68416662500022,74.69201087533341,74.68416662500022,74.68416662500022,76.56278762500006,Correct! صحیح است,2,1.8775132079999821,None,68,89,76.567291458,76.57921950000036,78.5832558330003,78.56195916700017,78.56197049999992,78.56214158300008,030935,001,2024-07-01_17h25.11.885,5-26,2024.1.4,None,2024-07-01 17h25.17.450356 +0900,
Images/Speaker1.jpg,Images/Speaker2.jpg,Images/Speaker3.jpg,Images/Speaker4.jpg,Audio/Speaker1_En/P1-17-En.wav,Speaker1,گوینده ۱,,,,,,,,,0,9,9,16,78.5832558330003,,,,,,,,,,,,,,,,,,,,,,,,,,,,,,,,,,,,,,,,,,,,,78.56256866700005,78.5832558330003,78.5832558330003,78.5832558330003,78.5832558330003,78.57842191666647,78.5832558330003,78.5832558330003,79.66325145800056,Correct! صحیح است,1,1.0748235830005797,None,68,90,79.66764104200047,79.6784898750002,81.68877370800055,81.66709150000042,81.66709900000023,81.6672297920004,030935,001,2024-07-01_17h25.11.885,5-26,2024.1.4,None,2024-07-01 17h25.17.450356 +0900,
Images/Speaker1.jpg,Images/Speaker2.jpg,Images/Speaker3.jpg,Images/Speaker4.jpg,Audio/Speaker2_En/P2-15-En.wav,Speaker2,گوینده۲,,,,,,,,,0,10,10,34,81.68877370800055,,,,,,,,,,,,,,,,,,,,,,,,,,,,,,,,,,,,,,,,,,,,,81.66766804200051,81.68877370800055,81.68877370800055,81.68877370800055,81.68877370800055,81.68354458366709,81.68877370800055,81.68877370800055,84.58880079200026,Correct! صحیح است,2,2.898678999999902,None,68,91,84.59421974999987,84.6059949999999,86.61555220799983,86.59067866700025,86.59071516699987,86.59123275000002,030935,001,2024-07-01_17h25.11.885,5-26,2024.1.4,None,2024-07-01 17h25.17.450356 +0900,
Images/Speaker1.jpg,Images/Speaker2.jpg,Images/Speaker3.jpg,Images/Speaker4.jpg,Audio/Speaker1_En/P1-4-En.wav,Speaker1,گوینده ۱,,,,,,,,,0,11,11,3,86.61555220799983,,,,,,,,,,,,,,,,,,,,,,,,,,,,,,,,,,,,,,,,,,,,,86.59254049999981,86.61555220799983,86.61555220799983,86.61555220799983,86.61555220799983,86.62359462533325,86.61555220799983,86.61555220799983,87.781833,Correct! صحیح است,1,1.1588468749996537,None,68,92,87.78612541700022,87.79470658300033,89.80818966700008,89.78467258300043,89.78470645800007,89.78512395800044,030935,001,2024-07-01_17h25.11.885,5-26,2024.1.4,None,2024-07-01 17h25.17.450356 +0900,
Images/Speaker1.jpg,Images/Speaker2.jpg,Images/Speaker3.jpg,Images/Speaker4.jpg,Audio/Speaker3_En/P3-19-En.wav,Speaker3,گوینده۳,,,,,,,,,0,12,12,58,89.80818966700008,,,,,,,,,,,,,,,,,,,,,,,,,,,,,,,,,,,,,,,,,,,,,89.7865987920004,89.80818966700008,89.80818966700008,89.80818966700008,89.80818966700008,89.81712820833357,89.80818966700008,89.80818966700008,91.37522816700039,Correct! صحیح است,3,1.560518416999912,None,68,93,91.37988616700022,91.39123562500026,,93.3828230830004,93.38283074999981,93.38299400000051,030935,001,2024-07-01_17h25.11.885,5-26,2024.1.4,None,2024-07-01 17h25.17.450356 +0900,
Images/Speaker1.jpg,Images/Speaker2.jpg,Images/Speaker3.jpg,Images/Speaker4.jpg,Audio/Speaker4_En/P4-4-En.wav,Speaker4,گوینده۴,,,,,,,,,0,13,13,63,93.40583204199993,,,,,,,,,,,,,,,,,,,,,,,,,,,,,,,,,,,,,,,,,,,,,93.38341674999992,93.40583204199993,93.40583204199993,93.40583204199993,93.40583204199993,93.39944737466637,93.40583204199993,93.40583204199993,94.85495654199985,Correct! صحیح است,4,1.4463753749996613,None,68,94,94.85930870799984,94.87127187500028,96.87787608300005,96.85508908300017,96.85510462500042,96.85527050000019,030935,001,2024-07-01_17h25.11.885,5-26,2024.1.4,None,2024-07-01 17h25.17.450356 +0900,
Images/Speaker1.jpg,Images/Speaker2.jpg,Images/Speaker3.jpg,Images/Speaker4.jpg,Audio/Speaker3_En/P3-18-En.wav,Speaker3,گوینده۳,,,,,,,,,0,14,14,57,96.87787608300005,,,,,,,,,,,,,,,,,,,,,,,,,,,,,,,,,,,,,,,,,,,,,96.85569050000049,96.87787608300005,96.87787608300005,96.87787608300005,96.87787608300005,96.87152295866714,96.87787608300005,96.87787608300005,98.33323891700002,Correct! صحیح است,3,1.4470601249995525,None,68,95,98.33774412500043,98.34661504199994,100.36311000000023,100.33775933299967,100.33779487500033,100.33824216700032,030935,001,2024-07-01_17h25.11.885,5-26,2024.1.4,None,2024-07-01 17h25.17.450356 +0900,
Images/Speaker1.jpg,Images/Speaker2.jpg,Images/Speaker3.jpg,Images/Speaker4.jpg,Audio/Speaker3_En/P3-9-En.wav,Speaker3,گوینده۳,,,,,,,,,0,15,15,48,100.36311000000023,,,,,,,,,,,,,,,,,,,,,,,,,,,,,,,,,,,,,,,,,,,,,100.3397723750004,100.36311000000023,100.36311000000023,100.36311000000023,100.36311000000023,100.37005875033313,100.36311000000023,100.36311000000023,101.4799803750002,Correct! صحیح است,3,1.1155326669995702,None,68,96,101.48463658299988,101.49584291700012,,103.48535966700001,103.48539750000054,103.48605099999986,030935,001,2024-07-01_17h25.11.885,5-26,2024.1.4,None,2024-07-01 17h25.17.450356 +0900,
Images/Speaker1.jpg,Images/Speaker2.jpg,Images/Speaker3.jpg,Images/Speaker4.jpg,Audio/Speaker3_En/P3-13-En.wav,Speaker3,گوینده۳,,,,,,,,,0,16,16,52,103.51001954200001,,,,,,,,,,,,,,,,,,,,,,,,,,,,,,,,,,,,,,,,,,,,,103.4875217079998,103.51001954200001,103.51001954200001,103.51001954200001,103.51001954200001,103.51853508333309,103.51001954200001,103.51001954200001,106.89980879199993,Correct! صحیح است,3,3.3871962499997608,None,68,97,106.90405487499993,106.91505804200006,,108.90989395799988,108.90993375000016,108.91055983299975,030935,001,2024-07-01_17h25.11.885,5-26,2024.1.4,None,2024-07-01 17h25.17.450356 +0900,
Images/Speaker1.jpg,Images/Speaker2.jpg,Images/Speaker3.jpg,Images/Speaker4.jpg,Audio/Speaker3_En/P3-4-En.wav,Speaker3,گوینده۳,,,,,,,,,0,17,17,43,108.93900183300048,,,,,,,,,,,,,,,,,,,,,,,,,,,,,,,,,,,,,,,,,,,,,108.91206479199991,108.93900183300048,108.93900183300048,108.93900183300048,108.93900183300048,108.94303470833304,108.93900183300048,108.93900183300048,110.33561804200053,Correct! صحیح است,3,1.3887371669998174,None,68,98,110.3402985419998,110.35163670800011,112.36122845800037,112.33762616700005,112.33763579199967,112.33777766700041,030935,001,2024-07-01_17h25.11.885,5-26,2024.1.4,None,2024-07-01 17h25.17.450356 +0900,
Images/Speaker1.jpg,Images/Speaker2.jpg,Images/Speaker3.jpg,Images/Speaker4.jpg,Audio/Speaker3_En/P3-7-En.wav,Speaker3,گوینده۳,,,,,,,,,0,18,18,46,112.36122845800037,,,,,,,,,,,,,,,,,,,,,,,,,,,,,,,,,,,,,,,,,,,,,112.33819891700023,112.36122845800037,112.36122845800037,112.36122845800037,112.36122845800037,112.37067145833365,112.36122845800037,112.36122845800037,114.03711275000023,Correct! صحیح است,3,1.6652101669997137,None,68,99,114.04126554200047,114.0505133329998,116.061292417,116.03633670799991,116.03636958300012,116.0366937079998,030935,001,2024-07-01_17h25.11.885,5-26,2024.1.4,None,2024-07-01 17h25.17.450356 +0900,
Images/Speaker1.jpg,Images/Speaker2.jpg,Images/Speaker3.jpg,Images/Speaker4.jpg,Audio/Speaker3_En/P3-6-En.wav,Speaker3,گوینده۳,,,,,,,,,0,19,19,45,116.061292417,,,,,,,,,,,,,,,,,,,,,,,,,,,,,,,,,,,,,,,,,,,,,116.03815733300053,116.061292417,116.061292417,116.061292417,116.061292417,116.06888483333344,116.061292417,116.061292417,118.34495445799985,Correct! صحیح است,3,2.2749422500000946,None,68,100,118.34913416700056,118.35850841699994,,120.35163716700026,120.35167708300014,120.35243420799998,030935,001,2024-07-01_17h25.11.885,5-26,2024.1.4,None,2024-07-01 17h25.17.450356 +0900,
Images/Speaker1.jpg,Images/Speaker2.jpg,Images/Speaker3.jpg,Images/Speaker4.jpg,Audio/Speaker1_En/P1-1-En.wav,Speaker1,گوینده ۱,,,,,,,,,0,20,20,0,120.37570358300036,,,,,,,,,,,,,,,,,,,,,,,,,,,,,,,,,,,,,,,,,,,,,120.35396862500056,120.37570358300036,120.37570358300036,120.37570358300036,120.37570358300036,120.38479087533372,120.37570358300036,120.37570358300036,121.73775829199985,Correct! صحیح است,1,1.3610619999999471,None,68,101,121.74209041700033,121.75496375000057,123.76401479200013,123.74147208300019,123.74147950000042,123.7416339170004,030935,001,2024-07-01_17h25.11.885,5-26,2024.1.4,None,2024-07-01 17h25.17.450356 +0900,
Images/Speaker1.jpg,Images/Speaker2.jpg,Images/Speaker3.jpg,Images/Speaker4.jpg,Audio/Speaker1_En/P1-3-En.wav,Speaker1,گوینده ۱,,,,,,,,,0,21,21,2,123.76401479200013,,,,,,,,,,,,,,,,,,,,,,,,,,,,,,,,,,,,,,,,,,,,,123.7420204580003,123.76401479200013,123.76401479200013,123.76401479200013,123.76401479200013,123.75788499966644,123.76401479200013,123.76401479200013,124.87414450000051,Correct! صحیح است,1,1.1045625839997228,None,68,102,124.87847316700027,124.88971691700044,126.90517470800023,126.87837841700002,126.87842579199969,126.87883758299995,030935,001,2024-07-01_17h25.11.885,5-26,2024.1.4,None,2024-07-01 17h25.17.450356 +0900,
Images/Speaker1.jpg,Images/Speaker2.jpg,Images/Speaker3.jpg,Images/Speaker4.jpg,Audio/Speaker2_En/P2-11-En.wav,Speaker2,گوینده۲,,,,,,,,,0,22,22,30,126.90517470800023,,,,,,,,,,,,,,,,,,,,,,,,,,,,,,,,,,,,,,,,,,,,,126.88035495799977,126.90517470800023,126.90517470800023,126.90517470800023,126.90517470800023,126.9107542503339,126.90517470800023,126.90517470800023,128.14953208299994,Correct! صحیح است,2,1.2397697090000293,None,68,103,128.15380150000055,128.16542095800014,130.17197362499974,130.15016300000025,130.15017391699985,130.1503043749999,030935,001,2024-07-01_17h25.11.885,5-26,2024.1.4,None,2024-07-01 17h25.17.450356 +0900,
Images/Speaker1.jpg,Images/Speaker2.jpg,Images/Speaker3.jpg,Images/Speaker4.jpg,Audio/Speaker4_En/P4-19-En.wav,Speaker4,گوینده۴,,,,,,,,,0,23,23,78,130.17197362499974,,,,,,,,,,,,,,,,,,,,,,,,,,,,,,,,,,,,,,,,,,,,,130.15074616699985,130.17197362499974,130.17197362499974,130.17197362499974,130.17197362499974,130.16659524966715,130.17197362499974,130.17197362499974,131.4991709169999,Correct! صحیح است,4,1.3257073750000927,None,68,104,131.50479287500002,131.51681566699972,133.5265931670001,133.50337404200036,133.5033828329997,133.50352770800055,030935,001,2024-07-01_17h25.11.885,5-26,2024.1.4,None,2024-07-01 17h25.17.450356 +0900,
Images/Speaker1.jpg,Images/Speaker2.jpg,Images/Speaker3.jpg,Images/Speaker4.jpg,Audio/Speaker1_En/P1-9-En.wav,Speaker1,گوینده ۱,,,,,,,,,0,24,24,8,133.5265931670001,,,,,,,,,,,,,,,,,,,,,,,,,,,,,,,,,,,,,,,,,,,,,133.50393870800053,133.5265931670001,133.5265931670001,133.5265931670001,133.5265931670001,133.53651325033348,133.5265931670001,133.5265931670001,135.76006204199984,Correct! صحیح است,1,2.2276754160002383,None,68,105,135.76442208299977,135.77598112499982,137.78186300000016,137.7596410420001,137.75965062500018,137.75979270800053,030935,001,2024-07-01_17h25.11.885,5-26,2024.1.4,None,2024-07-01 17h25.17.450356 +0900,
Images/Speaker1.jpg,Images/Speaker2.jpg,Images/Speaker3.jpg,Images/Speaker4.jpg,Audio/Speaker4_En/P4-16-En.wav,Speaker4,گوینده۴,,,,,,,,,0,25,25,75,137.78186300000016,,,,,,,,,,,,,,,,,,,,,,,,,,,,,,,,,,,,,,,,,,,,,137.76020379200054,137.78186300000016,137.78186300000016,137.78186300000016,137.78186300000016,137.77602066666648,137.78186300000016,137.78186300000016,140.1048008329999,Incorrect! The correct answer is Speaker4. نادرست! پاسخ صحیح گوینده۴ است,3,2.3205637499995646,None,68,106,140.10952879199976,140.12274849999994,142.13026891699974,142.10958008299986,142.1095894580003,142.10972583300008,030935,001,2024-07-01_17h25.11.885,5-26,2024.1.4,None,2024-07-01 17h25.17.450356 +0900,
Images/Speaker1.jpg,Images/Speaker2.jpg,Images/Speaker3.jpg,Images/Speaker4.jpg,Audio/Speaker3_En/P3-20-En.wav,Speaker3,گوینده۳,,,,,,,,,0,26,26,59,142.13026891699974,,,,,,,,,,,,,,,,,,,,,,,,,,,,,,,,,,,,,,,,,,,,,142.1101560420002,142.13026891699974,142.13026891699974,142.13026891699974,142.13026891699974,142.12595954166707,142.13026891699974,142.13026891699974,146.0833943329999,Correct! صحیح است,3,3.9470527920002496,None,68,107,146.08401091700034,146.09565783299968,148.10857133300033,148.0825544170002,148.08256195800004,148.0826975,030935,001,2024-07-01_17h25.11.885,5-26,2024.1.4,None,2024-07-01 17h25.17.450356 +0900,
Images/Speaker1.jpg,Images/Speaker2.jpg,Images/Speaker3.jpg,Images/Speaker4.jpg,Audio/Speaker4_En/P4-9-En.wav,Speaker4,گوینده۴,,,,,,,,,0,27,27,68,148.10857133300033,,,,,,,,,,,,,,,,,,,,,,,,,,,,,,,,,,,,,,,,,,,,,148.08386441699986,148.10857133300033,148.10857133300033,148.10857133300033,148.10857133300033,148.11566745833312,148.10857133300033,148.10857133300033,149.45326016699983,Correct! صحیح است,4,1.3351838340004178,None,68,108,149.45799549999992,149.46710650000023,151.48140879200037,151.4583242079998,151.458348958,151.45875370799968,030935,001,2024-07-01_17h25.11.885,5-26,2024.1.4,None,2024-07-01 17h25.17.450356 +0900,
Images/Speaker1.jpg,Images/Speaker2.jpg,Images/Speaker3.jpg,Images/Speaker4.jpg,Audio/Speaker2_En/P2-17-En.wav,Speaker2,گوینده۲,,,,,,,,,0,28,28,36,151.48140879200037,,,,,,,,,,,,,,,,,,,,,,,,,,,,,,,,,,,,,,,,,,,,,151.46000408300006,151.48140879200037,151.48140879200037,151.48140879200037,151.48140879200037,151.4908714163335,151.48140879200037,151.48140879200037,153.32937716700053,Correct! صحیح است,2,1.8469678750007006,None,68,109,153.33360291700046,153.3464280420003,,155.3361315000002,155.33615875000032,155.33689695799967,030935,001,2024-07-01_17h25.11.885,5-26,2024.1.4,None,2024-07-01 17h25.17.450356 +0900,
Images/Speaker1.jpg,Images/Speaker2.jpg,Images/Speaker3.jpg,Images/Speaker4.jpg,Audio/Speaker1_En/P1-4-En.wav,Speaker1,گوینده ۱,,,,,,,,,0,29,29,13,155.36214933300016,,,,,,,,,,,,,,,,,,,,,,,,,,,,,,,,,,,,,,,,,,,,,155.33849545799967,155.36214933300016,155.36214933300016,155.36214933300016,155.36214933300016,155.36929991633366,155.36214933300016,155.36214933300016,156.84199429199998,Correct! صحیح است,1,1.4673754579998786,None,68,110,156.84765333300038,156.8601472500004,158.86925966699982,158.84485883300022,158.84488587499982,158.845247708,030935,001,2024-07-01_17h25.11.885,5-26,2024.1.4,None,2024-07-01 17h25.17.450356 +0900,
Images/Speaker1.jpg,Images/Speaker2.jpg,Images/Speaker3.jpg,Images/Speaker4.jpg,Audio/Speaker1_En/P1-11-En.wav,Speaker1,گوینده ۱,,,,,,,,,0,30,30,10,158.86925966699982,,,,,,,,,,,,,,,,,,,,,,,,,,,,,,,,,,,,,,,,,,,,,158.84640758299975,158.86925966699982,158.86925966699982,158.86925966699982,158.86925966699982,158.87730429133313,158.86925966699982,158.86925966699982,160.03372008299993,Correct! صحیح است,1,1.1626232080006957,None,68,111,160.03977329200006,160.05232950000027,,162.0460806250003,162.04611891700006,162.04699370799972,030935,001,2024-07-01_17h25.11.885,5-26,2024.1.4,None,2024-07-01 17h25.17.450356 +0900,
Images/Speaker1.jpg,Images/Speaker2.jpg,Images/Speaker3.jpg,Images/Speaker4.jpg,Audio/Speaker2_En/P2-13-En.wav,Speaker2,گوینده۲,,,,,,,,,0,31,31,32,162.07028745800017,,,,,,,,,,,,,,,,,,,,,,,,,,,,,,,,,,,,,,,,,,,,,162.04809687499983,162.07028745800017,162.07028745800017,162.07028745800017,162.07028745800017,162.07922875033324,162.07028745800017,162.07028745800017,163.24091399999998,Correct! صحیح است,2,1.1629255420002664,None,68,112,163.24559533299998,163.25669195800037,,165.25027624999984,165.2503090830005,165.25110095800028,030935,001,2024-07-01_17h25.11.885,5-26,2024.1.4,None,2024-07-01 17h25.17.450356 +0900,
Images/Speaker1.jpg,Images/Speaker2.jpg,Images/Speaker3.jpg,Images/Speaker4.jpg,Audio/Speaker1_En/P1-18-En.wav,Speaker1,گوینده ۱,,,,,,,,,0,32,32,17,165.2751779580003,,,,,,,,,,,,,,,,,,,,,,,,,,,,,,,,,,,,,,,,,,,,,165.25240741700054,165.2751779580003,165.2751779580003,165.2751779580003,165.2751779580003,165.2834243753337,165.2751779580003,165.2751779580003,166.37979274999998,Correct! صحیح است,1,1.0997135829993567,None,68,113,166.38397450000048,166.39488954199987,168.40243708300022,168.3786338330001,168.37864437500048,168.3787802500001,030935,001,2024-07-01_17h25.11.885,5-26,2024.1.4,None,2024-07-01 17h25.17.450356 +0900,
Images/Speaker1.jpg,Images/Speaker2.jpg,Images/Speaker3.jpg,Images/Speaker4.jpg,Audio/Speaker2_En/P2-18-En.wav,Speaker2,گوینده۲,,,,,,,,,0,33,33,37,168.40243708300022,,,,,,,,,,,,,,,,,,,,,,,,,,,,,,,,,,,,,,,,,,,,,168.37921733300027,168.40243708300022,168.40243708300022,168.40243708300022,168.40243708300022,168.41177050033326,168.40243708300022,168.40243708300022,169.7860250829999,Correct! صحیح است,2,1.3803142080005273,None,68,114,169.79026816700025,169.8018926249997,,171.7905272500002,171.79053566699986,171.79073675000018,030935,001,2024-07-01_17h25.11.885,5-26,2024.1.4,None,2024-07-01 17h25.17.450356 +0900,
Images/Speaker1.jpg,Images/Speaker2.jpg,Images/Speaker3.jpg,Images/Speaker4.jpg,Audio/Speaker3_En/P3-12-En.wav,Speaker3,گوینده۳,,,,,,,,,0,34,34,51,171.81306112499988,,,,,,,,,,,,,,,,,,,,,,,,,,,,,,,,,,,,,,,,,,,,,171.79116016700027,171.81306112499988,171.81306112499988,171.81306112499988,171.81306112499988,171.80713662466704,171.81306112499988,171.81306112499988,173.49703599999975,Correct! صحیح است,3,1.682912084000236,None,68,115,173.50155600000016,173.51311112500025,175.5244844580002,175.50121945800038,175.50124141700053,175.50137741700019,030935,001,2024-07-01_17h25.11.885,5-26,2024.1.4,None,2024-07-01 17h25.17.450356 +0900,
Images/Speaker1.jpg,Images/Speaker2.jpg,Images/Speaker3.jpg,Images/Speaker4.jpg,Audio/Speaker3_En/P3-1-En.wav,Speaker3,گوینده۳,,,,,,,,,0,35,35,40,175.5244844580002,,,,,,,,,,,,,,,,,,,,,,,,,,,,,,,,,,,,,,,,,,,,,175.50181950000024,175.5244844580002,175.5244844580002,175.5244844580002,175.5244844580002,175.5343183753335,175.5244844580002,175.5244844580002,176.88667024999995,Correct! صحیح است,3,1.3562974169999507,None,68,116,176.8928888749997,176.9052704579999,178.91412641700026,178.89096883300044,178.89097995800057,178.89114408299974,030935,001,2024-07-01_17h25.11.885,5-26,2024.1.4,None,2024-07-01 17h25.17.450356 +0900,
Images/Speaker1.jpg,Images/Speaker2.jpg,Images/Speaker3.jpg,Images/Speaker4.jpg,Audio/Speaker3_En/P3-3-En.wav,Speaker3,گوینده۳,,,,,,,,,0,36,36,42,178.91412641700026,,,,,,,,,,,,,,,,,,,,,,,,,,,,,,,,,,,,,,,,,,,,,178.8915912499997,178.91412641700026,178.91412641700026,178.91412641700026,178.91412641700026,178.92405508333337,178.91412641700026,178.91412641700026,181.28925487500055,Correct! صحیح است,3,2.3702791659998184,None,68,117,181.29348641700017,181.30457600000045,183.31755450000037,183.29351016700002,183.29353445800007,183.2938429169999,030935,001,2024-07-01_17h25.11.885,5-26,2024.1.4,None,2024-07-01 17h25.17.450356 +0900,
Images/Speaker1.jpg,Images/Speaker2.jpg,Images/Speaker3.jpg,Images/Speaker4.jpg,Audio/Speaker2_En/P2-8-En.wav,Speaker2,گوینده۲,,,,,,,,,0,37,37,27,183.31755450000037,,,,,,,,,,,,,,,,,,,,,,,,,,,,,,,,,,,,,,,,,,,,,183.29545775000042,183.31755450000037,183.31755450000037,183.31755450000037,183.31755450000037,183.32595866633307,183.31755450000037,183.31755450000037,185.5166827080002,Correct! صحیح است,2,2.1892827080000643,None,68,118,185.52129595800034,185.5300560000005,187.54739658299968,187.51864845799992,187.51868399999967,187.51905799999986,030935,001,2024-07-01_17h25.11.885,5-26,2024.1.4,None,2024-07-01 17h25.17.450356 +0900,
Images/Speaker1.jpg,Images/Speaker2.jpg,Images/Speaker3.jpg,Images/Speaker4.jpg,Audio/Speaker4_En/P4-7-En.wav,Speaker4,گوینده۴,,,,,,,,,0,38,38,66,187.54739658299968,,,,,,,,,,,,,,,,,,,,,,,,,,,,,,,,,,,,,,,,,,,,,187.5207284170001,187.54739658299968,187.54739658299968,187.54739658299968,187.54739658299968,187.55111470833305,187.54739658299968,187.54739658299968,189.21820108300017,Correct! صحیح است,4,1.6649434579994704,None,68,119,189.22255379200033,189.2340051250003,191.24220595800034,191.2202484999998,191.22025787500024,191.2204231249998,030935,001,2024-07-01_17h25.11.885,5-26,2024.1.4,None,2024-07-01 17h25.17.450356 +0900,
Images/Speaker1.jpg,Images/Speaker2.jpg,Images/Speaker3.jpg,Images/Speaker4.jpg,Audio/Speaker1_En/P1-5-En.wav,Speaker1,گوینده ۱,,,,,,,,,0,39,39,4,191.24220595800034,,,,,,,,,,,,,,,,,,,,,,,,,,,,,,,,,,,,,,,,,,,,,191.2208325419997,191.24220595800034,191.24220595800034,191.24220595800034,191.24220595800034,191.2366168746669,191.24220595800034,191.24220595800034,193.43214191700008,Correct! صحیح است,1,2.178745958000036,None,68,120,193.4362741670002,193.4471609580005,195.4542518750004,195.43149175000053,195.4315015000002,195.43166937499973,030935,001,2024-07-01_17h25.11.885,5-26,2024.1.4,None,2024-07-01 17h25.17.450356 +0900,
Images/Speaker1.jpg,Images/Speaker2.jpg,Images/Speaker3.jpg,Images/Speaker4.jpg,Audio/Speaker3_En/P3-16-En.wav,Speaker3,گوینده۳,,,,,,,,,0,40,40,55,195.4542518750004,,,,,,,,,,,,,,,,,,,,,,,,,,,,,,,,,,,,,,,,,,,,,195.43207925000024,195.4542518750004,195.4542518750004,195.4542518750004,195.4542518750004,195.44789812466686,195.4542518750004,195.4542518750004,197.15726087500025,Correct! صحیح است,3,1.699720458000229,None,68,121,197.16202729199995,197.17404137500034,199.17954204200032,199.15850858300018,199.15851741700044,199.1586856670001,030935,001,2024-07-01_17h25.11.885,5-26,2024.1.4,None,2024-07-01 17h25.17.450356 +0900,
Images/Speaker1.jpg,Images/Speaker2.jpg,Images/Speaker3.jpg,Images/Speaker4.jpg,Audio/Speaker2_En/P2-12-En.wav,Speaker2,گوینده۲,,,,,,,,,0,41,41,31,199.17954204200032,,,,,,,,,,,,,,,,,,,,,,,,,,,,,,,,,,,,,,,,,,,,,199.1591140420005,199.17954204200032,199.17954204200032,199.17954204200032,199.17954204200032,199.17498237466705,199.17954204200032,199.17954204200032,200.68426400000044,Correct! صحیح است,2,1.5036993749999965,None,68,122,200.69003341700045,200.70144625000012,202.70987545800017,202.6865277500001,202.68654412500018,202.68670591699993,030935,001,2024-07-01_17h25.11.885,5-26,2024.1.4,None,2024-07-01 17h25.17.450356 +0900,
Images/Speaker1.jpg,Images/Speaker2.jpg,Images/Speaker3.jpg,Images/Speaker4.jpg,Audio/Speaker4_En/P4-13-En.wav,Speaker4,گوینده۴,,,,,,,,,0,42,42,72,202.70987545800017,,,,,,,,,,,,,,,,,,,,,,,,,,,,,,,,,,,,,,,,,,,,,202.6871268750001,202.70987545800017,202.70987545800017,202.70987545800017,202.70987545800017,202.71965075033364,202.70987545800017,202.70987545800017,204.34025887500047,Correct! صحیح است,4,1.6259379169996464,None,68,123,204.3445248750004,204.3560104170001,,206.34887549999985,206.34888670800046,206.34904491700036,030935,001,2024-07-01_17h25.11.885,5-26,2024.1.4,None,2024-07-01 17h25.17.450356 +0900,
Images/Speaker1.jpg,Images/Speaker2.jpg,Images/Speaker3.jpg,Images/Speaker4.jpg,Audio/Speaker4_En/P4-18-En.wav,Speaker4,گوینده۴,,,,,,,,,0,43,43,77,206.37282716699974,,,,,,,,,,,,,,,,,,,,,,,,,,,,,,,,,,,,,,,,,,,,,206.34947629199996,206.37282716699974,206.37282716699974,206.37282716699974,206.37282716699974,206.38217416633375,206.37282716699974,206.37282716699974,208.64807399999972,Correct! صحیح است,4,2.267777125000066,None,68,124,208.65261233300043,208.66130274999978,210.67000041699976,210.64535908299968,210.645425875,210.6457973329998,030935,001,2024-07-01_17h25.11.885,5-26,2024.1.4,None,2024-07-01 17h25.17.450356 +0900,
Images/Speaker1.jpg,Images/Speaker2.jpg,Images/Speaker3.jpg,Images/Speaker4.jpg,Audio/Speaker3_En/P3-2-En.wav,Speaker3,گوینده۳,,,,,,,,,0,44,44,41,210.67000041699976,,,,,,,,,,,,,,,,,,,,,,,,,,,,,,,,,,,,,,,,,,,,,210.64733950000027,210.67000041699976,210.67000041699976,210.67000041699976,210.67000041699976,210.67759775033352,210.67000041699976,210.67000041699976,211.9724504579999,Correct! صحیح است,3,1.2969340830004512,None,68,125,211.9770902500004,211.98843829199996,213.995039292,213.9724416250001,213.9724652499999,213.97263199999998,030935,001,2024-07-01_17h25.11.885,5-26,2024.1.4,None,2024-07-01 17h25.17.450356 +0900,
Images/Speaker1.jpg,Images/Speaker2.jpg,Images/Speaker3.jpg,Images/Speaker4.jpg,Audio/Speaker3_En/P3-8-En.wav,Speaker3,گوینده۳,,,,,,,,,0,45,45,47,213.995039292,,,,,,,,,,,,,,,,,,,,,,,,,,,,,,,,,,,,,,,,,,,,,213.9730358329998,213.995039292,213.995039292,213.995039292,213.995039292,213.98889112466648,213.995039292,213.995039292,215.56663970800037,Correct! صحیح است,3,1.5664795000002414,None,68,126,215.57219799999984,215.58426591700027,217.59407320799983,217.57039729200005,217.57040591700024,217.5705600000001,030935,001,2024-07-01_17h25.11.885,5-26,2024.1.4,None,2024-07-01 17h25.17.450356 +0900,
Images/Speaker1.jpg,Images/Speaker2.jpg,Images/Speaker3.jpg,Images/Speaker4.jpg,Audio/Speaker3_En/P3-15-En.wav,Speaker3,گوینده۳,,,,,,,,,0,46,46,54,217.59407320799983,,,,,,,,,,,,,,,,,,,,,,,,,,,,,,,,,,,,,,,,,,,,,217.57098599999972,217.59407320799983,217.59407320799983,217.59407320799983,217.59407320799983,217.6035100833338,217.59407320799983,217.59407320799983,219.04653058300028,Correct! صحیح است,3,1.4501958749997357,None,68,127,219.05111325000053,219.0624380420004,,221.05245800000012,221.0524676670002,221.05265874999986,030935,001,2024-07-01_17h25.11.885,5-26,2024.1.4,None,2024-07-01 17h25.17.450356 +0900,
Images/Speaker1.jpg,Images/Speaker2.jpg,Images/Speaker3.jpg,Images/Speaker4.jpg,Audio/Speaker3_En/P3-11-En.wav,Speaker3,گوینده۳,,,,,,,,,0,47,47,50,221.07589466700028,,,,,,,,,,,,,,,,,,,,,,,,,,,,,,,,,,,,,,,,,,,,,221.05307962500046,221.07589466700028,221.07589466700028,221.07589466700028,221.07589466700028,221.08575366633391,221.07589466700028,221.07589466700028,222.23809795800025,Correct! صحیح است,3,1.157017167000049,None,68,128,222.2427479580001,222.25434691700048,224.265778125,224.23965116700037,224.23967549999998,224.239996583,030935,001,2024-07-01_17h25.11.885,5-26,2024.1.4,None,2024-07-01 17h25.17.450356 +0900,
Images/Speaker1.jpg,Images/Speaker2.jpg,Images/Speaker3.jpg,Images/Speaker4.jpg,Audio/Speaker1_En/P1-20-En.wav,Speaker1,گوینده ۱,,,,,,,,,0,48,48,19,224.265778125,,,,,,,,,,,,,,,,,,,,,,,,,,,,,,,,,,,,,,,,,,,,,224.24142012500033,224.265778125,224.265778125,224.265778125,224.265778125,224.27221658333343,224.265778125,224.265778125,225.35417145800056,Correct! صحیح است,1,1.079553250000572,None,68,129,225.35865141700015,225.3678715420001,227.37947491700015,227.35692087500047,227.35693283300043,227.35708716699992,030935,001,2024-07-01_17h25.11.885,5-26,2024.1.4,None,2024-07-01 17h25.17.450356 +0900,
Images/Speaker1.jpg,Images/Speaker2.jpg,Images/Speaker3.jpg,Images/Speaker4.jpg,Audio/Speaker2_En/P2-1-En.wav,Speaker2,گوینده۲,,,,,,,,,0,49,49,20,227.37947491700015,,,,,,,,,,,,,,,,,,,,,,,,,,,,,,,,,,,,,,,,,,,,,227.35748579200026,227.37947491700015,227.37947491700015,227.37947491700015,227.37947491700015,227.37333449966653,227.37947491700015,227.37947491700015,228.72418508300052,Correct! صحیح است,2,1.3412662500004444,None,68,130,228.72834650000004,228.7397152499998,230.75404700000036,230.72835166700042,230.72838454199973,230.7288808330004,030935,001,2024-07-01_17h25.11.885,5-26,2024.1.4,None,2024-07-01 17h25.17.450356 +0900,
Images/Speaker1.jpg,Images/Speaker2.jpg,Images/Speaker3.jpg,Images/Speaker4.jpg,Audio/Speaker4_En/P4-11-En.wav,Speaker4,گوینده۴,,,,,,,,,0,50,50,70,230.75404700000036,,,,,,,,,,,,,,,,,,,,,,,,,,,,,,,,,,,,,,,,,,,,,230.73035700000037,230.75404700000036,230.75404700000036,230.75404700000036,230.75404700000036,230.76072587533378,230.75404700000036,230.75404700000036,232.33266008300052,Correct! صحیح است,4,1.5715659999996205,None,68,131,232.33684866699969,232.34873979199983,,234.33936274999996,234.33937083300043,234.3395413750004,030935,001,2024-07-01_17h25.11.885,5-26,2024.1.4,None,2024-07-01 17h25.17.450356 +0900,
Images/Speaker1.jpg,Images/Speaker2.jpg,Images/Speaker3.jpg,Images/Speaker4.jpg,Audio/Speaker4_En/P4-15-En.wav,Speaker4,گوینده۴,,,,,,,,,0,51,51,74,234.36330179200013,,,,,,,,,,,,,,,,,,,,,,,,,,,,,,,,,,,,,,,,,,,,,234.33999145800044,234.36330179200013,234.36330179200013,234.36330179200013,234.36330179200013,234.37266162533302,234.36330179200013,234.36330179200013,235.81259425000007,Correct! صحیح است,4,1.4473386250001568,None,68,132,235.81682,235.82803283300018,,237.8188613330003,237.81889104200036,237.8196669580002,030935,001,2024-07-01_17h25.11.885,5-26,2024.1.4,None,2024-07-01 17h25.17.450356 +0900,
Images/Speaker1.jpg,Images/Speaker2.jpg,Images/Speaker3.jpg,Images/Speaker4.jpg,Audio/Speaker1_En/P1-2-En.wav,Speaker1,گوینده ۱,,,,,,,,,0,52,52,1,237.84444979199998,,,,,,,,,,,,,,,,,,,,,,,,,,,,,,,,,,,,,,,,,,,,,237.82130512500044,237.84444979199998,237.84444979199998,237.84444979199998,237.84444979199998,237.85203658333336,237.84444979199998,237.84444979199998,238.78776816699974,Correct! صحیح است,1,0.9346755839997059,None,68,133,238.79355770799975,238.80672074999984,240.81630883300022,240.79291999999987,240.7929300830001,240.79308345800018,030935,001,2024-07-01_17h25.11.885,5-26,2024.1.4,None,2024-07-01 17h25.17.450356 +0900,
Images/Speaker1.jpg,Images/Speaker2.jpg,Images/Speaker3.jpg,Images/Speaker4.jpg,Audio/Speaker3_En/P3-10-En.wav,Speaker3,گوینده۳,,,,,,,,,0,53,53,49,240.81630883300022,,,,,,,,,,,,,,,,,,,,,,,,,,,,,,,,,,,,,,,,,,,,,240.79349891699985,240.81630883300022,240.81630883300022,240.81630883300022,240.81630883300022,240.8259490833339,240.81630883300022,240.81630883300022,243.29037849999986,Correct! صحیح است,3,2.4722038750005595,None,68,134,243.2949441669998,243.30668020800022,245.31236895799975,245.2905530830003,245.29056512500028,245.29075162499976,030935,001,2024-07-01_17h25.11.885,5-26,2024.1.4,None,2024-07-01 17h25.17.450356 +0900,
Images/Speaker1.jpg,Images/Speaker2.jpg,Images/Speaker3.jpg,Images/Speaker4.jpg,Audio/Speaker4_En/P4-20-En.wav,Speaker4,گوینده۴,,,,,,,,,0,54,54,79,245.31236895799975,,,,,,,,,,,,,,,,,,,,,,,,,,,,,,,,,,,,,,,,,,,,,245.29122454200024,245.31236895799975,245.31236895799975,245.31236895799975,245.31236895799975,245.30695254166702,245.31236895799975,245.31236895799975,246.9253058330005,Correct! صحیح است,4,1.601496207999844,None,68,135,246.92968562500027,246.94115800000054,,248.93544033299986,248.93548262500008,248.93622266700004,030935,001,2024-07-01_17h25.11.885,5-26,2024.1.4,None,2024-07-01 17h25.17.450356 +0900,
Images/Speaker1.jpg,Images/Speaker2.jpg,Images/Speaker3.jpg,Images/Speaker4.jpg,Audio/Speaker2_En/P2-14-En.wav,Speaker2,گوینده۲,,,,,,,,,0,55,55,33,248.9616495420005,,,,,,,,,,,,,,,,,,,,,,,,,,,,,,,,,,,,,,,,,,,,,248.93778333299997,248.9616495420005,248.9616495420005,248.9616495420005,248.9616495420005,248.96860608333333,248.9616495420005,248.9616495420005,250.2711352080005,Correct! صحیح است,2,1.3077247920000445,None,68,136,250.27533933300037,250.28697508300047,252.2976203750004,252.27403945800052,252.27406491700003,252.27437620799992,030935,001,2024-07-01_17h25.11.885,5-26,2024.1.4,None,2024-07-01 17h25.17.450356 +0900,
Images/Speaker1.jpg,Images/Speaker2.jpg,Images/Speaker3.jpg,Images/Speaker4.jpg,Audio/Speaker1_En/P1-6-En.wav,Speaker1,گوینده ۱,,,,,,,,,0,56,56,5,252.2976203750004,,,,,,,,,,,,,,,,,,,,,,,,,,,,,,,,,,,,,,,,,,,,,252.27582125000026,252.2976203750004,252.2976203750004,252.2976203750004,252.2976203750004,252.30641037533366,252.2976203750004,252.2976203750004,253.58325941699968,Correct! صحیح است,1,1.275069500000427,None,68,137,253.58757950000017,253.59872641699985,255.60856287499973,255.58578699999998,255.58579949999967,255.58594916699985,030935,001,2024-07-01_17h25.11.885,5-26,2024.1.4,None,2024-07-01 17h25.17.450356 +0900,
Images/Speaker1.jpg,Images/Speaker2.jpg,Images/Speaker3.jpg,Images/Speaker4.jpg,Audio/Speaker2_En/P2-9-En.wav,Speaker2,گوینده۲,,,,,,,,,0,57,57,28,255.60856287499973,,,,,,,,,,,,,,,,,,,,,,,,,,,,,,,,,,,,,,,,,,,,,255.58639737500016,255.60856287499973,255.60856287499973,255.60856287499973,255.60856287499973,255.60221624966678,255.60856287499973,255.60856287499973,256.8189150830003,Correct! صحیح است,2,1.2015637499998775,None,68,138,256.8232071250004,256.8323854170003,258.8400775420005,258.8158871249998,258.8159152500002,258.8162576249997,030935,001,2024-07-01_17h25.11.885,5-26,2024.1.4,None,2024-07-01 17h25.17.450356 +0900,
Images/Speaker1.jpg,Images/Speaker2.jpg,Images/Speaker3.jpg,Images/Speaker4.jpg,Audio/Speaker4_En/P4-17-En.wav,Speaker4,گوینده۴,,,,,,,,,0,58,58,76,258.8400775420005,,,,,,,,,,,,,,,,,,,,,,,,,,,,,,,,,,,,,,,,,,,,,258.81710241700057,258.8400775420005,258.8400775420005,258.8400775420005,258.8400775420005,258.84818870833305,258.8400775420005,258.8400775420005,260.16143945800013,Correct! صحیح است,4,1.3182302909999635,None,68,139,260.165720125,260.17740958300055,,262.1680330420004,262.1680639169999,262.1687906670004,030935,001,2024-07-01_17h25.11.885,5-26,2024.1.4,None,2024-07-01 17h25.17.450356 +0900,
Images/Speaker1.jpg,Images/Speaker2.jpg,Images/Speaker3.jpg,Images/Speaker4.jpg,Audio/Speaker2_En/P2-16-En.wav,Speaker2,گوینده۲,,,,,,,,,0,59,59,35,262.1944925830003,,,,,,,,,,,,,,,,,,,,,,,,,,,,,,,,,,,,,,,,,,,,,262.170271125,262.1944925830003,262.1944925830003,262.1944925830003,262.1944925830003,262.2011833333331,262.1944925830003,262.1944925830003,263.68956233300014,Correct! صحیح است,2,1.4863408749997689,None,68,140,263.69385775000046,263.7049388329997,,265.7020899580002,265.7021217500005,265.70302195800014,030935,001,2024-07-01_17h25.11.885,5-26,2024.1.4,None,2024-07-01 17h25.17.450356 +0900,
Images/Speaker1.jpg,Images/Speaker2.jpg,Images/Speaker3.jpg,Images/Speaker4.jpg,Audio/Speaker4_En/P4-8-En.wav,Speaker4,گوینده۴,,,,,,,,,0,60,60,67,265.7277680830002,,,,,,,,,,,,,,,,,,,,,,,,,,,,,,,,,,,,,,,,,,,,,265.70468937500027,265.7277680830002,265.7277680830002,265.7277680830002,265.7277680830002,265.73527054133365,265.7277680830002,265.7277680830002,267.9263440000004,Correct! صحیح است,4,2.1907996250001815,None,68,141,267.93102241700035,267.9405092500001,269.9527442919998,269.92701170800046,269.9270362919997,269.92736870800036,030935,001,2024-07-01_17h25.11.885,5-26,2024.1.4,None,2024-07-01 17h25.17.450356 +0900,
Images/Speaker1.jpg,Images/Speaker2.jpg,Images/Speaker3.jpg,Images/Speaker4.jpg,Audio/Speaker1_En/P1-10-En.wav,Speaker1,گوینده ۱,,,,,,,,,0,61,61,9,269.9527442919998,,,,,,,,,,,,,,,,,,,,,,,,,,,,,,,,,,,,,,,,,,,,,269.9289263749997,269.9527442919998,269.9527442919998,269.9527442919998,269.9527442919998,269.95944395833385,269.9527442919998,269.9527442919998,271.8339439580004,Correct! صحیح است,1,1.8795514579996961,None,68,142,271.8382738749997,271.8498875000005,,273.84503187500013,273.84506908300045,273.845975833,030935,001,2024-07-01_17h25.11.885,5-26,2024.1.4,None,2024-07-01 17h25.17.450356 +0900,
Images/Speaker1.jpg,Images/Speaker2.jpg,Images/Speaker3.jpg,Images/Speaker4.jpg,Audio/Speaker2_En/P2-6-En.wav,Speaker2,گوینده۲,,,,,,,,,0,62,62,25,273.8703539999997,,,,,,,,,,,,,,,,,,,,,,,,,,,,,,,,,,,,,,,,,,,,,273.8473470830004,273.8703539999997,273.8703539999997,273.8703539999997,273.8703539999997,273.87818108333386,273.8703539999997,273.8703539999997,275.2845534170001,Correct! صحیح است,2,1.409041333999994,None,68,143,275.2904990420002,275.30300420799995,,277.2905472499997,277.2905554580002,277.2907700420001,030935,001,2024-07-01_17h25.11.885,5-26,2024.1.4,None,2024-07-01 17h25.17.450356 +0900,
Images/Speaker1.jpg,Images/Speaker2.jpg,Images/Speaker3.jpg,Images/Speaker4.jpg,Audio/Speaker3_En/P3-5-En.wav,Speaker3,گوینده۳,,,,,,,,,0,63,63,44,277.31397491700045,,,,,,,,,,,,,,,,,,,,,,,,,,,,,,,,,,,,,,,,,,,,,277.29117124999993,277.31397491700045,277.31397491700045,277.31397491700045,277.31397491700045,277.32381745833345,277.31397491700045,277.31397491700045,278.62479879200055,Correct! صحیح است,3,1.3081915840002694,None,68,144,278.6289309579997,278.6401114580003,,280.63536637500056,280.6353759579997,280.6355684170003,030935,001,2024-07-01_17h25.11.885,5-26,2024.1.4,None,2024-07-01 17h25.17.450356 +0900,
Images/Speaker1.jpg,Images/Speaker2.jpg,Images/Speaker3.jpg,Images/Speaker4.jpg,Audio/Speaker1_En/P1-12-En.wav,Speaker1,گوینده ۱,,,,,,,,,0,64,64,11,280.6571922920002,,,,,,,,,,,,,,,,,,,,,,,,,,,,,,,,,,,,,,,,,,,,,280.63601458300036,280.6571922920002,280.6571922920002,280.6571922920002,280.6571922920002,280.65199183366644,280.6571922920002,280.6571922920002,282.01566354199986,Correct! صحیح است,1,1.3565447920000224,None,68,145,282.0198512500001,282.0313982079997,284.04410308299975,284.0187275420003,284.01875695800027,284.019120125,030935,001,2024-07-01_17h25.11.885,5-26,2024.1.4,None,2024-07-01 17h25.17.450356 +0900,
Images/Speaker1.jpg,Images/Speaker2.jpg,Images/Speaker3.jpg,Images/Speaker4.jpg,Audio/Speaker3_En/P3-17-En.wav,Speaker3,گوینده۳,,,,,,,,,0,65,65,56,284.04410308299975,,,,,,,,,,,,,,,,,,,,,,,,,,,,,,,,,,,,,,,,,,,,,284.02070662500046,284.04410308299975,284.04410308299975,284.04410308299975,284.04410308299975,284.05105183333353,284.04410308299975,284.04410308299975,285.2046641670004,Correct! صحیح است,3,1.158410291999644,None,68,146,285.20893675000025,285.220763583,287.2299039999998,287.2065140000004,287.206522167,287.2066874580005,030935,001,2024-07-01_17h25.11.885,5-26,2024.1.4,None,2024-07-01 17h25.17.450356 +0900,
Images/Speaker1.jpg,Images/Speaker2.jpg,Images/Speaker3.jpg,Images/Speaker4.jpg,Audio/Speaker2_En/P2-19-En.wav,Speaker2,گوینده۲,,,,,,,,,0,66,66,38,287.2299039999998,,,,,,,,,,,,,,,,,,,,,,,,,,,,,,,,,,,,,,,,,,,,,287.2071420829998,287.2299039999998,287.2299039999998,287.2299039999998,287.2299039999998,287.2395446663336,287.2299039999998,287.2299039999998,288.5993832920003,Correct! صحیح است,2,1.361260540999865,None,68,147,288.605432542,288.6166553330004,,290.61227941700054,290.61231645800035,290.6131477500003,030935,001,2024-07-01_17h25.11.885,5-26,2024.1.4,None,2024-07-01 17h25.17.450356 +0900,
Images/Speaker1.jpg,Images/Speaker2.jpg,Images/Speaker3.jpg,Images/Speaker4.jpg,Audio/Speaker2_En/P2-5-En.wav,Speaker2,گوینده۲,,,,,,,,,0,67,67,24,290.6389277500002,,,,,,,,,,,,,,,,,,,,,,,,,,,,,,,,,,,,,,,,,,,,,290.61470695800017,290.6389277500002,290.6389277500002,290.6389277500002,290.6389277500002,290.64541341633367,290.6389277500002,290.6389277500002,291.988040792,Correct! صحیح است,2,1.3447925840000607,None,68,148,291.9924098749998,292.00377758300056,294.01400204200036,293.9914075830002,293.9914160420003,293.9915944579998,030935,001,2024-07-01_17h25.11.885,5-26,2024.1.4,None,2024-07-01 17h25.17.450356 +0900,
Images/Speaker1.jpg,Images/Speaker2.jpg,Images/Speaker3.jpg,Images/Speaker4.jpg,Audio/Speaker4_En/P4-1-En.wav,Speaker4,گوینده۴,,,,,,,,,0,68,68,60,294.01400204200036,,,,,,,,,,,,,,,,,,,,,,,,,,,,,,,,,,,,,,,,,,,,,293.9920349169997,294.01400204200036,294.01400204200036,294.01400204200036,294.01400204200036,294.0078522916667,294.01400204200036,294.01400204200036,296.3003139170005,Correct! صحیح است,4,2.274734166999224,None,68,149,296.3046440420003,296.31621712500055,,298.31181854199986,298.31184575000043,298.31254741700013,030935,001,2024-07-01_17h25.11.885,5-26,2024.1.4,None,2024-07-01 17h25.17.450356 +0900,
Images/Speaker1.jpg,Images/Speaker2.jpg,Images/Speaker3.jpg,Images/Speaker4.jpg,Audio/Speaker2_En/P2-3-En.wav,Speaker2,گوینده۲,,,,,,,,,0,69,69,22,298.33917770800053,,,,,,,,,,,,,,,,,,,,,,,,,,,,,,,,,,,,,,,,,,,,,298.31406700000025,298.33917770800053,298.33917770800053,298.33917770800053,298.33917770800053,298.3449666663332,298.33917770800053,298.33917770800053,299.7156893749998,Correct! صحیح است,2,1.3674588750000112,None,68,150,299.7199140829998,299.7311432920005,,301.7239486670005,301.7239807920005,301.7246359999999,030935,001,2024-07-01_17h25.11.885,5-26,2024.1.4,None,2024-07-01 17h25.17.450356 +0900,
Images/Speaker1.jpg,Images/Speaker2.jpg,Images/Speaker3.jpg,Images/Speaker4.jpg,Audio/Speaker4_En/P4-12-En.wav,Speaker4,گوینده۴,,,,,,,,,0,70,70,71,301.7504694580002,,,,,,,,,,,,,,,,,,,,,,,,,,,,,,,,,,,,,,,,,,,,,301.72598949999974,301.7504694580002,301.7504694580002,301.7504694580002,301.7504694580002,301.75713437533386,301.7504694580002,301.7504694580002,303.16868816700025,Correct! صحیح است,4,1.4126247500007594,None,68,151,303.1733739170004,303.1851648330003,305.19365079199997,305.1714634580003,305.17147250000016,305.1716392500002,030935,001,2024-07-01_17h25.11.885,5-26,2024.1.4,None,2024-07-01 17h25.17.450356 +0900,
Images/Speaker1.jpg,Images/Speaker2.jpg,Images/Speaker3.jpg,Images/Speaker4.jpg,Audio/Speaker1_En/P1-19-En.wav,Speaker1,گوینده ۱,,,,,,,,,0,71,71,18,305.19365079199997,,,,,,,,,,,,,,,,,,,,,,,,,,,,,,,,,,,,,,,,,,,,,305.1720430000005,305.19365079199997,305.19365079199997,305.19365079199997,305.19365079199997,305.18788508366674,305.19365079199997,305.19365079199997,306.46377075000055,Correct! صحیح است,1,1.2667545829999654,None,68,152,306.46812879200024,306.47925662499983,308.48994395800037,308.46740750000026,308.4674387080004,308.46777991700037,030935,001,2024-07-01_17h25.11.885,5-26,2024.1.4,None,2024-07-01 17h25.17.450356 +0900,
Images/Speaker1.jpg,Images/Speaker2.jpg,Images/Speaker3.jpg,Images/Speaker4.jpg,Audio/Speaker2_En/P2-7-En.wav,Speaker2,گوینده۲,,,,,,,,,0,72,72,26,308.48994395800037,,,,,,,,,,,,,,,,,,,,,,,,,,,,,,,,,,,,,,,,,,,,,308.4687169580002,308.48994395800037,308.48994395800037,308.48994395800037,308.48994395800037,308.49985912533384,308.48994395800037,308.48994395800037,309.6497925829999,Correct! صحیح است,2,1.1524140829997123,None,68,153,309.6543924580001,309.6637229170001,311.6819330420003,311.65456491700024,311.65462025000033,311.65506345799986,030935,001,2024-07-01_17h25.11.885,5-26,2024.1.4,None,2024-07-01 17h25.17.450356 +0900,
Images/Speaker1.jpg,Images/Speaker2.jpg,Images/Speaker3.jpg,Images/Speaker4.jpg,Audio/Speaker4_En/P4-2-En.wav,Speaker4,گوینده۴,,,,,,,,,0,73,73,61,311.6819330420003,,,,,,,,,,,,,,,,,,,,,,,,,,,,,,,,,,,,,,,,,,,,,311.6566752079998,311.6819330420003,311.6819330420003,311.6819330420003,311.6819330420003,311.6867390833336,311.6819330420003,311.6819330420003,313.09062608299973,Correct! صحیح است,4,1.4033497079999506,None,68,154,313.0967322080005,313.10951724999995,315.12137879200054,315.0932190000003,315.0932555420004,315.0935691249997,030935,001,2024-07-01_17h25.11.885,5-26,2024.1.4,None,2024-07-01 17h25.17.450356 +0900,
Images/Speaker1.jpg,Images/Speaker2.jpg,Images/Speaker3.jpg,Images/Speaker4.jpg,Audio/Speaker1_En/P1-7-En.wav,Speaker1,گوینده ۱,,,,,,,,,0,74,74,6,315.12137879200054,,,,,,,,,,,,,,,,,,,,,,,,,,,,,,,,,,,,,,,,,,,,,315.0949566669997,315.12137879200054,315.12137879200054,315.12137879200054,315.12137879200054,315.12559695833306,315.12137879200054,315.12137879200054,316.5550193750005,Correct! صحیح است,1,1.431230250000226,None,68,155,316.5594078330005,316.5708977080003,318.5830032920003,318.5589247500002,318.5589326250001,318.55909466699995,030935,001,2024-07-01_17h25.11.885,5-26,2024.1.4,None,2024-07-01 17h25.17.450356 +0900,
Images/Speaker1.jpg,Images/Speaker2.jpg,Images/Speaker3.jpg,Images/Speaker4.jpg,Audio/Speaker4_En/P4-3-En.wav,Speaker4,گوینده۴,,,,,,,,,0,75,75,62,318.5830032920003,,,,,,,,,,,,,,,,,,,,,,,,,,,,,,,,,,,,,,,,,,,,,318.5599117920001,318.5830032920003,318.5830032920003,318.5830032920003,318.5830032920003,318.5919574163331,318.5830032920003,318.5830032920003,321.21028212500005,Correct! صحیح است,4,2.6168737920006606,None,68,156,321.21615587500037,321.22938183299993,,323.2264579170005,323.226493958,323.2272251249997,030935,001,2024-07-01_17h25.11.885,5-26,2024.1.4,None,2024-07-01 17h25.17.450356 +0900,
Images/Speaker1.jpg,Images/Speaker2.jpg,Images/Speaker3.jpg,Images/Speaker4.jpg,Audio/Speaker4_En/P4-10-En.wav,Speaker4,گوینده۴,,,,,,,,,0,76,76,69,323.25197220800055,,,,,,,,,,,,,,,,,,,,,,,,,,,,,,,,,,,,,,,,,,,,,323.22853233299975,323.25197220800055,323.25197220800055,323.25197220800055,323.25197220800055,323.2596062083335,323.25197220800055,323.25197220800055,324.47932825000044,Correct! صحیح است,4,1.226294417000645,None,68,157,324.48485170799995,324.4971252920004,,326.48615125000015,326.4861798330003,326.48685708300036,030935,001,2024-07-01_17h25.11.885,5-26,2024.1.4,None,2024-07-01 17h25.17.450356 +0900,
Images/Speaker1.jpg,Images/Speaker2.jpg,Images/Speaker3.jpg,Images/Speaker4.jpg,Audio/Speaker1_En/P1-15-En.wav,Speaker1,گوینده ۱,,,,,,,,,0,77,77,14,326.5110025419999,,,,,,,,,,,,,,,,,,,,,,,,,,,,,,,,,,,,,,,,,,,,,326.4882569580004,326.5110025419999,326.5110025419999,326.5110025419999,326.5110025419999,326.51931700033356,326.5110025419999,326.5110025419999,327.9817336670003,Correct! صحیح است,1,1.4670052499996018,None,68,158,327.98600120799983,327.99738958299986,330.0110331249998,329.9863266250004,329.98635637500047,329.98675925000043,030935,001,2024-07-01_17h25.11.885,5-26,2024.1.4,None,2024-07-01 17h25.17.450356 +0900,
Images/Speaker1.jpg,Images/Speaker2.jpg,Images/Speaker3.jpg,Images/Speaker4.jpg,Audio/Speaker2_En/P2-20-En.wav,Speaker2,گوینده۲,,,,,,,,,0,78,78,39,330.0110331249998,,,,,,,,,,,,,,,,,,,,,,,,,,,,,,,,,,,,,,,,,,,,,329.9880698329998,330.0110331249998,330.0110331249998,330.0110331249998,330.0110331249998,330.01865012533335,330.0110331249998,330.0110331249998,331.76298300000053,Correct! صحیح است,2,1.7503413329995965,None,68,159,331.7675892919997,331.77891295800055,,333.76869545800037,333.7687313329998,333.76949862499987,030935,001,2024-07-01_17h25.11.885,5-26,2024.1.4,None,2024-07-01 17h25.17.450356 +0900,
Images/Speaker1.jpg,Images/Speaker2.jpg,Images/Speaker3.jpg,Images/Speaker4.jpg,Audio/Speaker1_En/P1-13-En.wav,Speaker1,گوینده ۱,,,,,,,,,0,79,79,12,333.7932486669997,,,,,,,,,,,,,,,,,,,,,,,,,,,,,,,,,,,,,,,,,,,,,333.77109008299976,333.7932486669997,333.7932486669997,333.7932486669997,333.7932486669997,333.8018585003333,333.7932486669997,333.7932486669997,335.92557441700046,Correct! صحیح است,1,2.124768374999803,None,68,160,335.9308545829999,335.94232920800005,,337.93341574999977,337.9334234170001,337.9335926670001,030935,001,2024-07-01_17h25.11.885,5-26,2024.1.4,None,2024-07-01 17h25.17.450356 +0900,
Images/Speaker1.jpg,Images/Speaker2.jpg,Images/Speaker3.jpg,Images/Speaker4.jpg,Audio/Speaker2_En/P2-4-En.wav,Speaker2,گوینده۲,,,,,,,,,1,0,80,23,337.9555391670001,,,,,,,,,,,,,,,,,,,,,,,,,,,,,,,,,,,,,,,,,,,,,337.93400462499994,337.9555391670001,337.9555391670001,337.9555391670001,337.9555391670001,337.95004712466675,337.9555391670001,337.9555391670001,339.5505957080004,Correct! صحیح است,2,1.591494999999668,None,68,161,339.55484179199993,339.56695712500004,,341.56102699999974,341.5610597499999,341.56176320800023,030935,001,2024-07-01_17h25.11.885,5-26,2024.1.4,None,2024-07-01 17h25.17.450356 +0900,
Images/Speaker1.jpg,Images/Speaker2.jpg,Images/Speaker3.jpg,Images/Speaker4.jpg,Audio/Speaker2_En/P2-10-En.wav,Speaker2,گوینده۲,,,,,,,,,1,1,81,29,341.5849684579998,,,,,,,,,,,,,,,,,,,,,,,,,,,,,,,,,,,,,,,,,,,,,341.5633275830005,341.5849684579998,341.5849684579998,341.5849684579998,341.5849684579998,341.594165500333,341.5849684579998,341.5849684579998,342.9244390829999,Correct! صحیح است,2,1.330983875000129,None,68,162,342.9285795830001,342.93975904200033,344.94849491700006,344.9262207080001,344.9262295420003,344.92639770799997,030935,001,2024-07-01_17h25.11.885,5-26,2024.1.4,None,2024-07-01 17h25.17.450356 +0900,
,,,,,,,,,,,,,,,,,,,344.94849491700006,,,,,,,,,,,,,,,,,,,,,,,,,,,,,,,,,,,,,,,,,,,,,344.9268325000003,344.94849491700006,344.94849491700006,344.94849491700006,344.94849491700006,344.9426081246668,344.94849491700006,344.94849491700006,,,,,,,,,,,,,,,,,,,,,
