SpeakerImage1,SpeakerImage2,SpeakerImage3,SpeakerImage4,TrainingSound,EnglishCorrectAnswer,PersianCorrectAnswer,repeated_TrainingLoopGroup2.thisRepN,repeated_TrainingLoopGroup2.thisTrialN,repeated_TrainingLoopGroup2.thisN,repeated_TrainingLoopGroup2.thisIndex,TrainingLoopGroup2.thisRepN,TrainingLoopGroup2.thisTrialN,TrainingLoopGroup2.thisN,TrainingLoopGroup2.thisIndex,thisRow.t,notes,trial.started,trial.stopped,GroupSelection.started,GroupInstructions.started,key_resp.started,GroupSelection.stopped,key_resp.keys,key_resp.rt,key_resp.duration,HeadphoneCheck.started,text_13.started,mouse.started,checkbox.started,HeadphoneCheck.stopped,mouse.x,mouse.y,mouse.leftButton,mouse.midButton,mouse.rightButton,mouse.time,mouse.clicked_name,Headphone_Used,Introduction.started,text_2.started,image.started,sound_8.started,text_4.started,text_2.stopped,image.stopped,text_4.stopped,image_7.started,sound_10.started,text_5.started,image_7.stopped,text_5.stopped,image_8.started,sound_12.started,text_6.started,image_8.stopped,text_6.stopped,image_9.started,sound_14.started,text_7.started,Introduction.stopped,Instructions.started,InstructionText.started,Instructions.stopped,InitializeExperiment.started,InitializeExperiment.stopped,TrainingGroup2.started,image_11.started,SpeakerPicture2.started,image_5.started,image_6.started,Sound2.started,Instruction2.started,Response2.started,SessionNumberTest.started,TrainingGroup2.stopped,feedbackText,correct_responses_group2,total_trials_group2,Response2.keys,Response2.rt,Response2.duration,FeedbackRoutine2.started,FeedbackText2.started,FeedbackRoutine2.stopped,Break.started,Break.stopped,mouse2.x,mouse2.y,mouse2.leftButton,mouse2.midButton,mouse2.rightButton,mouse2.time,mouse2.clicked_name,Proceed_Break,FeedbackText2.stopped,break_message.started,checkbox2.started,text_component.started,mouse2.started,participant,session,date,expName,psychopyVersion,frameRate,expStart,
,,,,,,,,,,,,,,,,,0.007747582999400038,0.008096499999737716,,,,,,,,,,,,,,,,,,,,,,,,,,,,,,,,,,,,,,,,,,,,,,,,,,,,,,,,,,,,,,,,,,,,,,,,,,,,,,,,,,046152,001,2024-08-04_09h58.08.558,5-36 ready-Persian trained,2024.1.5,None,2024-08-04 09h58.13.427249 +0900,
,,,,,,,,,,,,,,,,,,,0.008113707999655162,0.012310582999816688,0.012310582999816688,1.465425999999752,2,1.4171061669994742,None,,,,,,,,,,,,,,,,,,,,,,,,,,,,,,,,,,,,,,,,,,,,,,,,,,,,,,,,,,,,,,,,,,,,,,,,,,,046152,001,2024-08-04_09h58.08.558,5-36 ready-Persian trained,2024.1.5,None,2024-08-04 09h58.13.427249 +0900,
,,,,,,,,,,,,,,,,,,,,,,,,,,1.465455290999671,1.4762866250002844,0.0001854170004662592,1.4762866250002844,3.1239525000000867,[-0.006109979633401222],[-0.23116089613034624],[1],[0],[0],[1.6575973339995471],['checkbox'],True,,,,,,,,,,,,,,,,,,,,,,,,,,,,,,,,,,,,,,,,,,,,,,,,,,,,,,,,,,,,,,046152,001,2024-08-04_09h58.08.558,5-36 ready-Persian trained,2024.1.5,None,2024-08-04 09h58.13.427249 +0900,
,,,,,,,,,,,,,,,,,,,,,,,,,,,,,,,,,,,,,,,3.1240984159994696,3.1635093750001033,8.12493266599995,8.13363449966643,8.12493266599995,8.158605540999815,13.111147124999661,13.111147124999661,15.116053415999886,15.12512370766605,15.116053415999886,20.11121833299967,20.11121833299967,22.11266570799944,22.123951707666734,22.11266570799944,27.107607291000022,27.107607291000022,29.129608915999597,29.135220332666236,29.129608915999597,34.12714608299939,,,,,,,,,,,,,,,,,,,,,,,,,,,,,,,,,,,,,,,,046152,001,2024-08-04_09h58.08.558,5-36 ready-Persian trained,2024.1.5,None,2024-08-04 09h58.13.427249 +0900,
,,,,,,,,,,,,,,,,,,,,,,,,,,,,,,,,,,,,,,,,,,,,,,,,,,,,,,,,,,,,,34.12726129099974,34.1332802500001,44.12659249999979,,,,,,,,,,,,,,,,,,,,,,,,,,,,,,,,,,,,,046152,001,2024-08-04_09h58.08.558,5-36 ready-Persian trained,2024.1.5,None,2024-08-04 09h58.13.427249 +0900,
,,,,,,,,,,,,,,,,,,,,,,,,,,,,,,,,,,,,,,,,,,,,,,,,,,,,,,,,,,,,,,,,44.12663520800015,44.127263124999445,,,,,,,,,,,,,,,,,,,,,,,,,,,,,,,,,,,046152,001,2024-08-04_09h58.08.558,5-36 ready-Persian trained,2024.1.5,None,2024-08-04 09h58.13.427249 +0900,
Images/Speaker1.jpg,Images/Speaker2.jpg,Images/Speaker3.jpg,Images/Speaker4.jpg,Audio/Speaker1_Per/P1-8-Per.wav,Speaker1,گوینده ۱,0,0,0,31,0,0,0,7,44.21038108299945,,,,,,,,,,,,,,,,,,,,,,,,,,,,,,,,,,,,,,,,,,,,,,,,,,,44.18006037499981,44.21038108299945,44.21038108299945,44.21038108299945,44.21038108299945,44.20971695833335,44.21038108299945,44.21038108299945,44.21038108299945,48.51127662499948,صحیح است,1,1,1,4.292456750000383,None,48.51175841599979,48.52316779099965,50.51830179099943,50.5183551250002,50.518803040999956,[],[],[],[],[],[],[],False,,,,,,046152,001,2024-08-04_09h58.08.558,5-36 ready-Persian trained,2024.1.5,None,2024-08-04 09h58.13.427249 +0900,
Images/Speaker1.jpg,Images/Speaker2.jpg,Images/Speaker3.jpg,Images/Speaker4.jpg,Audio/Speaker4_Per/P4-3-Per.wav,Speaker4,گوینده۴,0,0,0,31,0,1,1,62,50.549513332999595,,,,,,,,,,,,,,,,,,,,,,,,,,,,,,,,,,,,,,,,,,,,,,,,,,,50.52126916599991,50.549513332999595,50.549513332999595,50.549513332999595,50.549513332999595,50.551459791332974,50.549513332999595,50.549513332999595,50.549513332999595,53.101563790999535,نادرست! پاسخ صحیح گوینده۴ است,0,1,2,2.5478669579997586,None,53.10567391599943,53.11746524999944,55.10423766599979,55.10424829099975,55.10434420799993,[],[],[],[],[],[],[],False,55.13316479100013,,,,,046152,001,2024-08-04_09h58.08.558,5-36 ready-Persian trained,2024.1.5,None,2024-08-04 09h58.13.427249 +0900,
Images/Speaker1.jpg,Images/Speaker2.jpg,Images/Speaker3.jpg,Images/Speaker4.jpg,Audio/Speaker2_Per/P2-13-Per.wav,Speaker2,گوینده۲,0,0,0,31,0,2,2,32,55.13316479100013,,,,,,,,,,,,,,,,,,,,,,,,,,,,,,,,,,,,,,,,,,,,,,,,,,,55.104748499999914,55.13316479100013,55.13316479100013,55.13316479100013,55.13316479100013,55.13732699933328,55.13316479100013,55.13316479100013,55.13316479100013,55.829305833000035,نادرست! پاسخ صحیح گوینده۲ است,0,1,1,0.6905184580000423,None,55.83319299999948,55.84447791599996,57.82793175000006,57.82794108300004,57.82804745799967,[],[],[],[],[],[],[],False,57.85340762499982,,,,,046152,001,2024-08-04_09h58.08.558,5-36 ready-Persian trained,2024.1.5,None,2024-08-04 09h58.13.427249 +0900,
Images/Speaker1.jpg,Images/Speaker2.jpg,Images/Speaker3.jpg,Images/Speaker4.jpg,Audio/Speaker1_Per/P1-17-Per.wav,Speaker1,گوینده ۱,0,0,0,31,0,3,3,16,57.85340762499982,,,,,,,,,,,,,,,,,,,,,,,,,,,,,,,,,,,,,,,,,,,,,,,,,,,57.828452124999785,57.85340762499982,57.85340762499982,57.85340762499982,57.85340762499982,57.860983208333465,57.85340762499982,57.85340762499982,57.85340762499982,58.076713208,صحیح است,1,1,1,0.22056829099983588,None,58.08062866599994,58.096198915999594,60.08157449999999,60.081622374999824,60.08196562499961,[],[],[],[],[],[],[],False,,,,,,046152,001,2024-08-04_09h58.08.558,5-36 ready-Persian trained,2024.1.5,None,2024-08-04 09h58.13.427249 +0900,
Images/Speaker1.jpg,Images/Speaker2.jpg,Images/Speaker3.jpg,Images/Speaker4.jpg,Audio/Speaker3_Per/P3-8-Per.wav,Speaker3,گوینده۳,0,0,0,31,0,4,4,47,60.11185220799962,,,,,,,,,,,,,,,,,,,,,,,,,,,,,,,,,,,,,,,,,,,,,,,,,,,60.0832940829996,60.11185220799962,60.11185220799962,60.11185220799962,60.11185220799962,60.1147386663329,60.11185220799962,60.11185220799962,60.11185220799962,60.28483058300026,نادرست! پاسخ صحیح گوینده۳ است,0,1,1,0.167893875000118,None,60.28879154100014,60.30027933299971,62.283611707999626,62.283620540999436,62.28371887499998,[],[],[],[],[],[],[],False,62.31159783299972,,,,,046152,001,2024-08-04_09h58.08.558,5-36 ready-Persian trained,2024.1.5,None,2024-08-04 09h58.13.427249 +0900,
Images/Speaker1.jpg,Images/Speaker2.jpg,Images/Speaker3.jpg,Images/Speaker4.jpg,Audio/Speaker2_Per/P2-14-Per.wav,Speaker2,گوینده۲,0,0,0,31,0,5,5,33,62.31159783299972,,,,,,,,,,,,,,,,,,,,,,,,,,,,,,,,,,,,,,,,,,,,,,,,,,,62.28413945800003,62.31159783299972,62.31159783299972,62.31159783299972,62.31159783299972,62.316748083333124,62.31159783299972,62.31159783299972,62.31159783299972,62.548006915999395,نادرست! پاسخ صحیح گوینده۲ است,0,1,1,0.2270968749999156,None,62.552205582999704,62.563288540999565,64.54714675000014,64.54717820799942,64.54755899999964,[],[],[],[],[],[],[],False,64.57561558299949,,,,,046152,001,2024-08-04_09h58.08.558,5-36 ready-Persian trained,2024.1.5,None,2024-08-04 09h58.13.427249 +0900,
Images/Speaker1.jpg,Images/Speaker2.jpg,Images/Speaker3.jpg,Images/Speaker4.jpg,Audio/Speaker2_Per/P2-17-Per.wav,Speaker2,گوینده۲,0,0,0,31,0,6,6,36,64.57561558299949,,,,,,,,,,,,,,,,,,,,,,,,,,,,,,,,,,,,,,,,,,,,,,,,,,,64.54881824999939,64.57561558299949,64.57561558299949,64.57561558299949,64.57561558299949,64.57960833333303,64.57561558299949,64.57561558299949,64.57561558299949,64.79437808300008,نادرست! پاسخ صحیح گوینده۲ است,0,1,1,0.21771933300078672,None,64.79833637499996,64.80972812500022,66.80737066599977,66.8074071659994,66.80777124999986,[],[],[],[],[],[],[],False,,,,,,046152,001,2024-08-04_09h58.08.558,5-36 ready-Persian trained,2024.1.5,None,2024-08-04 09h58.13.427249 +0900,
Images/Speaker1.jpg,Images/Speaker2.jpg,Images/Speaker3.jpg,Images/Speaker4.jpg,Audio/Speaker4_Per/P4-7-Per.wav,Speaker4,گوینده۴,0,0,0,31,0,7,7,66,66.83409504100018,,,,,,,,,,,,,,,,,,,,,,,,,,,,,,,,,,,,,,,,,,,,,,,,,,,66.8092832909997,66.83409504100018,66.83409504100018,66.83409504100018,66.83409504100018,66.84054129133304,66.83409504100018,66.83409504100018,66.83409504100018,67.01440816600007,نادرست! پاسخ صحیح گوینده۴ است,0,1,1,0.1726779999999053,None,67.01819079100005,67.02952970800015,69.01290854099989,69.01291804099947,69.01303095799994,[],[],[],[],[],[],[],False,69.03842220800016,,,,,046152,001,2024-08-04_09h58.08.558,5-36 ready-Persian trained,2024.1.5,None,2024-08-04 09h58.13.427249 +0900,
Images/Speaker1.jpg,Images/Speaker2.jpg,Images/Speaker3.jpg,Images/Speaker4.jpg,Audio/Speaker4_Per/P4-15-Per.wav,Speaker4,گوینده۴,0,0,0,31,0,8,8,74,69.03842220800016,,,,,,,,,,,,,,,,,,,,,,,,,,,,,,,,,,,,,,,,,,,,,,,,,,,69.01341416600008,69.03842220800016,69.03842220800016,69.03842220800016,69.03842220800016,69.0460031663329,69.03842220800016,69.03842220800016,69.03842220800016,69.2936184579994,نادرست! پاسخ صحیح گوینده۴ است,0,1,1,0.2519568330008042,None,69.29758483299975,69.3091594159996,71.2967373749998,71.29674845799946,71.2968502499998,[],[],[],[],[],[],[],False,71.32171462499991,,,,,046152,001,2024-08-04_09h58.08.558,5-36 ready-Persian trained,2024.1.5,None,2024-08-04 09h58.13.427249 +0900,
Images/Speaker1.jpg,Images/Speaker2.jpg,Images/Speaker3.jpg,Images/Speaker4.jpg,Audio/Speaker4_Per/P4-6-Per.wav,Speaker4,گوینده۴,0,0,0,31,0,9,9,65,71.32171462499991,,,,,,,,,,,,,,,,,,,,,,,,,,,,,,,,,,,,,,,,,,,,,,,,,,,71.29726466600005,71.32171462499991,71.32171462499991,71.32171462499991,71.32171462499991,71.3298333333328,71.32171462499991,71.32171462499991,71.32171462499991,71.53458916599993,نادرست! پاسخ صحیح گوینده۴ است,0,1,1,0.20785574999990786,None,71.53881391599953,71.54994191599963,73.53758954099976,73.53761812499943,73.53795391599942,[],[],[],[],[],[],[],False,73.56425316599962,,,,,046152,001,2024-08-04_09h58.08.558,5-36 ready-Persian trained,2024.1.5,None,2024-08-04 09h58.13.427249 +0900,
Images/Speaker1.jpg,Images/Speaker2.jpg,Images/Speaker3.jpg,Images/Speaker4.jpg,Audio/Speaker3_Per/P3-19-Per.wav,Speaker3,گوینده۳,0,0,0,31,0,10,10,58,73.56425316599962,,,,,,,,,,,,,,,,,,,,,,,,,,,,,,,,,,,,,,,,,,,,,,,,,,,73.53924945800009,73.56425316599962,73.56425316599962,73.56425316599962,73.56425316599962,73.57037254133277,73.56425316599962,73.56425316599962,73.56425316599962,73.82066587499958,نادرست! پاسخ صحیح گوینده۳ است,0,1,1,0.25474729199959256,None,73.8247699579997,73.83639949999997,75.82490499999949,75.8249303749999,75.82546887499939,[],[],[],[],[],[],[],False,75.85145454099984,,,,,046152,001,2024-08-04_09h58.08.558,5-36 ready-Persian trained,2024.1.5,None,2024-08-04 09h58.13.427249 +0900,
Images/Speaker1.jpg,Images/Speaker2.jpg,Images/Speaker3.jpg,Images/Speaker4.jpg,Audio/Speaker1_Per/P1-1-Per.wav,Speaker1,گوینده ۱,0,0,0,31,0,11,11,0,75.85145454099984,,,,,,,,,,,,,,,,,,,,,,,,,,,,,,,,,,,,,,,,,,,,,,,,,,,75.8265317079995,75.85145454099984,75.85145454099984,75.85145454099984,75.85145454099984,75.85744904133347,75.85145454099984,75.85145454099984,75.85145454099984,76.05932404099985,صحیح است,1,1,1,0.20290550000026997,None,76.06354295799974,76.07418049999978,78.06706024999949,78.06709483299983,78.06746462499996,[],[],[],[],[],[],[],False,,,,,,046152,001,2024-08-04_09h58.08.558,5-36 ready-Persian trained,2024.1.5,None,2024-08-04 09h58.13.427249 +0900,
Images/Speaker1.jpg,Images/Speaker2.jpg,Images/Speaker3.jpg,Images/Speaker4.jpg,Audio/Speaker1_Per/P1-2-Per.wav,Speaker1,گوینده ۱,0,0,0,31,0,12,12,1,78.09469108299982,,,,,,,,,,,,,,,,,,,,,,,,,,,,,,,,,,,,,,,,,,,,,,,,,,,78.06894424999973,78.09469108299982,78.09469108299982,78.09469108299982,78.09469108299982,78.10021720833313,78.09469108299982,78.09469108299982,78.09469108299982,78.3137475829999,صحیح است,1,1,1,0.21663770799932536,None,78.31792962500003,78.32838683299997,80.31647616600003,80.31651037499978,80.31698320800024,[],[],[],[],[],[],[],False,80.34747966600025,,,,,046152,001,2024-08-04_09h58.08.558,5-36 ready-Persian trained,2024.1.5,None,2024-08-04 09h58.13.427249 +0900,
Images/Speaker1.jpg,Images/Speaker2.jpg,Images/Speaker3.jpg,Images/Speaker4.jpg,Audio/Speaker1_Per/P1-11-Per.wav,Speaker1,گوینده ۱,0,0,0,31,0,13,13,10,80.34747966600025,,,,,,,,,,,,,,,,,,,,,,,,,,,,,,,,,,,,,,,,,,,,,,,,,,,80.31861779100018,80.34747966600025,80.34747966600025,80.34747966600025,80.34747966600025,80.3489442493333,80.34747966600025,80.34747966600025,80.34747966600025,80.74268216600012,صحیح است,1,1,1,0.3837978330002443,None,80.74673587500001,80.75726649999979,82.74402420800016,82.74405179099995,82.74438612499944,[],[],[],[],[],[],[],False,82.77095737499985,,,,,046152,001,2024-08-04_09h58.08.558,5-36 ready-Persian trained,2024.1.5,None,2024-08-04 09h58.13.427249 +0900,
Images/Speaker1.jpg,Images/Speaker2.jpg,Images/Speaker3.jpg,Images/Speaker4.jpg,Audio/Speaker4_Per/P4-2-Per.wav,Speaker4,گوینده۴,0,0,0,31,0,14,14,61,82.77095737499985,,,,,,,,,,,,,,,,,,,,,,,,,,,,,,,,,,,,,,,,,,,,,,,,,,,82.74573233299998,82.77095737499985,82.77095737499985,82.77095737499985,82.77095737499985,82.77649904133298,82.77095737499985,82.77095737499985,82.77095737499985,82.95078908300002,نادرست! پاسخ صحیح گوینده۴ است,0,1,1,0.17813533400021697,None,82.9547467909997,82.96615916599967,84.95775537499958,84.95776475000002,84.95787008299976,[],[],[],[],[],[],[],False,,,,,,046152,001,2024-08-04_09h58.08.558,5-36 ready-Persian trained,2024.1.5,None,2024-08-04 09h58.13.427249 +0900,
Images/Speaker1.jpg,Images/Speaker2.jpg,Images/Speaker3.jpg,Images/Speaker4.jpg,Audio/Speaker4_Per/P4-11-Per.wav,Speaker4,گوینده۴,0,0,0,31,0,15,15,70,84.98507108299964,,,,,,,,,,,,,,,,,,,,,,,,,,,,,,,,,,,,,,,,,,,,,,,,,,,84.95935404099964,84.98507108299964,84.98507108299964,84.98507108299964,84.98507108299964,84.99104979133293,84.98507108299964,84.98507108299964,84.98507108299964,85.05231495799944,نادرست! پاسخ صحیح گوینده۴ است,0,1,1,0.06506279099994572,None,85.05608183299955,85.0674007079997,87.05426637500022,87.05429550000008,87.05480524999984,[],[],[],[],[],[],[],False,87.08084691600016,,,,,046152,001,2024-08-04_09h58.08.558,5-36 ready-Persian trained,2024.1.5,None,2024-08-04 09h58.13.427249 +0900,
Images/Speaker1.jpg,Images/Speaker2.jpg,Images/Speaker3.jpg,Images/Speaker4.jpg,Audio/Speaker3_Per/P3-16-Per.wav,Speaker3,گوینده۳,0,0,0,31,0,16,16,55,87.08084691600016,,,,,,,,,,,,,,,,,,,,,,,,,,,,,,,,,,,,,,,,,,,,,,,,,,,87.05629545800002,87.08084691600016,87.08084691600016,87.08084691600016,87.08084691600016,87.08663395833312,87.08084691600016,87.08084691600016,87.08084691600016,87.11492924999948,نادرست! پاسخ صحیح گوینده۳ است,0,1,1,0.03171033400030865,None,87.11892695799997,87.1307207079999,89.11977487500008,89.11978683300003,89.11990474999948,[],[],[],[],[],[],[],False,,,,,,046152,001,2024-08-04_09h58.08.558,5-36 ready-Persian trained,2024.1.5,None,2024-08-04 09h58.13.427249 +0900,
Images/Speaker1.jpg,Images/Speaker2.jpg,Images/Speaker3.jpg,Images/Speaker4.jpg,Audio/Speaker1_Per/P1-4-Per.wav,Speaker1,گوینده ۱,0,0,0,31,0,17,17,13,89.144320333,,,,,,,,,,,,,,,,,,,,,,,,,,,,,,,,,,,,,,,,,,,,,,,,,,,89.12035662499966,89.144320333,89.144320333,89.144320333,89.144320333,89.15305708333338,89.144320333,89.144320333,89.144320333,89.28513295799985,صحیح است,1,1,1,0.13816966699960176,None,89.28893133299971,89.29950791600004,91.28351404099976,91.28352362500027,91.28363612500016,[],[],[],[],[],[],[],False,91.30903758299974,,,,,046152,001,2024-08-04_09h58.08.558,5-36 ready-Persian trained,2024.1.5,None,2024-08-04 09h58.13.427249 +0900,
Images/Speaker1.jpg,Images/Speaker2.jpg,Images/Speaker3.jpg,Images/Speaker4.jpg,Audio/Speaker2_Per/P2-4-Per.wav,Speaker2,گوینده۲,0,0,0,31,0,18,18,23,91.30903758299974,,,,,,,,,,,,,,,,,,,,,,,,,,,,,,,,,,,,,,,,,,,,,,,,,,,91.28409920800004,91.30903758299974,91.30903758299974,91.30903758299974,91.30903758299974,91.31661120833317,91.30903758299974,91.30903758299974,91.30903758299974,91.43837216599968,نادرست! پاسخ صحیح گوینده۲ است,0,1,1,0.12725716600016312,None,91.44229166599962,91.45308000000023,93.4372759580001,93.43732766599987,93.4378897079996,[],[],[],[],[],[],[],False,93.46808908299954,,,,,046152,001,2024-08-04_09h58.08.558,5-36 ready-Persian trained,2024.1.5,None,2024-08-04 09h58.13.427249 +0900,
Images/Speaker1.jpg,Images/Speaker2.jpg,Images/Speaker3.jpg,Images/Speaker4.jpg,Audio/Speaker3_Per/P3-9-Per.wav,Speaker3,گوینده۳,0,0,0,31,0,19,19,48,93.46808908299954,,,,,,,,,,,,,,,,,,,,,,,,,,,,,,,,,,,,,,,,,,,,,,,,,,,93.43952741599969,93.46808908299954,93.46808908299954,93.46808908299954,93.46808908299954,93.46925116633295,93.46808908299954,93.46808908299954,93.46808908299954,93.81109291600023,نادرست! پاسخ صحیح گوینده۳ است,0,1,1,0.33747320899965416,None,93.81500591599979,93.8264763749994,95.81511412500004,95.81514108299962,95.81544849999955,[],[],[],[],[],[],[],False,95.84196841599987,,,,,046152,001,2024-08-04_09h58.08.558,5-36 ready-Persian trained,2024.1.5,None,2024-08-04 09h58.13.427249 +0900,
Images/Speaker1.jpg,Images/Speaker2.jpg,Images/Speaker3.jpg,Images/Speaker4.jpg,Audio/Speaker2_Per/P2-12-Per.wav,Speaker2,گوینده۲,0,0,0,31,0,20,20,31,95.84196841599987,,,,,,,,,,,,,,,,,,,,,,,,,,,,,,,,,,,,,,,,,,,,,,,,,,,95.81699133300026,95.84196841599987,95.84196841599987,95.84196841599987,95.84196841599987,95.84757895833312,95.84196841599987,95.84196841599987,95.84196841599987,96.36289804099943,نادرست! پاسخ صحیح گوینده۲ است,0,1,1,0.5153010000003633,None,96.36678820799989,96.37832029099991,98.36340933300016,98.3634227499997,98.36354466600005,[],[],[],[],[],[],[],False,98.38756595799987,,,,,046152,001,2024-08-04_09h58.08.558,5-36 ready-Persian trained,2024.1.5,None,2024-08-04 09h58.13.427249 +0900,
Images/Speaker1.jpg,Images/Speaker2.jpg,Images/Speaker3.jpg,Images/Speaker4.jpg,Audio/Speaker3_Per/P3-13-Per.wav,Speaker3,گوینده۳,0,0,0,31,0,21,21,52,98.38756595799987,,,,,,,,,,,,,,,,,,,,,,,,,,,,,,,,,,,,,,,,,,,,,,,,,,,98.36399841599996,98.38756595799987,98.38756595799987,98.38756595799987,98.38756595799987,98.39654541633311,98.38756595799987,98.38756595799987,98.38756595799987,98.5445593329996,نادرست! پاسخ صحیح گوینده۳ است,0,1,1,0.15343633300017245,None,98.54846808299953,98.55961854099951,100.54417374999957,100.54418391599938,100.54428587500024,[],[],[],[],[],[],[],False,100.56778783299978,,,,,046152,001,2024-08-04_09h58.08.558,5-36 ready-Persian trained,2024.1.5,None,2024-08-04 09h58.13.427249 +0900,
Images/Speaker1.jpg,Images/Speaker2.jpg,Images/Speaker3.jpg,Images/Speaker4.jpg,Audio/Speaker2_Per/P2-8-Per.wav,Speaker2,گوینده۲,0,0,0,31,0,22,22,27,100.56778783299978,,,,,,,,,,,,,,,,,,,,,,,,,,,,,,,,,,,,,,,,,,,,,,,,,,,100.54474287499943,100.56778783299978,100.56778783299978,100.56778783299978,100.56778783299978,100.56057916666693,100.56778783299978,100.56778783299978,100.56778783299978,100.87944258300013,نادرست! پاسخ صحیح گوینده۲ است,0,1,1,0.30236683299972356,None,100.88365658299972,100.89504358300019,102.88909166600024,102.88910583300003,102.88920704100019,[],[],[],[],[],[],[],False,,,,,,046152,001,2024-08-04_09h58.08.558,5-36 ready-Persian trained,2024.1.5,None,2024-08-04 09h58.13.427249 +0900,
Images/Speaker1.jpg,Images/Speaker2.jpg,Images/Speaker3.jpg,Images/Speaker4.jpg,Audio/Speaker4_Per/P4-12-Per.wav,Speaker4,گوینده۴,0,0,0,31,0,23,23,71,102.91394166600003,,,,,,,,,,,,,,,,,,,,,,,,,,,,,,,,,,,,,,,,,,,,,,,,,,,102.88965300000018,102.91394166600003,102.91394166600003,102.91394166600003,102.91394166600003,102.92238912433325,102.91394166600003,102.91394166600003,102.91394166600003,103.08848441600003,نادرست! پاسخ صحیح گوینده۴ است,0,1,1,0.1718086669998229,None,103.09244112499982,103.10412104099942,105.09618175000014,105.09623724999983,105.09661383299954,[],[],[],[],[],[],[],False,,,,,,046152,001,2024-08-04_09h58.08.558,5-36 ready-Persian trained,2024.1.5,None,2024-08-04 09h58.13.427249 +0900,
Images/Speaker1.jpg,Images/Speaker2.jpg,Images/Speaker3.jpg,Images/Speaker4.jpg,Audio/Speaker2_Per/P2-6-Per.wav,Speaker2,گوینده۲,0,0,0,31,0,24,24,25,105.12236937499983,,,,,,,,,,,,,,,,,,,,,,,,,,,,,,,,,,,,,,,,,,,,,,,,,,,105.09803183300028,105.12236937499983,105.12236937499983,105.12236937499983,105.12236937499983,105.12931279133275,105.12236937499983,105.12236937499983,105.12236937499983,105.3818607080002,نادرست! پاسخ صحیح گوینده۲ است,0,1,1,0.255430332999822,None,105.38588987499952,105.39742954099984,107.3891859159994,107.38922645799994,107.38964329099963,[],[],[],[],[],[],[],False,,,,,,046152,001,2024-08-04_09h58.08.558,5-36 ready-Persian trained,2024.1.5,None,2024-08-04 09h58.13.427249 +0900,
Images/Speaker1.jpg,Images/Speaker2.jpg,Images/Speaker3.jpg,Images/Speaker4.jpg,Audio/Speaker2_Per/P2-16-Per.wav,Speaker2,گوینده۲,0,0,0,31,0,25,25,35,107.41931724999995,,,,,,,,,,,,,,,,,,,,,,,,,,,,,,,,,,,,,,,,,,,,,,,,,,,107.39099829099996,107.41931724999995,107.41931724999995,107.41931724999995,107.41931724999995,107.4223818333335,107.41931724999995,107.41931724999995,107.41931724999995,107.6383799159994,نادرست! پاسخ صحیح گوینده۲ است,0,1,1,0.2142927499999132,None,107.6426293329996,107.65533854099976,109.64773354099998,109.64774658299939,109.64789383300013,[],[],[],[],[],[],[],False,,,,,,046152,001,2024-08-04_09h58.08.558,5-36 ready-Persian trained,2024.1.5,None,2024-08-04 09h58.13.427249 +0900,
Images/Speaker1.jpg,Images/Speaker2.jpg,Images/Speaker3.jpg,Images/Speaker4.jpg,Audio/Speaker2_Per/P2-3-Per.wav,Speaker2,گوینده۲,0,0,0,31,0,26,26,22,109.67187891599951,,,,,,,,,,,,,,,,,,,,,,,,,,,,,,,,,,,,,,,,,,,,,,,,,,,109.64831633299946,109.67187891599951,109.67187891599951,109.67187891599951,109.67187891599951,109.68102854133352,109.67187891599951,109.67187891599951,109.67187891599951,109.86371983299978,نادرست! پاسخ صحیح گوینده۲ است,0,1,1,0.18559300000015355,None,109.86747837500025,109.87876516599954,111.86589370799993,111.86592279100023,111.86636033299965,[],[],[],[],[],[],[],False,111.89373404100024,,,,,046152,001,2024-08-04_09h58.08.558,5-36 ready-Persian trained,2024.1.5,None,2024-08-04 09h58.13.427249 +0900,
Images/Speaker1.jpg,Images/Speaker2.jpg,Images/Speaker3.jpg,Images/Speaker4.jpg,Audio/Speaker3_Per/P3-11-Per.wav,Speaker3,گوینده۳,0,0,0,31,0,27,27,50,111.89373404100024,,,,,,,,,,,,,,,,,,,,,,,,,,,,,,,,,,,,,,,,,,,,,,,,,,,111.86766766599976,111.89373404100024,111.89373404100024,111.89373404100024,111.89373404100024,111.89840362433327,111.89373404100024,111.89373404100024,111.89373404100024,112.085944208,نادرست! پاسخ صحیح گوینده۳ است,0,1,1,0.1850941660004537,None,112.0900986659999,112.09916062499997,114.0832273750002,114.08323712499987,114.0833601659997,[],[],[],[],[],[],[],False,114.10739241600004,,,,,046152,001,2024-08-04_09h58.08.558,5-36 ready-Persian trained,2024.1.5,None,2024-08-04 09h58.13.427249 +0900,
Images/Speaker1.jpg,Images/Speaker2.jpg,Images/Speaker3.jpg,Images/Speaker4.jpg,Audio/Speaker3_Per/P3-12-Per.wav,Speaker3,گوینده۳,0,0,0,31,0,28,28,51,114.10739241600004,,,,,,,,,,,,,,,,,,,,,,,,,,,,,,,,,,,,,,,,,,,,,,,,,,,114.08377508299964,114.10739241600004,114.10739241600004,114.10739241600004,114.10739241600004,114.11634262433338,114.10739241600004,114.10739241600004,114.10739241600004,114.40664333299992,نادرست! پاسخ صحیح گوینده۳ است,0,1,1,0.29157904099974985,None,114.41064237499995,114.42208083300011,116.40571524999996,116.40574320799988,116.40605937500004,[],[],[],[],[],[],[],False,116.43256908300009,,,,,046152,001,2024-08-04_09h58.08.558,5-36 ready-Persian trained,2024.1.5,None,2024-08-04 09h58.13.427249 +0900,
Images/Speaker1.jpg,Images/Speaker2.jpg,Images/Speaker3.jpg,Images/Speaker4.jpg,Audio/Speaker3_Per/P3-6-Per.wav,Speaker3,گوینده۳,0,0,0,31,0,29,29,45,116.43256908300009,,,,,,,,,,,,,,,,,,,,,,,,,,,,,,,,,,,,,,,,,,,,,,,,,,,116.40735645799941,116.43256908300009,116.43256908300009,116.43256908300009,116.43256908300009,116.43822658333332,116.43256908300009,116.43256908300009,116.43256908300009,117.18606962499962,نادرست! پاسخ صحیح گوینده۳ است,0,1,1,0.7494818750001286,None,117.19000429100015,117.20125258299959,119.18441754099968,119.18443304099947,119.18453704100011,[],[],[],[],[],[],[],False,119.20940908299963,,,,,046152,001,2024-08-04_09h58.08.558,5-36 ready-Persian trained,2024.1.5,None,2024-08-04 09h58.13.427249 +0900,
Images/Speaker1.jpg,Images/Speaker2.jpg,Images/Speaker3.jpg,Images/Speaker4.jpg,Audio/Speaker3_Per/P3-7-Per.wav,Speaker3,گوینده۳,0,0,0,31,0,30,30,46,119.20940908299963,,,,,,,,,,,,,,,,,,,,,,,,,,,,,,,,,,,,,,,,,,,,,,,,,,,119.1849570409995,119.20940908299963,119.20940908299963,119.20940908299963,119.20940908299963,119.21756341633275,119.20940908299963,119.20940908299963,119.20940908299963,119.74653083300018,نادرست! پاسخ صحیح گوینده۳ است,0,1,1,0.5310827909997897,None,119.75034091599991,119.76165245799984,121.74430704099996,121.74432100000013,121.74443208299999,[],[],[],[],[],[],[],False,121.77075491599953,,,,,046152,001,2024-08-04_09h58.08.558,5-36 ready-Persian trained,2024.1.5,None,2024-08-04 09h58.13.427249 +0900,
Images/Speaker1.jpg,Images/Speaker2.jpg,Images/Speaker3.jpg,Images/Speaker4.jpg,Audio/Speaker2_Per/P2-15-Per.wav,Speaker2,گوینده۲,0,0,0,31,0,31,31,34,121.77075491599953,,,,,,,,,,,,,,,,,,,,,,,,,,,,,,,,,,,,,,,,,,,,,,,,,,,121.74486408299981,121.77075491599953,121.77075491599953,121.77075491599953,121.77075491599953,121.77741329133326,121.77075491599953,121.77075491599953,121.77075491599953,122.04343270800018,نادرست! پاسخ صحیح گوینده۲ است,0,1,1,0.2645277920000808,None,122.04752800000006,122.05657070799953,124.04789687499942,124.0479309579996,124.0482802079996,[],[],[],[],[],[],[],False,,,,,,046152,001,2024-08-04_09h58.08.558,5-36 ready-Persian trained,2024.1.5,None,2024-08-04 09h58.13.427249 +0900,
Images/Speaker1.jpg,Images/Speaker2.jpg,Images/Speaker3.jpg,Images/Speaker4.jpg,Audio/Speaker1_Per/P1-20-Per.wav,Speaker1,گوینده ۱,0,0,0,31,0,32,32,19,124.07705254099983,,,,,,,,,,,,,,,,,,,,,,,,,,,,,,,,,,,,,,,,,,,,,,,,,,,124.04968995800027,124.07705254099983,124.07705254099983,124.07705254099983,124.07705254099983,124.08100670833349,124.07705254099983,124.07705254099983,124.07705254099983,124.61027620799996,صحیح است,1,1,1,0.522454832999756,None,124.6140427499995,124.62481608300004,126.60990829099956,126.60991779100004,126.61001124999984,[],[],[],[],[],[],[],False,126.63567779099958,,,,,046152,001,2024-08-04_09h58.08.558,5-36 ready-Persian trained,2024.1.5,None,2024-08-04 09h58.13.427249 +0900,
Images/Speaker1.jpg,Images/Speaker2.jpg,Images/Speaker3.jpg,Images/Speaker4.jpg,Audio/Speaker2_Per/P2-10-Per.wav,Speaker2,گوینده۲,0,0,0,31,0,33,33,29,126.63567779099958,,,,,,,,,,,,,,,,,,,,,,,,,,,,,,,,,,,,,,,,,,,,,,,,,,,126.61045358299998,126.63567779099958,126.63567779099958,126.63567779099958,126.63567779099958,126.6430424163332,126.63567779099958,126.63567779099958,126.63567779099958,126.85917787499966,نادرست! پاسخ صحیح گوینده۲ است,0,1,1,0.2214002500004426,None,126.86346354099987,126.874666875,128.8581008330002,128.85811275000015,128.85821808299988,[],[],[],[],[],[],[],False,128.8837228329994,,,,,046152,001,2024-08-04_09h58.08.558,5-36 ready-Persian trained,2024.1.5,None,2024-08-04 09h58.13.427249 +0900,
Images/Speaker1.jpg,Images/Speaker2.jpg,Images/Speaker3.jpg,Images/Speaker4.jpg,Audio/Speaker3_Per/P3-5-Per.wav,Speaker3,گوینده۳,0,0,0,31,0,34,34,44,128.8837228329994,,,,,,,,,,,,,,,,,,,,,,,,,,,,,,,,,,,,,,,,,,,,,,,,,,,128.8586386249999,128.8837228329994,128.8837228329994,128.8837228329994,128.8837228329994,128.89121837433282,128.8837228329994,128.8837228329994,128.8837228329994,129.03473691599993,نادرست! پاسخ صحیح گوینده۳ است,0,1,1,0.1483981669998684,None,129.0384982079995,129.04978079099965,131.0335261250002,131.03355216599994,131.03395483300028,[],[],[],[],[],[],[],False,131.0634574579999,,,,,046152,001,2024-08-04_09h58.08.558,5-36 ready-Persian trained,2024.1.5,None,2024-08-04 09h58.13.427249 +0900,
Images/Speaker1.jpg,Images/Speaker2.jpg,Images/Speaker3.jpg,Images/Speaker4.jpg,Audio/Speaker3_Per/P3-4-Per.wav,Speaker3,گوینده۳,0,0,0,31,0,35,35,43,131.0634574579999,,,,,,,,,,,,,,,,,,,,,,,,,,,,,,,,,,,,,,,,,,,,,,,,,,,131.03550845799964,131.0634574579999,131.0634574579999,131.0634574579999,131.0634574579999,131.06607029133335,131.0634574579999,131.0634574579999,131.0634574579999,131.2429069159998,نادرست! پاسخ صحیح گوینده۳ است,0,1,1,0.1783459580001363,None,131.24694058299974,131.25800454099954,133.2451228330001,133.24513454099997,133.2452789580002,[],[],[],[],[],[],[],False,133.26962124999955,,,,,046152,001,2024-08-04_09h58.08.558,5-36 ready-Persian trained,2024.1.5,None,2024-08-04 09h58.13.427249 +0900,
Images/Speaker1.jpg,Images/Speaker2.jpg,Images/Speaker3.jpg,Images/Speaker4.jpg,Audio/Speaker1_Per/P1-16-Per.wav,Speaker1,گوینده ۱,0,0,0,31,0,36,36,15,133.26962124999955,,,,,,,,,,,,,,,,,,,,,,,,,,,,,,,,,,,,,,,,,,,,,,,,,,,133.24571337499947,133.26962124999955,133.26962124999955,133.26962124999955,133.26962124999955,133.278144499333,133.26962124999955,133.26962124999955,133.26962124999955,133.48336624999956,صحیح است,1,1,1,0.2072473340003853,None,133.4872696249995,133.49712816600004,135.4932279579998,135.49326816600023,135.49366462499984,[],[],[],[],[],[],[],False,,,,,,046152,001,2024-08-04_09h58.08.558,5-36 ready-Persian trained,2024.1.5,None,2024-08-04 09h58.13.427249 +0900,
Images/Speaker1.jpg,Images/Speaker2.jpg,Images/Speaker3.jpg,Images/Speaker4.jpg,Audio/Speaker2_Per/P2-9-Per.wav,Speaker2,گوینده۲,0,0,0,31,0,37,37,28,135.5230921249995,,,,,,,,,,,,,,,,,,,,,,,,,,,,,,,,,,,,,,,,,,,,,,,,,,,135.49516887499976,135.5230921249995,135.5230921249995,135.5230921249995,135.5230921249995,135.52638474933298,135.5230921249995,135.5230921249995,135.5230921249995,135.85756162500002,نادرست! پاسخ صحیح گوینده۲ است,0,1,1,0.33278004200019495,None,135.86163962499995,135.87332787499963,137.85783908299982,137.85784833300022,137.85794741599966,[],[],[],[],[],[],[],False,137.8816802909996,,,,,046152,001,2024-08-04_09h58.08.558,5-36 ready-Persian trained,2024.1.5,None,2024-08-04 09h58.13.427249 +0900,
Images/Speaker1.jpg,Images/Speaker2.jpg,Images/Speaker3.jpg,Images/Speaker4.jpg,Audio/Speaker3_Per/P3-18-Per.wav,Speaker3,گوینده۳,0,0,0,31,0,38,38,57,137.8816802909996,,,,,,,,,,,,,,,,,,,,,,,,,,,,,,,,,,,,,,,,,,,,,,,,,,,137.85834220800007,137.8816802909996,137.8816802909996,137.8816802909996,137.8816802909996,137.89091408333348,137.8816802909996,137.8816802909996,137.8816802909996,138.2327432080001,نادرست! پاسخ صحیح گوینده۳ است,0,1,1,0.3483795830006784,None,138.23696729099993,138.248491458,140.2450950829998,140.24511179099954,140.24534270799995,[],[],[],[],[],[],[],False,,,,,,046152,001,2024-08-04_09h58.08.558,5-36 ready-Persian trained,2024.1.5,None,2024-08-04 09h58.13.427249 +0900,
Images/Speaker1.jpg,Images/Speaker2.jpg,Images/Speaker3.jpg,Images/Speaker4.jpg,Audio/Speaker4_Per/P4-1-Per.wav,Speaker4,گوینده۴,0,0,0,31,0,39,39,60,140.27220029099954,,,,,,,,,,,,,,,,,,,,,,,,,,,,,,,,,,,,,,,,,,,,,,,,,,,140.24682066599962,140.27220029099954,140.27220029099954,140.27220029099954,140.27220029099954,140.27838366633347,140.27220029099954,140.27220029099954,140.27220029099954,140.5471902499994,نادرست! پاسخ صحیح گوینده۴ است,0,1,1,0.27340620900031354,None,140.5513047079994,140.56253124999967,142.54562895799972,142.54563866599983,152.46099462500024,[0.017311608961303463],[-0.19653767820773932],[1],[0],[0],[9.897170458999426],['checkbox'],True,142.56006929100022,142.56006929100022,142.56006929100022,142.56006929100022,0.008803292000266083,046152,001,2024-08-04_09h58.08.558,5-36 ready-Persian trained,2024.1.5,None,2024-08-04 09h58.13.427249 +0900,
,,,,,,,,,,,,,,,152.47948124999948,,,,,,,,,,,,,,,,,,,,,,,,,,,,,,,,,,,,,,,,,,,,,,,,,,,152.46143279099942,152.47948124999948,152.47948124999948,152.47948124999948,152.47948124999948,152.49022716633277,152.47948124999948,152.47948124999948,152.47948124999948,154.29775425000025,صحیح است,1,1,2,1.8167886250002994,None,154.30206487499981,154.31313154100008,,,,,,,,,,,,,,,,,,,,,,,,
