SpeakerImage1,SpeakerImage2,SpeakerImage3,SpeakerImage4,TrainingSound,EnglishCorrectAnswer,PersianCorrectAnswer,repeated_TrainingLoopGroup1.thisRepN,repeated_TrainingLoopGroup1.thisTrialN,repeated_TrainingLoopGroup1.thisN,repeated_TrainingLoopGroup1.thisIndex,TrainingLoopGroup1.thisRepN,TrainingLoopGroup1.thisTrialN,TrainingLoopGroup1.thisN,TrainingLoopGroup1.thisIndex,thisRow.t,notes,trial.started,trial.stopped,GroupSelection.started,GroupInstructions.started,key_resp.started,GroupSelection.stopped,key_resp.keys,key_resp.rt,key_resp.duration,Introduction.started,text_2.started,image.started,sound_7.started,text_4.started,text_2.stopped,sound_8.started,image.stopped,text_4.stopped,image_7.started,sound_9.started,text_5.started,sound_10.started,image_8.started,sound_11.started,text_6.started,image_7.stopped,text_5.stopped,sound_12.started,image_8.stopped,text_6.stopped,image_9.started,sound_13.started,text_7.started,sound_14.started,image_9.stopped,text_7.stopped,Introduction.stopped,Instructions.started,InstructionText.started,InstructionText.stopped,Instructions.stopped,InitializeExperiment.started,InitializeExperiment.stopped,CheckAccuracy1.started,CheckAccuracy1.stopped,participant,session,date,expName,psychopyVersion,frameRate,expStart,
,,,,,,,,,,,,,,,,,0.00950708299933467,0.009892958001728402,,,,,,,,,,,,,,,,,,,,,,,,,,,,,,,,,,,,,,,,,,,,059469,001,2024-07-01_23h23.38.799,5-28,2024.1.4,None,2024-07-01 23h23.43.903317 +0900,
,,,,,,,,,,,,,,,,,,,0.009906708000926301,0.015219666001939913,0.015219666001939913,0.6837259579988313,2,0.633692625000549,None,,,,,,,,,,,,,,,,,,,,,,,,,,,,,,,,,,,,,059469,001,2024-07-01_23h23.38.799,5-28,2024.1.4,None,2024-07-01 23h23.43.903317 +0900,
,,,,,,,,,,,,,,,,,,,,,,,,,,0.6837541249988135,0.7393527080021158,5.678315375000238,5.6882467496655105,5.678315375000238,5.731998291001219,10.688013416667916,15.665467499999068,15.665467499999068,15.688475208000455,15.697716124668903,15.688475208000455,20.689535082667376,25.682018874998903,25.683302332665576,25.682018874998903,25.68629108300229,25.68629108300229,30.68275049966566,35.676003166001465,35.676003166001465,35.676003166001465,35.687680166666055,35.676003166001465,40.68765145766544,45.66848912500063,45.66848912500063,45.66532916600045,,,,,,,,,059469,001,2024-07-01_23h23.38.799,5-28,2024.1.4,None,2024-07-01 23h23.43.903317 +0900,
,,,,,,,,,,,,,,,,,,,,,,,,,,,,,,,,,,,,,,,,,,,,,,,,,,,,,,45.66535295799986,45.68286091600021,90.99843133299873,46.66906695800208,,,,,059469,001,2024-07-01_23h23.38.799,5-28,2024.1.4,None,2024-07-01 23h23.43.903317 +0900,
,,,,,,,,,,,,,,,,,,,,,,,,,,,,,,,,,,,,,,,,,,,,,,,,,,,,,,,,,,46.66907983300189,46.66926195799897,,,059469,001,2024-07-01_23h23.38.799,5-28,2024.1.4,None,2024-07-01 23h23.43.903317 +0900,
Images/Speaker1.jpg,Images/Speaker2.jpg,Images/Speaker3.jpg,Images/Speaker4.jpg,Audio/Speaker2_Per/P2-18-Per.wav,Speaker2,گوینده۲,0,0,0,37,,,,,90.99843133299873,,,,,,,,,,,,,,,,,,,,,,,,,,,,,,,,,,,,,,,,,,,,,46.72011720800219,46.72046754099938,059469,001,2024-07-01_23h23.38.799,5-28,2024.1.4,None,2024-07-01 23h23.43.903317 +0900,
Images/Speaker1.jpg,Images/Speaker2.jpg,Images/Speaker3.jpg,Images/Speaker4.jpg,Audio/Speaker3_Per/P3-10-Per.wav,Speaker3,گوینده۳,0,1,1,49,,,,,90.99843133299873,,,,,,,,,,,,,,,,,,,,,,,,,,,,,,,,,,,,,,,,,,,,,46.73868420800136,46.738949124999635,059469,001,2024-07-01_23h23.38.799,5-28,2024.1.4,None,2024-07-01 23h23.43.903317 +0900,
Images/Speaker1.jpg,Images/Speaker2.jpg,Images/Speaker3.jpg,Images/Speaker4.jpg,Audio/Speaker1_Per/P1-7-Per.wav,Speaker1,گوینده ۱,0,2,2,6,,,,,90.99843133299873,,,,,,,,,,,,,,,,,,,,,,,,,,,,,,,,,,,,,,,,,,,,,46.756851500002085,46.757077582999045,059469,001,2024-07-01_23h23.38.799,5-28,2024.1.4,None,2024-07-01 23h23.43.903317 +0900,
Images/Speaker1.jpg,Images/Speaker2.jpg,Images/Speaker3.jpg,Images/Speaker4.jpg,Audio/Speaker2_Per/P2-16-Per.wav,Speaker2,گوینده۲,0,3,3,35,,,,,90.99843133299873,,,,,,,,,,,,,,,,,,,,,,,,,,,,,,,,,,,,,,,,,,,,,46.77354008299881,46.773723541002255,059469,001,2024-07-01_23h23.38.799,5-28,2024.1.4,None,2024-07-01 23h23.43.903317 +0900,
Images/Speaker1.jpg,Images/Speaker2.jpg,Images/Speaker3.jpg,Images/Speaker4.jpg,Audio/Speaker1_Per/P1-19-Per.wav,Speaker1,گوینده ۱,0,4,4,18,,,,,90.99843133299873,,,,,,,,,,,,,,,,,,,,,,,,,,,,,,,,,,,,,,,,,,,,,46.78970570800084,46.78986437500134,059469,001,2024-07-01_23h23.38.799,5-28,2024.1.4,None,2024-07-01 23h23.43.903317 +0900,
Images/Speaker1.jpg,Images/Speaker2.jpg,Images/Speaker3.jpg,Images/Speaker4.jpg,Audio/Speaker3_Per/P3-20-Per.wav,Speaker3,گوینده۳,0,5,5,59,,,,,90.99843133299873,,,,,,,,,,,,,,,,,,,,,,,,,,,,,,,,,,,,,,,,,,,,,46.8061021249996,46.8063325410003,059469,001,2024-07-01_23h23.38.799,5-28,2024.1.4,None,2024-07-01 23h23.43.903317 +0900,
Images/Speaker1.jpg,Images/Speaker2.jpg,Images/Speaker3.jpg,Images/Speaker4.jpg,Audio/Speaker1_Per/P1-17-Per.wav,Speaker1,گوینده ۱,0,6,6,16,,,,,90.99843133299873,,,,,,,,,,,,,,,,,,,,,,,,,,,,,,,,,,,,,,,,,,,,,46.822669458000746,46.822856499999034,059469,001,2024-07-01_23h23.38.799,5-28,2024.1.4,None,2024-07-01 23h23.43.903317 +0900,
Images/Speaker1.jpg,Images/Speaker2.jpg,Images/Speaker3.jpg,Images/Speaker4.jpg,Audio/Speaker4_Per/P4-6-Per.wav,Speaker4,گوینده۴,0,7,7,65,,,,,90.99843133299873,,,,,,,,,,,,,,,,,,,,,,,,,,,,,,,,,,,,,,,,,,,,,46.83859070800099,46.83882645799895,059469,001,2024-07-01_23h23.38.799,5-28,2024.1.4,None,2024-07-01 23h23.43.903317 +0900,
Images/Speaker1.jpg,Images/Speaker2.jpg,Images/Speaker3.jpg,Images/Speaker4.jpg,Audio/Speaker3_Per/P3-5-Per.wav,Speaker3,گوینده۳,0,8,8,44,,,,,90.99843133299873,,,,,,,,,,,,,,,,,,,,,,,,,,,,,,,,,,,,,,,,,,,,,46.85455066600116,46.854727249999996,059469,001,2024-07-01_23h23.38.799,5-28,2024.1.4,None,2024-07-01 23h23.43.903317 +0900,
Images/Speaker1.jpg,Images/Speaker2.jpg,Images/Speaker3.jpg,Images/Speaker4.jpg,Audio/Speaker1_Per/P1-1-Per.wav,Speaker1,گوینده ۱,0,9,9,0,,,,,90.99843133299873,,,,,,,,,,,,,,,,,,,,,,,,,,,,,,,,,,,,,,,,,,,,,46.870564583001396,46.870792583002185,059469,001,2024-07-01_23h23.38.799,5-28,2024.1.4,None,2024-07-01 23h23.43.903317 +0900,
Images/Speaker1.jpg,Images/Speaker2.jpg,Images/Speaker3.jpg,Images/Speaker4.jpg,Audio/Speaker2_Per/P2-3-Per.wav,Speaker2,گوینده۲,0,10,10,22,,,,,90.99843133299873,,,,,,,,,,,,,,,,,,,,,,,,,,,,,,,,,,,,,,,,,,,,,46.887300458001846,46.88746850000098,059469,001,2024-07-01_23h23.38.799,5-28,2024.1.4,None,2024-07-01 23h23.43.903317 +0900,
Images/Speaker1.jpg,Images/Speaker2.jpg,Images/Speaker3.jpg,Images/Speaker4.jpg,Audio/Speaker4_Per/P4-20-Per.wav,Speaker4,گوینده۴,0,11,11,79,,,,,90.99843133299873,,,,,,,,,,,,,,,,,,,,,,,,,,,,,,,,,,,,,,,,,,,,,46.90324966600019,46.903415916000085,059469,001,2024-07-01_23h23.38.799,5-28,2024.1.4,None,2024-07-01 23h23.43.903317 +0900,
Images/Speaker1.jpg,Images/Speaker2.jpg,Images/Speaker3.jpg,Images/Speaker4.jpg,Audio/Speaker4_Per/P4-2-Per.wav,Speaker4,گوینده۴,0,12,12,61,,,,,90.99843133299873,,,,,,,,,,,,,,,,,,,,,,,,,,,,,,,,,,,,,,,,,,,,,46.919184041002154,46.9193540410015,059469,001,2024-07-01_23h23.38.799,5-28,2024.1.4,None,2024-07-01 23h23.43.903317 +0900,
Images/Speaker1.jpg,Images/Speaker2.jpg,Images/Speaker3.jpg,Images/Speaker4.jpg,Audio/Speaker1_Per/P1-4-Per.wav,Speaker1,گوینده ۱,0,13,13,13,,,,,90.99843133299873,,,,,,,,,,,,,,,,,,,,,,,,,,,,,,,,,,,,,,,,,,,,,46.93498258299951,46.935144499999296,059469,001,2024-07-01_23h23.38.799,5-28,2024.1.4,None,2024-07-01 23h23.43.903317 +0900,
Images/Speaker1.jpg,Images/Speaker2.jpg,Images/Speaker3.jpg,Images/Speaker4.jpg,Audio/Speaker4_Per/P4-12-Per.wav,Speaker4,گوینده۴,0,14,14,71,,,,,90.99843133299873,,,,,,,,,,,,,,,,,,,,,,,,,,,,,,,,,,,,,,,,,,,,,46.95174987499922,46.95192454100106,059469,001,2024-07-01_23h23.38.799,5-28,2024.1.4,None,2024-07-01 23h23.43.903317 +0900,
Images/Speaker1.jpg,Images/Speaker2.jpg,Images/Speaker3.jpg,Images/Speaker4.jpg,Audio/Speaker4_Per/P4-5-Per.wav,Speaker4,گوینده۴,0,15,15,64,,,,,90.99843133299873,,,,,,,,,,,,,,,,,,,,,,,,,,,,,,,,,,,,,,,,,,,,,46.9678051660012,46.96798325000054,059469,001,2024-07-01_23h23.38.799,5-28,2024.1.4,None,2024-07-01 23h23.43.903317 +0900,
Images/Speaker1.jpg,Images/Speaker2.jpg,Images/Speaker3.jpg,Images/Speaker4.jpg,Audio/Speaker4_Per/P4-18-Per.wav,Speaker4,گوینده۴,0,16,16,77,,,,,90.99843133299873,,,,,,,,,,,,,,,,,,,,,,,,,,,,,,,,,,,,,,,,,,,,,46.98376574999929,46.98393904100158,059469,001,2024-07-01_23h23.38.799,5-28,2024.1.4,None,2024-07-01 23h23.43.903317 +0900,
Images/Speaker1.jpg,Images/Speaker2.jpg,Images/Speaker3.jpg,Images/Speaker4.jpg,Audio/Speaker3_Per/P3-3-Per.wav,Speaker3,گوینده۳,0,17,17,42,,,,,90.99843133299873,,,,,,,,,,,,,,,,,,,,,,,,,,,,,,,,,,,,,,,,,,,,,46.99969549999878,46.99991745800071,059469,001,2024-07-01_23h23.38.799,5-28,2024.1.4,None,2024-07-01 23h23.43.903317 +0900,
Images/Speaker1.jpg,Images/Speaker2.jpg,Images/Speaker3.jpg,Images/Speaker4.jpg,Audio/Speaker4_Per/P4-11-Per.wav,Speaker4,گوینده۴,0,18,18,70,,,,,90.99843133299873,,,,,,,,,,,,,,,,,,,,,,,,,,,,,,,,,,,,,,,,,,,,,47.0163172499997,47.016484832998685,059469,001,2024-07-01_23h23.38.799,5-28,2024.1.4,None,2024-07-01 23h23.43.903317 +0900,
Images/Speaker1.jpg,Images/Speaker2.jpg,Images/Speaker3.jpg,Images/Speaker4.jpg,Audio/Speaker1_Per/P1-8-Per.wav,Speaker1,گوینده ۱,0,19,19,7,,,,,90.99843133299873,,,,,,,,,,,,,,,,,,,,,,,,,,,,,,,,,,,,,,,,,,,,,47.03230979100044,47.03247375000137,059469,001,2024-07-01_23h23.38.799,5-28,2024.1.4,None,2024-07-01 23h23.43.903317 +0900,
Images/Speaker1.jpg,Images/Speaker2.jpg,Images/Speaker3.jpg,Images/Speaker4.jpg,Audio/Speaker2_Per/P2-7-Per.wav,Speaker2,گوینده۲,0,20,20,26,,,,,90.99843133299873,,,,,,,,,,,,,,,,,,,,,,,,,,,,,,,,,,,,,,,,,,,,,47.048189625002124,47.048355457998696,059469,001,2024-07-01_23h23.38.799,5-28,2024.1.4,None,2024-07-01 23h23.43.903317 +0900,
Images/Speaker1.jpg,Images/Speaker2.jpg,Images/Speaker3.jpg,Images/Speaker4.jpg,Audio/Speaker4_Per/P4-9-Per.wav,Speaker4,گوینده۴,0,21,21,68,,,,,90.99843133299873,,,,,,,,,,,,,,,,,,,,,,,,,,,,,,,,,,,,,,,,,,,,,47.06400270800077,47.06418158300221,059469,001,2024-07-01_23h23.38.799,5-28,2024.1.4,None,2024-07-01 23h23.43.903317 +0900,
Images/Speaker1.jpg,Images/Speaker2.jpg,Images/Speaker3.jpg,Images/Speaker4.jpg,Audio/Speaker2_Per/P2-19-Per.wav,Speaker2,گوینده۲,0,22,22,38,,,,,90.99843133299873,,,,,,,,,,,,,,,,,,,,,,,,,,,,,,,,,,,,,,,,,,,,,47.08067091599878,47.08084795800096,059469,001,2024-07-01_23h23.38.799,5-28,2024.1.4,None,2024-07-01 23h23.43.903317 +0900,
Images/Speaker1.jpg,Images/Speaker2.jpg,Images/Speaker3.jpg,Images/Speaker4.jpg,Audio/Speaker4_Per/P4-13-Per.wav,Speaker4,گوینده۴,0,23,23,72,,,,,90.99843133299873,,,,,,,,,,,,,,,,,,,,,,,,,,,,,,,,,,,,,,,,,,,,,47.09661870800119,47.09677958300017,059469,001,2024-07-01_23h23.38.799,5-28,2024.1.4,None,2024-07-01 23h23.43.903317 +0900,
Images/Speaker1.jpg,Images/Speaker2.jpg,Images/Speaker3.jpg,Images/Speaker4.jpg,Audio/Speaker3_Per/P3-14-Per.wav,Speaker3,گوینده۳,0,24,24,53,,,,,90.99843133299873,,,,,,,,,,,,,,,,,,,,,,,,,,,,,,,,,,,,,,,,,,,,,47.112550875001034,47.112720583001646,059469,001,2024-07-01_23h23.38.799,5-28,2024.1.4,None,2024-07-01 23h23.43.903317 +0900,
Images/Speaker1.jpg,Images/Speaker2.jpg,Images/Speaker3.jpg,Images/Speaker4.jpg,Audio/Speaker3_Per/P3-17-Per.wav,Speaker3,گوینده۳,0,25,25,56,,,,,90.99843133299873,,,,,,,,,,,,,,,,,,,,,,,,,,,,,,,,,,,,,,,,,,,,,47.128507125002216,47.12866770799883,059469,001,2024-07-01_23h23.38.799,5-28,2024.1.4,None,2024-07-01 23h23.43.903317 +0900,
Images/Speaker1.jpg,Images/Speaker2.jpg,Images/Speaker3.jpg,Images/Speaker4.jpg,Audio/Speaker1_Per/P1-5-Per.wav,Speaker1,گوینده ۱,0,26,26,4,,,,,90.99843133299873,,,,,,,,,,,,,,,,,,,,,,,,,,,,,,,,,,,,,,,,,,,,,47.14521783300006,47.14538008300224,059469,001,2024-07-01_23h23.38.799,5-28,2024.1.4,None,2024-07-01 23h23.43.903317 +0900,
Images/Speaker1.jpg,Images/Speaker2.jpg,Images/Speaker3.jpg,Images/Speaker4.jpg,Audio/Speaker1_Per/P1-2-Per.wav,Speaker1,گوینده ۱,0,27,27,1,,,,,90.99843133299873,,,,,,,,,,,,,,,,,,,,,,,,,,,,,,,,,,,,,,,,,,,,,47.16109645799952,47.16127383300045,059469,001,2024-07-01_23h23.38.799,5-28,2024.1.4,None,2024-07-01 23h23.43.903317 +0900,
Images/Speaker1.jpg,Images/Speaker2.jpg,Images/Speaker3.jpg,Images/Speaker4.jpg,Audio/Speaker1_Per/P1-16-Per.wav,Speaker1,گوینده ۱,0,28,28,15,,,,,90.99843133299873,,,,,,,,,,,,,,,,,,,,,,,,,,,,,,,,,,,,,,,,,,,,,47.17702237499907,47.17717879100019,059469,001,2024-07-01_23h23.38.799,5-28,2024.1.4,None,2024-07-01 23h23.43.903317 +0900,
Images/Speaker1.jpg,Images/Speaker2.jpg,Images/Speaker3.jpg,Images/Speaker4.jpg,Audio/Speaker2_Per/P2-13-Per.wav,Speaker2,گوینده۲,0,29,29,32,,,,,90.99843133299873,,,,,,,,,,,,,,,,,,,,,,,,,,,,,,,,,,,,,,,,,,,,,47.19282258300154,47.192970291001984,059469,001,2024-07-01_23h23.38.799,5-28,2024.1.4,None,2024-07-01 23h23.43.903317 +0900,
Images/Speaker1.jpg,Images/Speaker2.jpg,Images/Speaker3.jpg,Images/Speaker4.jpg,Audio/Speaker3_Per/P3-12-Per.wav,Speaker3,گوینده۳,0,30,30,51,,,,,90.99843133299873,,,,,,,,,,,,,,,,,,,,,,,,,,,,,,,,,,,,,,,,,,,,,47.209314125000674,47.20947508300014,059469,001,2024-07-01_23h23.38.799,5-28,2024.1.4,None,2024-07-01 23h23.43.903317 +0900,
Images/Speaker1.jpg,Images/Speaker2.jpg,Images/Speaker3.jpg,Images/Speaker4.jpg,Audio/Speaker4_Per/P4-16-Per.wav,Speaker4,گوینده۴,0,31,31,75,,,,,90.99843133299873,,,,,,,,,,,,,,,,,,,,,,,,,,,,,,,,,,,,,,,,,,,,,47.225167166001484,47.22533800000019,059469,001,2024-07-01_23h23.38.799,5-28,2024.1.4,None,2024-07-01 23h23.43.903317 +0900,
Images/Speaker1.jpg,Images/Speaker2.jpg,Images/Speaker3.jpg,Images/Speaker4.jpg,Audio/Speaker4_Per/P4-10-Per.wav,Speaker4,گوینده۴,0,32,32,69,,,,,90.99843133299873,,,,,,,,,,,,,,,,,,,,,,,,,,,,,,,,,,,,,,,,,,,,,47.24109362500167,47.241253750002215,059469,001,2024-07-01_23h23.38.799,5-28,2024.1.4,None,2024-07-01 23h23.43.903317 +0900,
Images/Speaker1.jpg,Images/Speaker2.jpg,Images/Speaker3.jpg,Images/Speaker4.jpg,Audio/Speaker1_Per/P1-4-Per.wav,Speaker1,گوینده ۱,0,33,33,3,,,,,90.99843133299873,,,,,,,,,,,,,,,,,,,,,,,,,,,,,,,,,,,,,,,,,,,,,47.25697874999969,47.257146291001845,059469,001,2024-07-01_23h23.38.799,5-28,2024.1.4,None,2024-07-01 23h23.43.903317 +0900,
Images/Speaker1.jpg,Images/Speaker2.jpg,Images/Speaker3.jpg,Images/Speaker4.jpg,Audio/Speaker1_Per/P1-13-Per.wav,Speaker1,گوینده ۱,0,34,34,12,,,,,90.99843133299873,,,,,,,,,,,,,,,,,,,,,,,,,,,,,,,,,,,,,,,,,,,,,47.27347975000157,47.273634749999474,059469,001,2024-07-01_23h23.38.799,5-28,2024.1.4,None,2024-07-01 23h23.43.903317 +0900,
Images/Speaker1.jpg,Images/Speaker2.jpg,Images/Speaker3.jpg,Images/Speaker4.jpg,Audio/Speaker1_Per/P1-12-Per.wav,Speaker1,گوینده ۱,0,35,35,11,,,,,90.99843133299873,,,,,,,,,,,,,,,,,,,,,,,,,,,,,,,,,,,,,,,,,,,,,47.28938583299896,47.28956924999875,059469,001,2024-07-01_23h23.38.799,5-28,2024.1.4,None,2024-07-01 23h23.43.903317 +0900,
Images/Speaker1.jpg,Images/Speaker2.jpg,Images/Speaker3.jpg,Images/Speaker4.jpg,Audio/Speaker3_Per/P3-8-Per.wav,Speaker3,گوینده۳,0,36,36,47,,,,,90.99843133299873,,,,,,,,,,,,,,,,,,,,,,,,,,,,,,,,,,,,,,,,,,,,,47.30538833299943,47.30559966600049,059469,001,2024-07-01_23h23.38.799,5-28,2024.1.4,None,2024-07-01 23h23.43.903317 +0900,
Images/Speaker1.jpg,Images/Speaker2.jpg,Images/Speaker3.jpg,Images/Speaker4.jpg,Audio/Speaker2_Per/P2-4-Per.wav,Speaker2,گوینده۲,0,37,37,23,,,,,90.99843133299873,,,,,,,,,,,,,,,,,,,,,,,,,,,,,,,,,,,,,,,,,,,,,47.32145049999963,47.32163833300001,059469,001,2024-07-01_23h23.38.799,5-28,2024.1.4,None,2024-07-01 23h23.43.903317 +0900,
Images/Speaker1.jpg,Images/Speaker2.jpg,Images/Speaker3.jpg,Images/Speaker4.jpg,Audio/Speaker4_Per/P4-3-Per.wav,Speaker4,گوینده۴,0,38,38,62,,,,,90.99843133299873,,,,,,,,,,,,,,,,,,,,,,,,,,,,,,,,,,,,,,,,,,,,,47.3381132909999,47.33829350000087,059469,001,2024-07-01_23h23.38.799,5-28,2024.1.4,None,2024-07-01 23h23.43.903317 +0900,
Images/Speaker1.jpg,Images/Speaker2.jpg,Images/Speaker3.jpg,Images/Speaker4.jpg,Audio/Speaker3_Per/P3-4-Per.wav,Speaker3,گوینده۳,0,39,39,43,,,,,90.99843133299873,,,,,,,,,,,,,,,,,,,,,,,,,,,,,,,,,,,,,,,,,,,,,47.353941707999184,47.35412879100113,059469,001,2024-07-01_23h23.38.799,5-28,2024.1.4,None,2024-07-01 23h23.43.903317 +0900,
Images/Speaker1.jpg,Images/Speaker2.jpg,Images/Speaker3.jpg,Images/Speaker4.jpg,Audio/Speaker2_Per/P2-6-Per.wav,Speaker2,گوینده۲,0,40,40,25,,,,,90.99843133299873,,,,,,,,,,,,,,,,,,,,,,,,,,,,,,,,,,,,,,,,,,,,,47.36987025000053,47.37005133300045,059469,001,2024-07-01_23h23.38.799,5-28,2024.1.4,None,2024-07-01 23h23.43.903317 +0900,
Images/Speaker1.jpg,Images/Speaker2.jpg,Images/Speaker3.jpg,Images/Speaker4.jpg,Audio/Speaker3_Per/P3-11-Per.wav,Speaker3,گوینده۳,0,41,41,50,,,,,90.99843133299873,,,,,,,,,,,,,,,,,,,,,,,,,,,,,,,,,,,,,,,,,,,,,47.38582312500148,47.38598816599915,059469,001,2024-07-01_23h23.38.799,5-28,2024.1.4,None,2024-07-01 23h23.43.903317 +0900,
Images/Speaker1.jpg,Images/Speaker2.jpg,Images/Speaker3.jpg,Images/Speaker4.jpg,Audio/Speaker2_Per/P2-11-Per.wav,Speaker2,گوینده۲,0,42,42,30,,,,,90.99843133299873,,,,,,,,,,,,,,,,,,,,,,,,,,,,,,,,,,,,,,,,,,,,,47.40233074999924,47.402518540999154,059469,001,2024-07-01_23h23.38.799,5-28,2024.1.4,None,2024-07-01 23h23.43.903317 +0900,
Images/Speaker1.jpg,Images/Speaker2.jpg,Images/Speaker3.jpg,Images/Speaker4.jpg,Audio/Speaker4_Per/P4-17-Per.wav,Speaker4,گوینده۴,0,43,43,76,,,,,90.99843133299873,,,,,,,,,,,,,,,,,,,,,,,,,,,,,,,,,,,,,,,,,,,,,47.418242208001175,47.41845279100016,059469,001,2024-07-01_23h23.38.799,5-28,2024.1.4,None,2024-07-01 23h23.43.903317 +0900,
Images/Speaker1.jpg,Images/Speaker2.jpg,Images/Speaker3.jpg,Images/Speaker4.jpg,Audio/Speaker3_Per/P3-19-Per.wav,Speaker3,گوینده۳,0,44,44,58,,,,,90.99843133299873,,,,,,,,,,,,,,,,,,,,,,,,,,,,,,,,,,,,,,,,,,,,,47.43421345800016,47.43439149999904,059469,001,2024-07-01_23h23.38.799,5-28,2024.1.4,None,2024-07-01 23h23.43.903317 +0900,
Images/Speaker1.jpg,Images/Speaker2.jpg,Images/Speaker3.jpg,Images/Speaker4.jpg,Audio/Speaker1_Per/P1-9-Per.wav,Speaker1,گوینده ۱,0,45,45,8,,,,,90.99843133299873,,,,,,,,,,,,,,,,,,,,,,,,,,,,,,,,,,,,,,,,,,,,,47.45020295799986,47.450379207999504,059469,001,2024-07-01_23h23.38.799,5-28,2024.1.4,None,2024-07-01 23h23.43.903317 +0900,
Images/Speaker1.jpg,Images/Speaker2.jpg,Images/Speaker3.jpg,Images/Speaker4.jpg,Audio/Speaker4_Per/P4-4-Per.wav,Speaker4,گوینده۴,0,46,46,63,,,,,90.99843133299873,,,,,,,,,,,,,,,,,,,,,,,,,,,,,,,,,,,,,,,,,,,,,47.466675708001276,47.466848166001,059469,001,2024-07-01_23h23.38.799,5-28,2024.1.4,None,2024-07-01 23h23.43.903317 +0900,
Images/Speaker1.jpg,Images/Speaker2.jpg,Images/Speaker3.jpg,Images/Speaker4.jpg,Audio/Speaker2_Per/P2-10-Per.wav,Speaker2,گوینده۲,0,47,47,29,,,,,90.99843133299873,,,,,,,,,,,,,,,,,,,,,,,,,,,,,,,,,,,,,,,,,,,,,47.48260279100214,47.482775458000106,059469,001,2024-07-01_23h23.38.799,5-28,2024.1.4,None,2024-07-01 23h23.43.903317 +0900,
Images/Speaker1.jpg,Images/Speaker2.jpg,Images/Speaker3.jpg,Images/Speaker4.jpg,Audio/Speaker3_Per/P3-6-Per.wav,Speaker3,گوینده۳,0,48,48,45,,,,,90.99843133299873,,,,,,,,,,,,,,,,,,,,,,,,,,,,,,,,,,,,,,,,,,,,,47.49847824999961,47.49862487499922,059469,001,2024-07-01_23h23.38.799,5-28,2024.1.4,None,2024-07-01 23h23.43.903317 +0900,
Images/Speaker1.jpg,Images/Speaker2.jpg,Images/Speaker3.jpg,Images/Speaker4.jpg,Audio/Speaker4_Per/P4-14-Per.wav,Speaker4,گوینده۴,0,49,49,73,,,,,90.99843133299873,,,,,,,,,,,,,,,,,,,,,,,,,,,,,,,,,,,,,,,,,,,,,47.51440370799901,47.514575249999325,059469,001,2024-07-01_23h23.38.799,5-28,2024.1.4,None,2024-07-01 23h23.43.903317 +0900,
Images/Speaker1.jpg,Images/Speaker2.jpg,Images/Speaker3.jpg,Images/Speaker4.jpg,Audio/Speaker2_Per/P2-1-Per.wav,Speaker2,گوینده۲,0,50,50,20,,,,,90.99843133299873,,,,,,,,,,,,,,,,,,,,,,,,,,,,,,,,,,,,,,,,,,,,,47.53094654099914,47.5311195409995,059469,001,2024-07-01_23h23.38.799,5-28,2024.1.4,None,2024-07-01 23h23.43.903317 +0900,
Images/Speaker1.jpg,Images/Speaker2.jpg,Images/Speaker3.jpg,Images/Speaker4.jpg,Audio/Speaker1_Per/P1-20-Per.wav,Speaker1,گوینده ۱,0,51,51,19,,,,,90.99843133299873,,,,,,,,,,,,,,,,,,,,,,,,,,,,,,,,,,,,,,,,,,,,,47.546882665999874,47.54705816600108,059469,001,2024-07-01_23h23.38.799,5-28,2024.1.4,None,2024-07-01 23h23.43.903317 +0900,
Images/Speaker1.jpg,Images/Speaker2.jpg,Images/Speaker3.jpg,Images/Speaker4.jpg,Audio/Speaker4_Per/P4-1-Per.wav,Speaker4,گوینده۴,0,52,52,60,,,,,90.99843133299873,,,,,,,,,,,,,,,,,,,,,,,,,,,,,,,,,,,,,,,,,,,,,47.56282608300171,47.56299108299936,059469,001,2024-07-01_23h23.38.799,5-28,2024.1.4,None,2024-07-01 23h23.43.903317 +0900,
Images/Speaker1.jpg,Images/Speaker2.jpg,Images/Speaker3.jpg,Images/Speaker4.jpg,Audio/Speaker1_Per/P1-6-Per.wav,Speaker1,گوینده ۱,0,53,53,5,,,,,90.99843133299873,,,,,,,,,,,,,,,,,,,,,,,,,,,,,,,,,,,,,,,,,,,,,47.578852665999875,47.57902066600218,059469,001,2024-07-01_23h23.38.799,5-28,2024.1.4,None,2024-07-01 23h23.43.903317 +0900,
Images/Speaker1.jpg,Images/Speaker2.jpg,Images/Speaker3.jpg,Images/Speaker4.jpg,Audio/Speaker2_Per/P2-15-Per.wav,Speaker2,گوینده۲,0,54,54,34,,,,,90.99843133299873,,,,,,,,,,,,,,,,,,,,,,,,,,,,,,,,,,,,,,,,,,,,,47.595460083000944,47.59563975000128,059469,001,2024-07-01_23h23.38.799,5-28,2024.1.4,None,2024-07-01 23h23.43.903317 +0900,
Images/Speaker1.jpg,Images/Speaker2.jpg,Images/Speaker3.jpg,Images/Speaker4.jpg,Audio/Speaker4_Per/P4-8-Per.wav,Speaker4,گوینده۴,0,55,55,67,,,,,90.99843133299873,,,,,,,,,,,,,,,,,,,,,,,,,,,,,,,,,,,,,,,,,,,,,47.611406708001596,47.61157233300037,059469,001,2024-07-01_23h23.38.799,5-28,2024.1.4,None,2024-07-01 23h23.43.903317 +0900,
Images/Speaker1.jpg,Images/Speaker2.jpg,Images/Speaker3.jpg,Images/Speaker4.jpg,Audio/Speaker2_Per/P2-20-Per.wav,Speaker2,گوینده۲,0,56,56,39,,,,,90.99843133299873,,,,,,,,,,,,,,,,,,,,,,,,,,,,,,,,,,,,,,,,,,,,,47.627509375000955,47.62771537500157,059469,001,2024-07-01_23h23.38.799,5-28,2024.1.4,None,2024-07-01 23h23.43.903317 +0900,
Images/Speaker1.jpg,Images/Speaker2.jpg,Images/Speaker3.jpg,Images/Speaker4.jpg,Audio/Speaker4_Per/P4-7-Per.wav,Speaker4,گوینده۴,0,57,57,66,,,,,90.99843133299873,,,,,,,,,,,,,,,,,,,,,,,,,,,,,,,,,,,,,,,,,,,,,47.643420166001306,47.64358033299868,059469,001,2024-07-01_23h23.38.799,5-28,2024.1.4,None,2024-07-01 23h23.43.903317 +0900,
Images/Speaker1.jpg,Images/Speaker2.jpg,Images/Speaker3.jpg,Images/Speaker4.jpg,Audio/Speaker2_Per/P2-8-Per.wav,Speaker2,گوینده۲,0,58,58,27,,,,,90.99843133299873,,,,,,,,,,,,,,,,,,,,,,,,,,,,,,,,,,,,,,,,,,,,,47.65986983300172,47.66006216599999,059469,001,2024-07-01_23h23.38.799,5-28,2024.1.4,None,2024-07-01 23h23.43.903317 +0900,
Images/Speaker1.jpg,Images/Speaker2.jpg,Images/Speaker3.jpg,Images/Speaker4.jpg,Audio/Speaker3_Per/P3-1-Per.wav,Speaker3,گوینده۳,0,59,59,40,,,,,90.99843133299873,,,,,,,,,,,,,,,,,,,,,,,,,,,,,,,,,,,,,,,,,,,,,47.67580575000102,47.67597987499903,059469,001,2024-07-01_23h23.38.799,5-28,2024.1.4,None,2024-07-01 23h23.43.903317 +0900,
Images/Speaker1.jpg,Images/Speaker2.jpg,Images/Speaker3.jpg,Images/Speaker4.jpg,Audio/Speaker3_Per/P3-9-Per.wav,Speaker3,گوینده۳,0,60,60,48,,,,,90.99843133299873,,,,,,,,,,,,,,,,,,,,,,,,,,,,,,,,,,,,,,,,,,,,,47.6917305829993,47.69189800000095,059469,001,2024-07-01_23h23.38.799,5-28,2024.1.4,None,2024-07-01 23h23.43.903317 +0900,
Images/Speaker1.jpg,Images/Speaker2.jpg,Images/Speaker3.jpg,Images/Speaker4.jpg,Audio/Speaker3_Per/P3-15-Per.wav,Speaker3,گوینده۳,0,61,61,54,,,,,90.99843133299873,,,,,,,,,,,,,,,,,,,,,,,,,,,,,,,,,,,,,,,,,,,,,47.70761024999956,47.707793333000154,059469,001,2024-07-01_23h23.38.799,5-28,2024.1.4,None,2024-07-01 23h23.43.903317 +0900,
Images/Speaker1.jpg,Images/Speaker2.jpg,Images/Speaker3.jpg,Images/Speaker4.jpg,Audio/Speaker2_Per/P2-9-Per.wav,Speaker2,گوینده۲,0,62,62,28,,,,,90.99843133299873,,,,,,,,,,,,,,,,,,,,,,,,,,,,,,,,,,,,,,,,,,,,,47.72414029100037,47.724302208000154,059469,001,2024-07-01_23h23.38.799,5-28,2024.1.4,None,2024-07-01 23h23.43.903317 +0900,
Images/Speaker1.jpg,Images/Speaker2.jpg,Images/Speaker3.jpg,Images/Speaker4.jpg,Audio/Speaker1_Per/P1-11-Per.wav,Speaker1,گوینده ۱,0,63,63,10,,,,,90.99843133299873,,,,,,,,,,,,,,,,,,,,,,,,,,,,,,,,,,,,,,,,,,,,,47.740052625002136,47.74027112499971,059469,001,2024-07-01_23h23.38.799,5-28,2024.1.4,None,2024-07-01 23h23.43.903317 +0900,
Images/Speaker1.jpg,Images/Speaker2.jpg,Images/Speaker3.jpg,Images/Speaker4.jpg,Audio/Speaker3_Per/P3-2-Per.wav,Speaker3,گوینده۳,0,64,64,41,,,,,90.99843133299873,,,,,,,,,,,,,,,,,,,,,,,,,,,,,,,,,,,,,,,,,,,,,47.75604820800072,47.756235332999495,059469,001,2024-07-01_23h23.38.799,5-28,2024.1.4,None,2024-07-01 23h23.43.903317 +0900,
Images/Speaker1.jpg,Images/Speaker2.jpg,Images/Speaker3.jpg,Images/Speaker4.jpg,Audio/Speaker2_Per/P2-14-Per.wav,Speaker2,گوینده۲,0,65,65,33,,,,,90.99843133299873,,,,,,,,,,,,,,,,,,,,,,,,,,,,,,,,,,,,,,,,,,,,,47.77181633299915,47.77197983299993,059469,001,2024-07-01_23h23.38.799,5-28,2024.1.4,None,2024-07-01 23h23.43.903317 +0900,
Images/Speaker1.jpg,Images/Speaker2.jpg,Images/Speaker3.jpg,Images/Speaker4.jpg,Audio/Speaker3_Per/P3-18-Per.wav,Speaker3,گوینده۳,0,66,66,57,,,,,90.99843133299873,,,,,,,,,,,,,,,,,,,,,,,,,,,,,,,,,,,,,,,,,,,,,47.78826837499946,47.78844079099872,059469,001,2024-07-01_23h23.38.799,5-28,2024.1.4,None,2024-07-01 23h23.43.903317 +0900,
Images/Speaker1.jpg,Images/Speaker2.jpg,Images/Speaker3.jpg,Images/Speaker4.jpg,Audio/Speaker3_Per/P3-16-Per.wav,Speaker3,گوینده۳,0,67,67,55,,,,,90.99843133299873,,,,,,,,,,,,,,,,,,,,,,,,,,,,,,,,,,,,,,,,,,,,,47.804223625000304,47.8043973749991,059469,001,2024-07-01_23h23.38.799,5-28,2024.1.4,None,2024-07-01 23h23.43.903317 +0900,
Images/Speaker1.jpg,Images/Speaker2.jpg,Images/Speaker3.jpg,Images/Speaker4.jpg,Audio/Speaker2_Per/P2-12-Per.wav,Speaker2,گوینده۲,0,68,68,31,,,,,90.99843133299873,,,,,,,,,,,,,,,,,,,,,,,,,,,,,,,,,,,,,,,,,,,,,47.820099832999404,47.82027354100137,059469,001,2024-07-01_23h23.38.799,5-28,2024.1.4,None,2024-07-01 23h23.43.903317 +0900,
Images/Speaker1.jpg,Images/Speaker2.jpg,Images/Speaker3.jpg,Images/Speaker4.jpg,Audio/Speaker4_Per/P4-15-Per.wav,Speaker4,گوینده۴,0,69,69,74,,,,,90.99843133299873,,,,,,,,,,,,,,,,,,,,,,,,,,,,,,,,,,,,,,,,,,,,,47.83621808300086,47.83639883300202,059469,001,2024-07-01_23h23.38.799,5-28,2024.1.4,None,2024-07-01 23h23.43.903317 +0900,
Images/Speaker1.jpg,Images/Speaker2.jpg,Images/Speaker3.jpg,Images/Speaker4.jpg,Audio/Speaker2_Per/P2-17-Per.wav,Speaker2,گوینده۲,0,70,70,36,,,,,90.99843133299873,,,,,,,,,,,,,,,,,,,,,,,,,,,,,,,,,,,,,,,,,,,,,47.852583915999276,47.8527460410005,059469,001,2024-07-01_23h23.38.799,5-28,2024.1.4,None,2024-07-01 23h23.43.903317 +0900,
Images/Speaker1.jpg,Images/Speaker2.jpg,Images/Speaker3.jpg,Images/Speaker4.jpg,Audio/Speaker1_Per/P1-10-Per.wav,Speaker1,گوینده ۱,0,71,71,9,,,,,90.99843133299873,,,,,,,,,,,,,,,,,,,,,,,,,,,,,,,,,,,,,,,,,,,,,47.86853079100183,47.86868825000056,059469,001,2024-07-01_23h23.38.799,5-28,2024.1.4,None,2024-07-01 23h23.43.903317 +0900,
Images/Speaker1.jpg,Images/Speaker2.jpg,Images/Speaker3.jpg,Images/Speaker4.jpg,Audio/Speaker2_Per/P2-5-Per.wav,Speaker2,گوینده۲,0,72,72,24,,,,,90.99843133299873,,,,,,,,,,,,,,,,,,,,,,,,,,,,,,,,,,,,,,,,,,,,,47.88453341599961,47.884759915999894,059469,001,2024-07-01_23h23.38.799,5-28,2024.1.4,None,2024-07-01 23h23.43.903317 +0900,
Images/Speaker1.jpg,Images/Speaker2.jpg,Images/Speaker3.jpg,Images/Speaker4.jpg,Audio/Speaker2_Per/P2-2-Per.wav,Speaker2,گوینده۲,0,73,73,21,,,,,90.99843133299873,,,,,,,,,,,,,,,,,,,,,,,,,,,,,,,,,,,,,,,,,,,,,47.9004105410022,47.90059891599958,059469,001,2024-07-01_23h23.38.799,5-28,2024.1.4,None,2024-07-01 23h23.43.903317 +0900,
Images/Speaker1.jpg,Images/Speaker2.jpg,Images/Speaker3.jpg,Images/Speaker4.jpg,Audio/Speaker3_Per/P3-13-Per.wav,Speaker3,گوینده۳,0,74,74,52,,,,,90.99843133299873,,,,,,,,,,,,,,,,,,,,,,,,,,,,,,,,,,,,,,,,,,,,,47.91695308300041,47.91711216600015,059469,001,2024-07-01_23h23.38.799,5-28,2024.1.4,None,2024-07-01 23h23.43.903317 +0900,
Images/Speaker1.jpg,Images/Speaker2.jpg,Images/Speaker3.jpg,Images/Speaker4.jpg,Audio/Speaker4_Per/P4-19-Per.wav,Speaker4,گوینده۴,0,75,75,78,,,,,90.99843133299873,,,,,,,,,,,,,,,,,,,,,,,,,,,,,,,,,,,,,,,,,,,,,47.93287708299977,47.93303512499915,059469,001,2024-07-01_23h23.38.799,5-28,2024.1.4,None,2024-07-01 23h23.43.903317 +0900,
Images/Speaker1.jpg,Images/Speaker2.jpg,Images/Speaker3.jpg,Images/Speaker4.jpg,Audio/Speaker1_Per/P1-3-Per.wav,Speaker1,گوینده ۱,0,76,76,2,,,,,90.99843133299873,,,,,,,,,,,,,,,,,,,,,,,,,,,,,,,,,,,,,,,,,,,,,47.94880441599889,47.94896349999908,059469,001,2024-07-01_23h23.38.799,5-28,2024.1.4,None,2024-07-01 23h23.43.903317 +0900,
Images/Speaker1.jpg,Images/Speaker2.jpg,Images/Speaker3.jpg,Images/Speaker4.jpg,Audio/Speaker3_Per/P3-7-Per.wav,Speaker3,گوینده۳,0,77,77,46,,,,,90.99843133299873,,,,,,,,,,,,,,,,,,,,,,,,,,,,,,,,,,,,,,,,,,,,,47.96459524999955,47.964768958001514,059469,001,2024-07-01_23h23.38.799,5-28,2024.1.4,None,2024-07-01 23h23.43.903317 +0900,
Images/Speaker1.jpg,Images/Speaker2.jpg,Images/Speaker3.jpg,Images/Speaker4.jpg,Audio/Speaker1_Per/P1-15-Per.wav,Speaker1,گوینده ۱,0,78,78,14,,,,,90.99843133299873,,,,,,,,,,,,,,,,,,,,,,,,,,,,,,,,,,,,,,,,,,,,,47.981099958000414,47.98127004100024,059469,001,2024-07-01_23h23.38.799,5-28,2024.1.4,None,2024-07-01 23h23.43.903317 +0900,
Images/Speaker1.jpg,Images/Speaker2.jpg,Images/Speaker3.jpg,Images/Speaker4.jpg,Audio/Speaker1_Per/P1-18-Per.wav,Speaker1,گوینده ۱,0,79,79,17,,,,,90.99843133299873,,,,,,,,,,,,,,,,,,,,,,,,,,,,,,,,,,,,,,,,,,,,,47.99700370800201,47.99719916600225,059469,001,2024-07-01_23h23.38.799,5-28,2024.1.4,None,2024-07-01 23h23.43.903317 +0900,
Images/Speaker1.jpg,Images/Speaker2.jpg,Images/Speaker3.jpg,Images/Speaker4.jpg,Audio/Speaker4_Per/P4-16-Per.wav,Speaker4,گوینده۴,1,0,80,75,,,,,90.99843133299873,,,,,,,,,,,,,,,,,,,,,,,,,,,,,,,,,,,,,,,,,,,,,48.01295395800116,48.01313766599924,059469,001,2024-07-01_23h23.38.799,5-28,2024.1.4,None,2024-07-01 23h23.43.903317 +0900,
Images/Speaker1.jpg,Images/Speaker2.jpg,Images/Speaker3.jpg,Images/Speaker4.jpg,Audio/Speaker1_Per/P1-17-Per.wav,Speaker1,گوینده ۱,1,1,81,16,,,,,90.99843133299873,,,,,,,,,,,,,,,,,,,,,,,,,,,,,,,,,,,,,,,,,,,,,48.028929250001966,48.02909616599936,059469,001,2024-07-01_23h23.38.799,5-28,2024.1.4,None,2024-07-01 23h23.43.903317 +0900,
Images/Speaker1.jpg,Images/Speaker2.jpg,Images/Speaker3.jpg,Images/Speaker4.jpg,Audio/Speaker1_Per/P1-5-Per.wav,Speaker1,گوینده ۱,1,2,82,4,,,,,90.99843133299873,,,,,,,,,,,,,,,,,,,,,,,,,,,,,,,,,,,,,,,,,,,,,48.04539412500162,48.04555674999938,059469,001,2024-07-01_23h23.38.799,5-28,2024.1.4,None,2024-07-01 23h23.43.903317 +0900,
Images/Speaker1.jpg,Images/Speaker2.jpg,Images/Speaker3.jpg,Images/Speaker4.jpg,Audio/Speaker1_Per/P1-12-Per.wav,Speaker1,گوینده ۱,1,3,83,11,,,,,90.99843133299873,,,,,,,,,,,,,,,,,,,,,,,,,,,,,,,,,,,,,,,,,,,,,48.06137716599915,48.061551165999845,059469,001,2024-07-01_23h23.38.799,5-28,2024.1.4,None,2024-07-01 23h23.43.903317 +0900,
Images/Speaker1.jpg,Images/Speaker2.jpg,Images/Speaker3.jpg,Images/Speaker4.jpg,Audio/Speaker4_Per/P4-20-Per.wav,Speaker4,گوینده۴,1,4,84,79,,,,,90.99843133299873,,,,,,,,,,,,,,,,,,,,,,,,,,,,,,,,,,,,,,,,,,,,,48.07719775000078,48.07736258300065,059469,001,2024-07-01_23h23.38.799,5-28,2024.1.4,None,2024-07-01 23h23.43.903317 +0900,
Images/Speaker1.jpg,Images/Speaker2.jpg,Images/Speaker3.jpg,Images/Speaker4.jpg,Audio/Speaker4_Per/P4-10-Per.wav,Speaker4,گوینده۴,1,5,85,69,,,,,90.99843133299873,,,,,,,,,,,,,,,,,,,,,,,,,,,,,,,,,,,,,,,,,,,,,48.09316645800209,48.09332429099959,059469,001,2024-07-01_23h23.38.799,5-28,2024.1.4,None,2024-07-01 23h23.43.903317 +0900,
Images/Speaker1.jpg,Images/Speaker2.jpg,Images/Speaker3.jpg,Images/Speaker4.jpg,Audio/Speaker2_Per/P2-18-Per.wav,Speaker2,گوینده۲,1,6,86,37,,,,,90.99843133299873,,,,,,,,,,,,,,,,,,,,,,,,,,,,,,,,,,,,,,,,,,,,,48.109787207999034,48.11002008300056,059469,001,2024-07-01_23h23.38.799,5-28,2024.1.4,None,2024-07-01 23h23.43.903317 +0900,
Images/Speaker1.jpg,Images/Speaker2.jpg,Images/Speaker3.jpg,Images/Speaker4.jpg,Audio/Speaker1_Per/P1-20-Per.wav,Speaker1,گوینده ۱,1,7,87,19,,,,,90.99843133299873,,,,,,,,,,,,,,,,,,,,,,,,,,,,,,,,,,,,,,,,,,,,,48.125808374999906,48.12597970800198,059469,001,2024-07-01_23h23.38.799,5-28,2024.1.4,None,2024-07-01 23h23.43.903317 +0900,
Images/Speaker1.jpg,Images/Speaker2.jpg,Images/Speaker3.jpg,Images/Speaker4.jpg,Audio/Speaker1_Per/P1-18-Per.wav,Speaker1,گوینده ۱,1,8,88,17,,,,,90.99843133299873,,,,,,,,,,,,,,,,,,,,,,,,,,,,,,,,,,,,,,,,,,,,,48.14184070800184,48.14205787500032,059469,001,2024-07-01_23h23.38.799,5-28,2024.1.4,None,2024-07-01 23h23.43.903317 +0900,
Images/Speaker1.jpg,Images/Speaker2.jpg,Images/Speaker3.jpg,Images/Speaker4.jpg,Audio/Speaker2_Per/P2-3-Per.wav,Speaker2,گوینده۲,1,9,89,22,,,,,90.99843133299873,,,,,,,,,,,,,,,,,,,,,,,,,,,,,,,,,,,,,,,,,,,,,48.157683458000974,48.15791833299954,059469,001,2024-07-01_23h23.38.799,5-28,2024.1.4,None,2024-07-01 23h23.43.903317 +0900,
Images/Speaker1.jpg,Images/Speaker2.jpg,Images/Speaker3.jpg,Images/Speaker4.jpg,Audio/Speaker3_Per/P3-2-Per.wav,Speaker3,گوینده۳,1,10,90,41,,,,,90.99843133299873,,,,,,,,,,,,,,,,,,,,,,,,,,,,,,,,,,,,,,,,,,,,,48.174202875001356,48.17436441600148,059469,001,2024-07-01_23h23.38.799,5-28,2024.1.4,None,2024-07-01 23h23.43.903317 +0900,
Images/Speaker1.jpg,Images/Speaker2.jpg,Images/Speaker3.jpg,Images/Speaker4.jpg,Audio/Speaker4_Per/P4-12-Per.wav,Speaker4,گوینده۴,1,11,91,71,,,,,90.99843133299873,,,,,,,,,,,,,,,,,,,,,,,,,,,,,,,,,,,,,,,,,,,,,48.19014295799934,48.19030429100167,059469,001,2024-07-01_23h23.38.799,5-28,2024.1.4,None,2024-07-01 23h23.43.903317 +0900,
Images/Speaker1.jpg,Images/Speaker2.jpg,Images/Speaker3.jpg,Images/Speaker4.jpg,Audio/Speaker3_Per/P3-11-Per.wav,Speaker3,گوینده۳,1,12,92,50,,,,,90.99843133299873,,,,,,,,,,,,,,,,,,,,,,,,,,,,,,,,,,,,,,,,,,,,,48.206069832998764,48.20624574999965,059469,001,2024-07-01_23h23.38.799,5-28,2024.1.4,None,2024-07-01 23h23.43.903317 +0900,
Images/Speaker1.jpg,Images/Speaker2.jpg,Images/Speaker3.jpg,Images/Speaker4.jpg,Audio/Speaker4_Per/P4-8-Per.wav,Speaker4,گوینده۴,1,13,93,67,,,,,90.99843133299873,,,,,,,,,,,,,,,,,,,,,,,,,,,,,,,,,,,,,,,,,,,,,48.22200874999908,48.222169374999794,059469,001,2024-07-01_23h23.38.799,5-28,2024.1.4,None,2024-07-01 23h23.43.903317 +0900,
Images/Speaker1.jpg,Images/Speaker2.jpg,Images/Speaker3.jpg,Images/Speaker4.jpg,Audio/Speaker3_Per/P3-20-Per.wav,Speaker3,گوینده۳,1,14,94,59,,,,,90.99843133299873,,,,,,,,,,,,,,,,,,,,,,,,,,,,,,,,,,,,,,,,,,,,,48.238456166000105,48.23860133299968,059469,001,2024-07-01_23h23.38.799,5-28,2024.1.4,None,2024-07-01 23h23.43.903317 +0900,
Images/Speaker1.jpg,Images/Speaker2.jpg,Images/Speaker3.jpg,Images/Speaker4.jpg,Audio/Speaker2_Per/P2-5-Per.wav,Speaker2,گوینده۲,1,15,95,24,,,,,90.99843133299873,,,,,,,,,,,,,,,,,,,,,,,,,,,,,,,,,,,,,,,,,,,,,48.25439704100063,48.254544833002,059469,001,2024-07-01_23h23.38.799,5-28,2024.1.4,None,2024-07-01 23h23.43.903317 +0900,
Images/Speaker1.jpg,Images/Speaker2.jpg,Images/Speaker3.jpg,Images/Speaker4.jpg,Audio/Speaker2_Per/P2-17-Per.wav,Speaker2,گوینده۲,1,16,96,36,,,,,90.99843133299873,,,,,,,,,,,,,,,,,,,,,,,,,,,,,,,,,,,,,,,,,,,,,48.27029550000225,48.27046529099971,059469,001,2024-07-01_23h23.38.799,5-28,2024.1.4,None,2024-07-01 23h23.43.903317 +0900,
Images/Speaker1.jpg,Images/Speaker2.jpg,Images/Speaker3.jpg,Images/Speaker4.jpg,Audio/Speaker3_Per/P3-19-Per.wav,Speaker3,گوینده۳,1,17,97,58,,,,,90.99843133299873,,,,,,,,,,,,,,,,,,,,,,,,,,,,,,,,,,,,,,,,,,,,,48.28611074999935,48.28632574999938,059469,001,2024-07-01_23h23.38.799,5-28,2024.1.4,None,2024-07-01 23h23.43.903317 +0900,
Images/Speaker1.jpg,Images/Speaker2.jpg,Images/Speaker3.jpg,Images/Speaker4.jpg,Audio/Speaker1_Per/P1-8-Per.wav,Speaker1,گوینده ۱,1,18,98,7,,,,,90.99843133299873,,,,,,,,,,,,,,,,,,,,,,,,,,,,,,,,,,,,,,,,,,,,,48.30256791600186,48.302724207998835,059469,001,2024-07-01_23h23.38.799,5-28,2024.1.4,None,2024-07-01 23h23.43.903317 +0900,
Images/Speaker1.jpg,Images/Speaker2.jpg,Images/Speaker3.jpg,Images/Speaker4.jpg,Audio/Speaker4_Per/P4-17-Per.wav,Speaker4,گوینده۴,1,19,99,76,,,,,90.99843133299873,,,,,,,,,,,,,,,,,,,,,,,,,,,,,,,,,,,,,,,,,,,,,48.318529500000295,48.318724208002095,059469,001,2024-07-01_23h23.38.799,5-28,2024.1.4,None,2024-07-01 23h23.43.903317 +0900,
Images/Speaker1.jpg,Images/Speaker2.jpg,Images/Speaker3.jpg,Images/Speaker4.jpg,Audio/Speaker1_Per/P1-10-Per.wav,Speaker1,گوینده ۱,1,20,100,9,,,,,90.99843133299873,,,,,,,,,,,,,,,,,,,,,,,,,,,,,,,,,,,,,,,,,,,,,48.33450991599966,48.33467058300084,059469,001,2024-07-01_23h23.38.799,5-28,2024.1.4,None,2024-07-01 23h23.43.903317 +0900,
Images/Speaker1.jpg,Images/Speaker2.jpg,Images/Speaker3.jpg,Images/Speaker4.jpg,Audio/Speaker1_Per/P1-7-Per.wav,Speaker1,گوینده ۱,1,21,101,6,,,,,90.99843133299873,,,,,,,,,,,,,,,,,,,,,,,,,,,,,,,,,,,,,,,,,,,,,48.350431124999886,48.35060479100139,059469,001,2024-07-01_23h23.38.799,5-28,2024.1.4,None,2024-07-01 23h23.43.903317 +0900,
Images/Speaker1.jpg,Images/Speaker2.jpg,Images/Speaker3.jpg,Images/Speaker4.jpg,Audio/Speaker3_Per/P3-1-Per.wav,Speaker3,گوینده۳,1,22,102,40,,,,,90.99843133299873,,,,,,,,,,,,,,,,,,,,,,,,,,,,,,,,,,,,,,,,,,,,,48.366898749998654,48.367067625000345,059469,001,2024-07-01_23h23.38.799,5-28,2024.1.4,None,2024-07-01 23h23.43.903317 +0900,
Images/Speaker1.jpg,Images/Speaker2.jpg,Images/Speaker3.jpg,Images/Speaker4.jpg,Audio/Speaker3_Per/P3-5-Per.wav,Speaker3,گوینده۳,1,23,103,44,,,,,90.99843133299873,,,,,,,,,,,,,,,,,,,,,,,,,,,,,,,,,,,,,,,,,,,,,48.38284562500121,48.38304508299916,059469,001,2024-07-01_23h23.38.799,5-28,2024.1.4,None,2024-07-01 23h23.43.903317 +0900,
Images/Speaker1.jpg,Images/Speaker2.jpg,Images/Speaker3.jpg,Images/Speaker4.jpg,Audio/Speaker3_Per/P3-12-Per.wav,Speaker3,گوینده۳,1,24,104,51,,,,,90.99843133299873,,,,,,,,,,,,,,,,,,,,,,,,,,,,,,,,,,,,,,,,,,,,,48.398764333000145,48.39895229100148,059469,001,2024-07-01_23h23.38.799,5-28,2024.1.4,None,2024-07-01 23h23.43.903317 +0900,
Images/Speaker1.jpg,Images/Speaker2.jpg,Images/Speaker3.jpg,Images/Speaker4.jpg,Audio/Speaker2_Per/P2-12-Per.wav,Speaker2,گوینده۲,1,25,105,31,,,,,90.99843133299873,,,,,,,,,,,,,,,,,,,,,,,,,,,,,,,,,,,,,,,,,,,,,48.41467791600007,48.41486004100079,059469,001,2024-07-01_23h23.38.799,5-28,2024.1.4,None,2024-07-01 23h23.43.903317 +0900,
Images/Speaker1.jpg,Images/Speaker2.jpg,Images/Speaker3.jpg,Images/Speaker4.jpg,Audio/Speaker1_Per/P1-16-Per.wav,Speaker1,گوینده ۱,1,26,106,15,,,,,90.99843133299873,,,,,,,,,,,,,,,,,,,,,,,,,,,,,,,,,,,,,,,,,,,,,48.43125808300101,48.43142879100196,059469,001,2024-07-01_23h23.38.799,5-28,2024.1.4,None,2024-07-01 23h23.43.903317 +0900,
Images/Speaker1.jpg,Images/Speaker2.jpg,Images/Speaker3.jpg,Images/Speaker4.jpg,Audio/Speaker1_Per/P1-6-Per.wav,Speaker1,گوینده ۱,1,27,107,5,,,,,90.99843133299873,,,,,,,,,,,,,,,,,,,,,,,,,,,,,,,,,,,,,,,,,,,,,48.44712499999878,48.44728212500195,059469,001,2024-07-01_23h23.38.799,5-28,2024.1.4,None,2024-07-01 23h23.43.903317 +0900,
Images/Speaker1.jpg,Images/Speaker2.jpg,Images/Speaker3.jpg,Images/Speaker4.jpg,Audio/Speaker2_Per/P2-10-Per.wav,Speaker2,گوینده۲,1,28,108,29,,,,,90.99843133299873,,,,,,,,,,,,,,,,,,,,,,,,,,,,,,,,,,,,,,,,,,,,,48.463086874999135,48.4632953750006,059469,001,2024-07-01_23h23.38.799,5-28,2024.1.4,None,2024-07-01 23h23.43.903317 +0900,
Images/Speaker1.jpg,Images/Speaker2.jpg,Images/Speaker3.jpg,Images/Speaker4.jpg,Audio/Speaker4_Per/P4-7-Per.wav,Speaker4,گوینده۴,1,29,109,66,,,,,90.99843133299873,,,,,,,,,,,,,,,,,,,,,,,,,,,,,,,,,,,,,,,,,,,,,48.47898891600198,48.47920116599926,059469,001,2024-07-01_23h23.38.799,5-28,2024.1.4,None,2024-07-01 23h23.43.903317 +0900,
Images/Speaker1.jpg,Images/Speaker2.jpg,Images/Speaker3.jpg,Images/Speaker4.jpg,Audio/Speaker4_Per/P4-3-Per.wav,Speaker4,گوینده۴,1,30,110,62,,,,,90.99843133299873,,,,,,,,,,,,,,,,,,,,,,,,,,,,,,,,,,,,,,,,,,,,,48.49571766599911,48.495868458001496,059469,001,2024-07-01_23h23.38.799,5-28,2024.1.4,None,2024-07-01 23h23.43.903317 +0900,
Images/Speaker1.jpg,Images/Speaker2.jpg,Images/Speaker3.jpg,Images/Speaker4.jpg,Audio/Speaker2_Per/P2-2-Per.wav,Speaker2,گوینده۲,1,31,111,21,,,,,90.99843133299873,,,,,,,,,,,,,,,,,,,,,,,,,,,,,,,,,,,,,,,,,,,,,48.51163737499883,48.51178933299889,059469,001,2024-07-01_23h23.38.799,5-28,2024.1.4,None,2024-07-01 23h23.43.903317 +0900,
Images/Speaker1.jpg,Images/Speaker2.jpg,Images/Speaker3.jpg,Images/Speaker4.jpg,Audio/Speaker3_Per/P3-18-Per.wav,Speaker3,گوینده۳,1,32,112,57,,,,,90.99843133299873,,,,,,,,,,,,,,,,,,,,,,,,,,,,,,,,,,,,,,,,,,,,,48.52752983300161,48.52769395799987,059469,001,2024-07-01_23h23.38.799,5-28,2024.1.4,None,2024-07-01 23h23.43.903317 +0900,
Images/Speaker1.jpg,Images/Speaker2.jpg,Images/Speaker3.jpg,Images/Speaker4.jpg,Audio/Speaker2_Per/P2-4-Per.wav,Speaker2,گوینده۲,1,33,113,23,,,,,90.99843133299873,,,,,,,,,,,,,,,,,,,,,,,,,,,,,,,,,,,,,,,,,,,,,48.54355954100174,48.54377841600217,059469,001,2024-07-01_23h23.38.799,5-28,2024.1.4,None,2024-07-01 23h23.43.903317 +0900,
Images/Speaker1.jpg,Images/Speaker2.jpg,Images/Speaker3.jpg,Images/Speaker4.jpg,Audio/Speaker4_Per/P4-15-Per.wav,Speaker4,گوینده۴,1,34,114,74,,,,,90.99843133299873,,,,,,,,,,,,,,,,,,,,,,,,,,,,,,,,,,,,,,,,,,,,,48.56001425000068,48.56016995800019,059469,001,2024-07-01_23h23.38.799,5-28,2024.1.4,None,2024-07-01 23h23.43.903317 +0900,
Images/Speaker1.jpg,Images/Speaker2.jpg,Images/Speaker3.jpg,Images/Speaker4.jpg,Audio/Speaker2_Per/P2-9-Per.wav,Speaker2,گوینده۲,1,35,115,28,,,,,90.99843133299873,,,,,,,,,,,,,,,,,,,,,,,,,,,,,,,,,,,,,,,,,,,,,48.575969124998664,48.576140041001054,059469,001,2024-07-01_23h23.38.799,5-28,2024.1.4,None,2024-07-01 23h23.43.903317 +0900,
Images/Speaker1.jpg,Images/Speaker2.jpg,Images/Speaker3.jpg,Images/Speaker4.jpg,Audio/Speaker3_Per/P3-7-Per.wav,Speaker3,گوینده۳,1,36,116,46,,,,,90.99843133299873,,,,,,,,,,,,,,,,,,,,,,,,,,,,,,,,,,,,,,,,,,,,,48.59184616600032,48.59201145800034,059469,001,2024-07-01_23h23.38.799,5-28,2024.1.4,None,2024-07-01 23h23.43.903317 +0900,
Images/Speaker1.jpg,Images/Speaker2.jpg,Images/Speaker3.jpg,Images/Speaker4.jpg,Audio/Speaker2_Per/P2-7-Per.wav,Speaker2,گوینده۲,1,37,117,26,,,,,90.99843133299873,,,,,,,,,,,,,,,,,,,,,,,,,,,,,,,,,,,,,,,,,,,,,48.607711125001515,48.60788099999991,059469,001,2024-07-01_23h23.38.799,5-28,2024.1.4,None,2024-07-01 23h23.43.903317 +0900,
Images/Speaker1.jpg,Images/Speaker2.jpg,Images/Speaker3.jpg,Images/Speaker4.jpg,Audio/Speaker3_Per/P3-14-Per.wav,Speaker3,گوینده۳,1,38,118,53,,,,,90.99843133299873,,,,,,,,,,,,,,,,,,,,,,,,,,,,,,,,,,,,,,,,,,,,,48.62425274999987,48.6244259160012,059469,001,2024-07-01_23h23.38.799,5-28,2024.1.4,None,2024-07-01 23h23.43.903317 +0900,
Images/Speaker1.jpg,Images/Speaker2.jpg,Images/Speaker3.jpg,Images/Speaker4.jpg,Audio/Speaker4_Per/P4-18-Per.wav,Speaker4,گوینده۴,1,39,119,77,,,,,90.99843133299873,,,,,,,,,,,,,,,,,,,,,,,,,,,,,,,,,,,,,,,,,,,,,48.640153457999986,48.64038150000124,059469,001,2024-07-01_23h23.38.799,5-28,2024.1.4,None,2024-07-01 23h23.43.903317 +0900,
Images/Speaker1.jpg,Images/Speaker2.jpg,Images/Speaker3.jpg,Images/Speaker4.jpg,Audio/Speaker3_Per/P3-10-Per.wav,Speaker3,گوینده۳,1,40,120,49,,,,,90.99843133299873,,,,,,,,,,,,,,,,,,,,,,,,,,,,,,,,,,,,,,,,,,,,,48.65616462500111,48.656378415998915,059469,001,2024-07-01_23h23.38.799,5-28,2024.1.4,None,2024-07-01 23h23.43.903317 +0900,
Images/Speaker1.jpg,Images/Speaker2.jpg,Images/Speaker3.jpg,Images/Speaker4.jpg,Audio/Speaker4_Per/P4-2-Per.wav,Speaker4,گوینده۴,1,41,121,61,,,,,90.99843133299873,,,,,,,,,,,,,,,,,,,,,,,,,,,,,,,,,,,,,,,,,,,,,48.67207212500216,48.6723053329988,059469,001,2024-07-01_23h23.38.799,5-28,2024.1.4,None,2024-07-01 23h23.43.903317 +0900,
Images/Speaker1.jpg,Images/Speaker2.jpg,Images/Speaker3.jpg,Images/Speaker4.jpg,Audio/Speaker1_Per/P1-4-Per.wav,Speaker1,گوینده ۱,1,42,122,13,,,,,90.99843133299873,,,,,,,,,,,,,,,,,,,,,,,,,,,,,,,,,,,,,,,,,,,,,48.6886705830002,48.688836541001365,059469,001,2024-07-01_23h23.38.799,5-28,2024.1.4,None,2024-07-01 23h23.43.903317 +0900,
Images/Speaker1.jpg,Images/Speaker2.jpg,Images/Speaker3.jpg,Images/Speaker4.jpg,Audio/Speaker4_Per/P4-14-Per.wav,Speaker4,گوینده۴,1,43,123,73,,,,,90.99843133299873,,,,,,,,,,,,,,,,,,,,,,,,,,,,,,,,,,,,,,,,,,,,,48.704691957998875,48.70485229100086,059469,001,2024-07-01_23h23.38.799,5-28,2024.1.4,None,2024-07-01 23h23.43.903317 +0900,
Images/Speaker1.jpg,Images/Speaker2.jpg,Images/Speaker3.jpg,Images/Speaker4.jpg,Audio/Speaker3_Per/P3-17-Per.wav,Speaker3,گوینده۳,1,44,124,56,,,,,90.99843133299873,,,,,,,,,,,,,,,,,,,,,,,,,,,,,,,,,,,,,,,,,,,,,48.72070191600142,48.720865291001246,059469,001,2024-07-01_23h23.38.799,5-28,2024.1.4,None,2024-07-01 23h23.43.903317 +0900,
Images/Speaker1.jpg,Images/Speaker2.jpg,Images/Speaker3.jpg,Images/Speaker4.jpg,Audio/Speaker1_Per/P1-2-Per.wav,Speaker1,گوینده ۱,1,45,125,1,,,,,90.99843133299873,,,,,,,,,,,,,,,,,,,,,,,,,,,,,,,,,,,,,,,,,,,,,48.73670245800167,48.73686404100226,059469,001,2024-07-01_23h23.38.799,5-28,2024.1.4,None,2024-07-01 23h23.43.903317 +0900,
Images/Speaker1.jpg,Images/Speaker2.jpg,Images/Speaker3.jpg,Images/Speaker4.jpg,Audio/Speaker1_Per/P1-3-Per.wav,Speaker1,گوینده ۱,1,46,126,2,,,,,90.99843133299873,,,,,,,,,,,,,,,,,,,,,,,,,,,,,,,,,,,,,,,,,,,,,48.75328337500105,48.75345033299891,059469,001,2024-07-01_23h23.38.799,5-28,2024.1.4,None,2024-07-01 23h23.43.903317 +0900,
Images/Speaker1.jpg,Images/Speaker2.jpg,Images/Speaker3.jpg,Images/Speaker4.jpg,Audio/Speaker2_Per/P2-16-Per.wav,Speaker2,گوینده۲,1,47,127,35,,,,,90.99843133299873,,,,,,,,,,,,,,,,,,,,,,,,,,,,,,,,,,,,,,,,,,,,,48.76917833300104,48.76939216599931,059469,001,2024-07-01_23h23.38.799,5-28,2024.1.4,None,2024-07-01 23h23.43.903317 +0900,
Images/Speaker1.jpg,Images/Speaker2.jpg,Images/Speaker3.jpg,Images/Speaker4.jpg,Audio/Speaker2_Per/P2-15-Per.wav,Speaker2,گوینده۲,1,48,128,34,,,,,90.99843133299873,,,,,,,,,,,,,,,,,,,,,,,,,,,,,,,,,,,,,,,,,,,,,48.78507954100132,48.785288999999466,059469,001,2024-07-01_23h23.38.799,5-28,2024.1.4,None,2024-07-01 23h23.43.903317 +0900,
Images/Speaker1.jpg,Images/Speaker2.jpg,Images/Speaker3.jpg,Images/Speaker4.jpg,Audio/Speaker3_Per/P3-15-Per.wav,Speaker3,گوینده۳,1,49,129,54,,,,,90.99843133299873,,,,,,,,,,,,,,,,,,,,,,,,,,,,,,,,,,,,,,,,,,,,,48.80100175000189,48.801152666001144,059469,001,2024-07-01_23h23.38.799,5-28,2024.1.4,None,2024-07-01 23h23.43.903317 +0900,
Images/Speaker1.jpg,Images/Speaker2.jpg,Images/Speaker3.jpg,Images/Speaker4.jpg,Audio/Speaker3_Per/P3-16-Per.wav,Speaker3,گوینده۳,1,50,130,55,,,,,90.99843133299873,,,,,,,,,,,,,,,,,,,,,,,,,,,,,,,,,,,,,,,,,,,,,48.81760158299949,48.81775525000194,059469,001,2024-07-01_23h23.38.799,5-28,2024.1.4,None,2024-07-01 23h23.43.903317 +0900,
Images/Speaker1.jpg,Images/Speaker2.jpg,Images/Speaker3.jpg,Images/Speaker4.jpg,Audio/Speaker2_Per/P2-14-Per.wav,Speaker2,گوینده۲,1,51,131,33,,,,,90.99843133299873,,,,,,,,,,,,,,,,,,,,,,,,,,,,,,,,,,,,,,,,,,,,,48.833463708000636,48.83361591599896,059469,001,2024-07-01_23h23.38.799,5-28,2024.1.4,None,2024-07-01 23h23.43.903317 +0900,
Images/Speaker1.jpg,Images/Speaker2.jpg,Images/Speaker3.jpg,Images/Speaker4.jpg,Audio/Speaker1_Per/P1-9-Per.wav,Speaker1,گوینده ۱,1,52,132,8,,,,,90.99843133299873,,,,,,,,,,,,,,,,,,,,,,,,,,,,,,,,,,,,,,,,,,,,,48.84949150000102,48.84970179100128,059469,001,2024-07-01_23h23.38.799,5-28,2024.1.4,None,2024-07-01 23h23.43.903317 +0900,
Images/Speaker1.jpg,Images/Speaker2.jpg,Images/Speaker3.jpg,Images/Speaker4.jpg,Audio/Speaker4_Per/P4-4-Per.wav,Speaker4,گوینده۴,1,53,133,63,,,,,90.99843133299873,,,,,,,,,,,,,,,,,,,,,,,,,,,,,,,,,,,,,,,,,,,,,48.86548391600081,48.86564654100221,059469,001,2024-07-01_23h23.38.799,5-28,2024.1.4,None,2024-07-01 23h23.43.903317 +0900,
Images/Speaker1.jpg,Images/Speaker2.jpg,Images/Speaker3.jpg,Images/Speaker4.jpg,Audio/Speaker2_Per/P2-1-Per.wav,Speaker2,گوینده۲,1,54,134,20,,,,,90.99843133299873,,,,,,,,,,,,,,,,,,,,,,,,,,,,,,,,,,,,,,,,,,,,,48.881858790999104,48.88202912500128,059469,001,2024-07-01_23h23.38.799,5-28,2024.1.4,None,2024-07-01 23h23.43.903317 +0900,
Images/Speaker1.jpg,Images/Speaker2.jpg,Images/Speaker3.jpg,Images/Speaker4.jpg,Audio/Speaker2_Per/P2-13-Per.wav,Speaker2,گوینده۲,1,55,135,32,,,,,90.99843133299873,,,,,,,,,,,,,,,,,,,,,,,,,,,,,,,,,,,,,,,,,,,,,48.897765083002014,48.897927958001674,059469,001,2024-07-01_23h23.38.799,5-28,2024.1.4,None,2024-07-01 23h23.43.903317 +0900,
Images/Speaker1.jpg,Images/Speaker2.jpg,Images/Speaker3.jpg,Images/Speaker4.jpg,Audio/Speaker2_Per/P2-20-Per.wav,Speaker2,گوینده۲,1,56,136,39,,,,,90.99843133299873,,,,,,,,,,,,,,,,,,,,,,,,,,,,,,,,,,,,,,,,,,,,,48.91370912500133,48.91386262499873,059469,001,2024-07-01_23h23.38.799,5-28,2024.1.4,None,2024-07-01 23h23.43.903317 +0900,
Images/Speaker1.jpg,Images/Speaker2.jpg,Images/Speaker3.jpg,Images/Speaker4.jpg,Audio/Speaker2_Per/P2-19-Per.wav,Speaker2,گوینده۲,1,57,137,38,,,,,90.99843133299873,,,,,,,,,,,,,,,,,,,,,,,,,,,,,,,,,,,,,,,,,,,,,48.92965125000046,48.92982812500122,059469,001,2024-07-01_23h23.38.799,5-28,2024.1.4,None,2024-07-01 23h23.43.903317 +0900,
Images/Speaker1.jpg,Images/Speaker2.jpg,Images/Speaker3.jpg,Images/Speaker4.jpg,Audio/Speaker1_Per/P1-11-Per.wav,Speaker1,گوینده ۱,1,58,138,10,,,,,90.99843133299873,,,,,,,,,,,,,,,,,,,,,,,,,,,,,,,,,,,,,,,,,,,,,48.946275750000495,48.9464467910002,059469,001,2024-07-01_23h23.38.799,5-28,2024.1.4,None,2024-07-01 23h23.43.903317 +0900,
Images/Speaker1.jpg,Images/Speaker2.jpg,Images/Speaker3.jpg,Images/Speaker4.jpg,Audio/Speaker1_Per/P1-15-Per.wav,Speaker1,گوینده ۱,1,59,139,14,,,,,90.99843133299873,,,,,,,,,,,,,,,,,,,,,,,,,,,,,,,,,,,,,,,,,,,,,48.96215658300207,48.9623736249996,059469,001,2024-07-01_23h23.38.799,5-28,2024.1.4,None,2024-07-01 23h23.43.903317 +0900,
Images/Speaker1.jpg,Images/Speaker2.jpg,Images/Speaker3.jpg,Images/Speaker4.jpg,Audio/Speaker3_Per/P3-8-Per.wav,Speaker3,گوینده۳,1,60,140,47,,,,,90.99843133299873,,,,,,,,,,,,,,,,,,,,,,,,,,,,,,,,,,,,,,,,,,,,,48.978059083001426,48.97825649999868,059469,001,2024-07-01_23h23.38.799,5-28,2024.1.4,None,2024-07-01 23h23.43.903317 +0900,
Images/Speaker1.jpg,Images/Speaker2.jpg,Images/Speaker3.jpg,Images/Speaker4.jpg,Audio/Speaker4_Per/P4-19-Per.wav,Speaker4,گوینده۴,1,61,141,78,,,,,90.99843133299873,,,,,,,,,,,,,,,,,,,,,,,,,,,,,,,,,,,,,,,,,,,,,48.99393937499917,48.99409129099877,059469,001,2024-07-01_23h23.38.799,5-28,2024.1.4,None,2024-07-01 23h23.43.903317 +0900,
Images/Speaker1.jpg,Images/Speaker2.jpg,Images/Speaker3.jpg,Images/Speaker4.jpg,Audio/Speaker3_Per/P3-3-Per.wav,Speaker3,گوینده۳,1,62,142,42,,,,,90.99843133299873,,,,,,,,,,,,,,,,,,,,,,,,,,,,,,,,,,,,,,,,,,,,,49.01048391600125,49.01065879100133,059469,001,2024-07-01_23h23.38.799,5-28,2024.1.4,None,2024-07-01 23h23.43.903317 +0900,
Images/Speaker1.jpg,Images/Speaker2.jpg,Images/Speaker3.jpg,Images/Speaker4.jpg,Audio/Speaker1_Per/P1-4-Per.wav,Speaker1,گوینده ۱,1,63,143,3,,,,,90.99843133299873,,,,,,,,,,,,,,,,,,,,,,,,,,,,,,,,,,,,,,,,,,,,,49.02636920800069,49.02654608300145,059469,001,2024-07-01_23h23.38.799,5-28,2024.1.4,None,2024-07-01 23h23.43.903317 +0900,
Images/Speaker1.jpg,Images/Speaker2.jpg,Images/Speaker3.jpg,Images/Speaker4.jpg,Audio/Speaker4_Per/P4-13-Per.wav,Speaker4,گوینده۴,1,64,144,72,,,,,90.99843133299873,,,,,,,,,,,,,,,,,,,,,,,,,,,,,,,,,,,,,,,,,,,,,49.04224062499998,49.042406166001456,059469,001,2024-07-01_23h23.38.799,5-28,2024.1.4,None,2024-07-01 23h23.43.903317 +0900,
Images/Speaker1.jpg,Images/Speaker2.jpg,Images/Speaker3.jpg,Images/Speaker4.jpg,Audio/Speaker4_Per/P4-1-Per.wav,Speaker4,گوینده۴,1,65,145,60,,,,,90.99843133299873,,,,,,,,,,,,,,,,,,,,,,,,,,,,,,,,,,,,,,,,,,,,,49.05812662500102,49.05831799999942,059469,001,2024-07-01_23h23.38.799,5-28,2024.1.4,None,2024-07-01 23h23.43.903317 +0900,
Images/Speaker1.jpg,Images/Speaker2.jpg,Images/Speaker3.jpg,Images/Speaker4.jpg,Audio/Speaker2_Per/P2-8-Per.wav,Speaker2,گوینده۲,1,66,146,27,,,,,90.99843133299873,,,,,,,,,,,,,,,,,,,,,,,,,,,,,,,,,,,,,,,,,,,,,49.074609874998714,49.07477374999871,059469,001,2024-07-01_23h23.38.799,5-28,2024.1.4,None,2024-07-01 23h23.43.903317 +0900,
Images/Speaker1.jpg,Images/Speaker2.jpg,Images/Speaker3.jpg,Images/Speaker4.jpg,Audio/Speaker3_Per/P3-6-Per.wav,Speaker3,گوینده۳,1,67,147,45,,,,,90.99843133299873,,,,,,,,,,,,,,,,,,,,,,,,,,,,,,,,,,,,,,,,,,,,,49.09047500000088,49.09063416600111,059469,001,2024-07-01_23h23.38.799,5-28,2024.1.4,None,2024-07-01 23h23.43.903317 +0900,
Images/Speaker1.jpg,Images/Speaker2.jpg,Images/Speaker3.jpg,Images/Speaker4.jpg,Audio/Speaker2_Per/P2-11-Per.wav,Speaker2,گوینده۲,1,68,148,30,,,,,90.99843133299873,,,,,,,,,,,,,,,,,,,,,,,,,,,,,,,,,,,,,,,,,,,,,49.10634349999964,49.1065309580008,059469,001,2024-07-01_23h23.38.799,5-28,2024.1.4,None,2024-07-01 23h23.43.903317 +0900,
Images/Speaker1.jpg,Images/Speaker2.jpg,Images/Speaker3.jpg,Images/Speaker4.jpg,Audio/Speaker2_Per/P2-6-Per.wav,Speaker2,گوینده۲,1,69,149,25,,,,,90.99843133299873,,,,,,,,,,,,,,,,,,,,,,,,,,,,,,,,,,,,,,,,,,,,,49.12227412500215,49.12243849999868,059469,001,2024-07-01_23h23.38.799,5-28,2024.1.4,None,2024-07-01 23h23.43.903317 +0900,
Images/Speaker1.jpg,Images/Speaker2.jpg,Images/Speaker3.jpg,Images/Speaker4.jpg,Audio/Speaker3_Per/P3-13-Per.wav,Speaker3,گوینده۳,1,70,150,52,,,,,90.99843133299873,,,,,,,,,,,,,,,,,,,,,,,,,,,,,,,,,,,,,,,,,,,,,49.138802207999106,49.13896270799887,059469,001,2024-07-01_23h23.38.799,5-28,2024.1.4,None,2024-07-01 23h23.43.903317 +0900,
Images/Speaker1.jpg,Images/Speaker2.jpg,Images/Speaker3.jpg,Images/Speaker4.jpg,Audio/Speaker3_Per/P3-4-Per.wav,Speaker3,گوینده۳,1,71,151,43,,,,,90.99843133299873,,,,,,,,,,,,,,,,,,,,,,,,,,,,,,,,,,,,,,,,,,,,,49.15474804100086,49.15492725000149,059469,001,2024-07-01_23h23.38.799,5-28,2024.1.4,None,2024-07-01 23h23.43.903317 +0900,
Images/Speaker1.jpg,Images/Speaker2.jpg,Images/Speaker3.jpg,Images/Speaker4.jpg,Audio/Speaker1_Per/P1-1-Per.wav,Speaker1,گوینده ۱,1,72,152,0,,,,,90.99843133299873,,,,,,,,,,,,,,,,,,,,,,,,,,,,,,,,,,,,,,,,,,,,,49.170644124998944,49.17079899999953,059469,001,2024-07-01_23h23.38.799,5-28,2024.1.4,None,2024-07-01 23h23.43.903317 +0900,
Images/Speaker1.jpg,Images/Speaker2.jpg,Images/Speaker3.jpg,Images/Speaker4.jpg,Audio/Speaker4_Per/P4-6-Per.wav,Speaker4,گوینده۴,1,73,153,65,,,,,90.99843133299873,,,,,,,,,,,,,,,,,,,,,,,,,,,,,,,,,,,,,,,,,,,,,49.18655666600171,49.186726374999125,059469,001,2024-07-01_23h23.38.799,5-28,2024.1.4,None,2024-07-01 23h23.43.903317 +0900,
Images/Speaker1.jpg,Images/Speaker2.jpg,Images/Speaker3.jpg,Images/Speaker4.jpg,Audio/Speaker1_Per/P1-19-Per.wav,Speaker1,گوینده ۱,1,74,154,18,,,,,90.99843133299873,,,,,,,,,,,,,,,,,,,,,,,,,,,,,,,,,,,,,,,,,,,,,49.203134291001334,49.20330549999926,059469,001,2024-07-01_23h23.38.799,5-28,2024.1.4,None,2024-07-01 23h23.43.903317 +0900,
Images/Speaker1.jpg,Images/Speaker2.jpg,Images/Speaker3.jpg,Images/Speaker4.jpg,Audio/Speaker1_Per/P1-13-Per.wav,Speaker1,گوینده ۱,1,75,155,12,,,,,90.99843133299873,,,,,,,,,,,,,,,,,,,,,,,,,,,,,,,,,,,,,,,,,,,,,49.21919662499931,49.21937125000113,059469,001,2024-07-01_23h23.38.799,5-28,2024.1.4,None,2024-07-01 23h23.43.903317 +0900,
Images/Speaker1.jpg,Images/Speaker2.jpg,Images/Speaker3.jpg,Images/Speaker4.jpg,Audio/Speaker4_Per/P4-11-Per.wav,Speaker4,گوینده۴,1,76,156,70,,,,,90.99843133299873,,,,,,,,,,,,,,,,,,,,,,,,,,,,,,,,,,,,,,,,,,,,,49.234934500000236,49.23509754100087,059469,001,2024-07-01_23h23.38.799,5-28,2024.1.4,None,2024-07-01 23h23.43.903317 +0900,
Images/Speaker1.jpg,Images/Speaker2.jpg,Images/Speaker3.jpg,Images/Speaker4.jpg,Audio/Speaker4_Per/P4-5-Per.wav,Speaker4,گوینده۴,1,77,157,64,,,,,90.99843133299873,,,,,,,,,,,,,,,,,,,,,,,,,,,,,,,,,,,,,,,,,,,,,49.25077945800149,49.250935708001634,059469,001,2024-07-01_23h23.38.799,5-28,2024.1.4,None,2024-07-01 23h23.43.903317 +0900,
Images/Speaker1.jpg,Images/Speaker2.jpg,Images/Speaker3.jpg,Images/Speaker4.jpg,Audio/Speaker4_Per/P4-9-Per.wav,Speaker4,گوینده۴,1,78,158,68,,,,,90.99843133299873,,,,,,,,,,,,,,,,,,,,,,,,,,,,,,,,,,,,,,,,,,,,,49.26723362499979,49.26737416600008,059469,001,2024-07-01_23h23.38.799,5-28,2024.1.4,None,2024-07-01 23h23.43.903317 +0900,
Images/Speaker1.jpg,Images/Speaker2.jpg,Images/Speaker3.jpg,Images/Speaker4.jpg,Audio/Speaker3_Per/P3-9-Per.wav,Speaker3,گوینده۳,1,79,159,48,,,,,90.99843133299873,,,,,,,,,,,,,,,,,,,,,,,,,,,,,,,,,,,,,,,,,,,,,49.283030916001735,49.28320033300042,059469,001,2024-07-01_23h23.38.799,5-28,2024.1.4,None,2024-07-01 23h23.43.903317 +0900,
Images/Speaker1.jpg,Images/Speaker2.jpg,Images/Speaker3.jpg,Images/Speaker4.jpg,Audio/Speaker2_Per/P2-8-Per.wav,Speaker2,گوینده۲,2,0,160,27,,,,,90.99843133299873,,,,,,,,,,,,,,,,,,,,,,,,,,,,,,,,,,,,,,,,,,,,,49.29897583300044,49.29915733300004,059469,001,2024-07-01_23h23.38.799,5-28,2024.1.4,None,2024-07-01 23h23.43.903317 +0900,
Images/Speaker1.jpg,Images/Speaker2.jpg,Images/Speaker3.jpg,Images/Speaker4.jpg,Audio/Speaker1_Per/P1-5-Per.wav,Speaker1,گوینده ۱,2,1,161,4,,,,,90.99843133299873,,,,,,,,,,,,,,,,,,,,,,,,,,,,,,,,,,,,,,,,,,,,,49.31497929100078,49.31515212500017,059469,001,2024-07-01_23h23.38.799,5-28,2024.1.4,None,2024-07-01 23h23.43.903317 +0900,
Images/Speaker1.jpg,Images/Speaker2.jpg,Images/Speaker3.jpg,Images/Speaker4.jpg,Audio/Speaker3_Per/P3-1-Per.wav,Speaker3,گوینده۳,2,2,162,40,,,,,90.99843133299873,,,,,,,,,,,,,,,,,,,,,,,,,,,,,,,,,,,,,,,,,,,,,49.33154295799977,49.331711040998925,059469,001,2024-07-01_23h23.38.799,5-28,2024.1.4,None,2024-07-01 23h23.43.903317 +0900,
Images/Speaker1.jpg,Images/Speaker2.jpg,Images/Speaker3.jpg,Images/Speaker4.jpg,Audio/Speaker4_Per/P4-1-Per.wav,Speaker4,گوینده۴,2,3,163,60,,,,,90.99843133299873,,,,,,,,,,,,,,,,,,,,,,,,,,,,,,,,,,,,,,,,,,,,,49.347446040999785,49.34763816600025,059469,001,2024-07-01_23h23.38.799,5-28,2024.1.4,None,2024-07-01 23h23.43.903317 +0900,
Images/Speaker1.jpg,Images/Speaker2.jpg,Images/Speaker3.jpg,Images/Speaker4.jpg,Audio/Speaker2_Per/P2-15-Per.wav,Speaker2,گوینده۲,2,4,164,34,,,,,90.99843133299873,,,,,,,,,,,,,,,,,,,,,,,,,,,,,,,,,,,,,,,,,,,,,49.363391540999146,49.36358008300158,059469,001,2024-07-01_23h23.38.799,5-28,2024.1.4,None,2024-07-01 23h23.43.903317 +0900,
Images/Speaker1.jpg,Images/Speaker2.jpg,Images/Speaker3.jpg,Images/Speaker4.jpg,Audio/Speaker2_Per/P2-17-Per.wav,Speaker2,گوینده۲,2,5,165,36,,,,,90.99843133299873,,,,,,,,,,,,,,,,,,,,,,,,,,,,,,,,,,,,,,,,,,,,,49.379326875001425,49.379533540999546,059469,001,2024-07-01_23h23.38.799,5-28,2024.1.4,None,2024-07-01 23h23.43.903317 +0900,
Images/Speaker1.jpg,Images/Speaker2.jpg,Images/Speaker3.jpg,Images/Speaker4.jpg,Audio/Speaker3_Per/P3-6-Per.wav,Speaker3,گوینده۳,2,6,166,45,,,,,90.99843133299873,,,,,,,,,,,,,,,,,,,,,,,,,,,,,,,,,,,,,,,,,,,,,49.395813791001274,49.39598641599878,059469,001,2024-07-01_23h23.38.799,5-28,2024.1.4,None,2024-07-01 23h23.43.903317 +0900,
Images/Speaker1.jpg,Images/Speaker2.jpg,Images/Speaker3.jpg,Images/Speaker4.jpg,Audio/Speaker2_Per/P2-3-Per.wav,Speaker2,گوینده۲,2,7,167,22,,,,,90.99843133299873,,,,,,,,,,,,,,,,,,,,,,,,,,,,,,,,,,,,,,,,,,,,,49.4117378330011,49.41188387500006,059469,001,2024-07-01_23h23.38.799,5-28,2024.1.4,None,2024-07-01 23h23.43.903317 +0900,
Images/Speaker1.jpg,Images/Speaker2.jpg,Images/Speaker3.jpg,Images/Speaker4.jpg,Audio/Speaker4_Per/P4-3-Per.wav,Speaker4,گوینده۴,2,8,168,62,,,,,90.99843133299873,,,,,,,,,,,,,,,,,,,,,,,,,,,,,,,,,,,,,,,,,,,,,49.42753470800017,49.427711166001245,059469,001,2024-07-01_23h23.38.799,5-28,2024.1.4,None,2024-07-01 23h23.43.903317 +0900,
Images/Speaker1.jpg,Images/Speaker2.jpg,Images/Speaker3.jpg,Images/Speaker4.jpg,Audio/Speaker3_Per/P3-11-Per.wav,Speaker3,گوینده۳,2,9,169,50,,,,,90.99843133299873,,,,,,,,,,,,,,,,,,,,,,,,,,,,,,,,,,,,,,,,,,,,,49.443558416001906,49.44373679099954,059469,001,2024-07-01_23h23.38.799,5-28,2024.1.4,None,2024-07-01 23h23.43.903317 +0900,
Images/Speaker1.jpg,Images/Speaker2.jpg,Images/Speaker3.jpg,Images/Speaker4.jpg,Audio/Speaker2_Per/P2-13-Per.wav,Speaker2,گوینده۲,2,10,170,32,,,,,90.99843133299873,,,,,,,,,,,,,,,,,,,,,,,,,,,,,,,,,,,,,,,,,,,,,49.460201750000124,49.460389457999554,059469,001,2024-07-01_23h23.38.799,5-28,2024.1.4,None,2024-07-01 23h23.43.903317 +0900,
Images/Speaker1.jpg,Images/Speaker2.jpg,Images/Speaker3.jpg,Images/Speaker4.jpg,Audio/Speaker3_Per/P3-8-Per.wav,Speaker3,گوینده۳,2,11,171,47,,,,,90.99843133299873,,,,,,,,,,,,,,,,,,,,,,,,,,,,,,,,,,,,,,,,,,,,,49.47598662499877,49.47618183300074,059469,001,2024-07-01_23h23.38.799,5-28,2024.1.4,None,2024-07-01 23h23.43.903317 +0900,
Images/Speaker1.jpg,Images/Speaker2.jpg,Images/Speaker3.jpg,Images/Speaker4.jpg,Audio/Speaker2_Per/P2-12-Per.wav,Speaker2,گوینده۲,2,12,172,31,,,,,90.99843133299873,,,,,,,,,,,,,,,,,,,,,,,,,,,,,,,,,,,,,,,,,,,,,49.49199408300046,49.49218154100163,059469,001,2024-07-01_23h23.38.799,5-28,2024.1.4,None,2024-07-01 23h23.43.903317 +0900,
Images/Speaker1.jpg,Images/Speaker2.jpg,Images/Speaker3.jpg,Images/Speaker4.jpg,Audio/Speaker2_Per/P2-18-Per.wav,Speaker2,گوینده۲,2,13,173,37,,,,,90.99843133299873,,,,,,,,,,,,,,,,,,,,,,,,,,,,,,,,,,,,,,,,,,,,,49.50790054100071,49.50806545800151,059469,001,2024-07-01_23h23.38.799,5-28,2024.1.4,None,2024-07-01 23h23.43.903317 +0900,
Images/Speaker1.jpg,Images/Speaker2.jpg,Images/Speaker3.jpg,Images/Speaker4.jpg,Audio/Speaker1_Per/P1-11-Per.wav,Speaker1,گوینده ۱,2,14,174,10,,,,,90.99843133299873,,,,,,,,,,,,,,,,,,,,,,,,,,,,,,,,,,,,,,,,,,,,,49.524380916001974,49.52459662500041,059469,001,2024-07-01_23h23.38.799,5-28,2024.1.4,None,2024-07-01 23h23.43.903317 +0900,
Images/Speaker1.jpg,Images/Speaker2.jpg,Images/Speaker3.jpg,Images/Speaker4.jpg,Audio/Speaker4_Per/P4-11-Per.wav,Speaker4,گوینده۴,2,15,175,70,,,,,90.99843133299873,,,,,,,,,,,,,,,,,,,,,,,,,,,,,,,,,,,,,,,,,,,,,49.54035350000049,49.54055408299973,059469,001,2024-07-01_23h23.38.799,5-28,2024.1.4,None,2024-07-01 23h23.43.903317 +0900,
Images/Speaker1.jpg,Images/Speaker2.jpg,Images/Speaker3.jpg,Images/Speaker4.jpg,Audio/Speaker2_Per/P2-5-Per.wav,Speaker2,گوینده۲,2,16,176,24,,,,,90.99843133299873,,,,,,,,,,,,,,,,,,,,,,,,,,,,,,,,,,,,,,,,,,,,,49.55634112500047,49.556499500002246,059469,001,2024-07-01_23h23.38.799,5-28,2024.1.4,None,2024-07-01 23h23.43.903317 +0900,
Images/Speaker1.jpg,Images/Speaker2.jpg,Images/Speaker3.jpg,Images/Speaker4.jpg,Audio/Speaker4_Per/P4-15-Per.wav,Speaker4,گوینده۴,2,17,177,74,,,,,90.99843133299873,,,,,,,,,,,,,,,,,,,,,,,,,,,,,,,,,,,,,,,,,,,,,49.572240665998834,49.57239900000059,059469,001,2024-07-01_23h23.38.799,5-28,2024.1.4,None,2024-07-01 23h23.43.903317 +0900,
Images/Speaker1.jpg,Images/Speaker2.jpg,Images/Speaker3.jpg,Images/Speaker4.jpg,Audio/Speaker2_Per/P2-7-Per.wav,Speaker2,گوینده۲,2,18,178,26,,,,,90.99843133299873,,,,,,,,,,,,,,,,,,,,,,,,,,,,,,,,,,,,,,,,,,,,,49.58872654100196,49.58894320800027,059469,001,2024-07-01_23h23.38.799,5-28,2024.1.4,None,2024-07-01 23h23.43.903317 +0900,
Images/Speaker1.jpg,Images/Speaker2.jpg,Images/Speaker3.jpg,Images/Speaker4.jpg,Audio/Speaker1_Per/P1-17-Per.wav,Speaker1,گوینده ۱,2,19,179,16,,,,,90.99843133299873,,,,,,,,,,,,,,,,,,,,,,,,,,,,,,,,,,,,,,,,,,,,,49.60464000000138,49.604804124999646,059469,001,2024-07-01_23h23.38.799,5-28,2024.1.4,None,2024-07-01 23h23.43.903317 +0900,
Images/Speaker1.jpg,Images/Speaker2.jpg,Images/Speaker3.jpg,Images/Speaker4.jpg,Audio/Speaker3_Per/P3-19-Per.wav,Speaker3,گوینده۳,2,20,180,58,,,,,90.99843133299873,,,,,,,,,,,,,,,,,,,,,,,,,,,,,,,,,,,,,,,,,,,,,49.62061837500005,49.62080920800145,059469,001,2024-07-01_23h23.38.799,5-28,2024.1.4,None,2024-07-01 23h23.43.903317 +0900,
Images/Speaker1.jpg,Images/Speaker2.jpg,Images/Speaker3.jpg,Images/Speaker4.jpg,Audio/Speaker4_Per/P4-12-Per.wav,Speaker4,گوینده۴,2,21,181,71,,,,,90.99843133299873,,,,,,,,,,,,,,,,,,,,,,,,,,,,,,,,,,,,,,,,,,,,,49.63661066599889,49.636781416000304,059469,001,2024-07-01_23h23.38.799,5-28,2024.1.4,None,2024-07-01 23h23.43.903317 +0900,
Images/Speaker1.jpg,Images/Speaker2.jpg,Images/Speaker3.jpg,Images/Speaker4.jpg,Audio/Speaker4_Per/P4-16-Per.wav,Speaker4,گوینده۴,2,22,182,75,,,,,90.99843133299873,,,,,,,,,,,,,,,,,,,,,,,,,,,,,,,,,,,,,,,,,,,,,49.65313379100189,49.65329633299916,059469,001,2024-07-01_23h23.38.799,5-28,2024.1.4,None,2024-07-01 23h23.43.903317 +0900,
Images/Speaker1.jpg,Images/Speaker2.jpg,Images/Speaker3.jpg,Images/Speaker4.jpg,Audio/Speaker2_Per/P2-20-Per.wav,Speaker2,گوینده۲,2,23,183,39,,,,,90.99843133299873,,,,,,,,,,,,,,,,,,,,,,,,,,,,,,,,,,,,,,,,,,,,,49.669006250001985,49.6691678749994,059469,001,2024-07-01_23h23.38.799,5-28,2024.1.4,None,2024-07-01 23h23.43.903317 +0900,
Images/Speaker1.jpg,Images/Speaker2.jpg,Images/Speaker3.jpg,Images/Speaker4.jpg,Audio/Speaker2_Per/P2-2-Per.wav,Speaker2,گوینده۲,2,24,184,21,,,,,90.99843133299873,,,,,,,,,,,,,,,,,,,,,,,,,,,,,,,,,,,,,,,,,,,,,49.68501537500197,49.685187791001226,059469,001,2024-07-01_23h23.38.799,5-28,2024.1.4,None,2024-07-01 23h23.43.903317 +0900,
Images/Speaker1.jpg,Images/Speaker2.jpg,Images/Speaker3.jpg,Images/Speaker4.jpg,Audio/Speaker3_Per/P3-17-Per.wav,Speaker3,گوینده۳,2,25,185,56,,,,,90.99843133299873,,,,,,,,,,,,,,,,,,,,,,,,,,,,,,,,,,,,,,,,,,,,,49.70088545800172,49.70104424999954,059469,001,2024-07-01_23h23.38.799,5-28,2024.1.4,None,2024-07-01 23h23.43.903317 +0900,
Images/Speaker1.jpg,Images/Speaker2.jpg,Images/Speaker3.jpg,Images/Speaker4.jpg,Audio/Speaker2_Per/P2-9-Per.wav,Speaker2,گوینده۲,2,26,186,28,,,,,90.99843133299873,,,,,,,,,,,,,,,,,,,,,,,,,,,,,,,,,,,,,,,,,,,,,49.717298957999446,49.717503166000824,059469,001,2024-07-01_23h23.38.799,5-28,2024.1.4,None,2024-07-01 23h23.43.903317 +0900,
Images/Speaker1.jpg,Images/Speaker2.jpg,Images/Speaker3.jpg,Images/Speaker4.jpg,Audio/Speaker2_Per/P2-6-Per.wav,Speaker2,گوینده۲,2,27,187,25,,,,,90.99843133299873,,,,,,,,,,,,,,,,,,,,,,,,,,,,,,,,,,,,,,,,,,,,,49.73324770800173,49.733442790999106,059469,001,2024-07-01_23h23.38.799,5-28,2024.1.4,None,2024-07-01 23h23.43.903317 +0900,
Images/Speaker1.jpg,Images/Speaker2.jpg,Images/Speaker3.jpg,Images/Speaker4.jpg,Audio/Speaker4_Per/P4-7-Per.wav,Speaker4,گوینده۴,2,28,188,66,,,,,90.99843133299873,,,,,,,,,,,,,,,,,,,,,,,,,,,,,,,,,,,,,,,,,,,,,49.7491811660002,49.74938270799976,059469,001,2024-07-01_23h23.38.799,5-28,2024.1.4,None,2024-07-01 23h23.43.903317 +0900,
Images/Speaker1.jpg,Images/Speaker2.jpg,Images/Speaker3.jpg,Images/Speaker4.jpg,Audio/Speaker3_Per/P3-9-Per.wav,Speaker3,گوینده۳,2,29,189,48,,,,,90.99843133299873,,,,,,,,,,,,,,,,,,,,,,,,,,,,,,,,,,,,,,,,,,,,,49.765195708001556,49.76538029099902,059469,001,2024-07-01_23h23.38.799,5-28,2024.1.4,None,2024-07-01 23h23.43.903317 +0900,
Images/Speaker1.jpg,Images/Speaker2.jpg,Images/Speaker3.jpg,Images/Speaker4.jpg,Audio/Speaker2_Per/P2-4-Per.wav,Speaker2,گوینده۲,2,30,190,23,,,,,90.99843133299873,,,,,,,,,,,,,,,,,,,,,,,,,,,,,,,,,,,,,,,,,,,,,49.781800083001144,49.781963583001925,059469,001,2024-07-01_23h23.38.799,5-28,2024.1.4,None,2024-07-01 23h23.43.903317 +0900,
Images/Speaker1.jpg,Images/Speaker2.jpg,Images/Speaker3.jpg,Images/Speaker4.jpg,Audio/Speaker1_Per/P1-16-Per.wav,Speaker1,گوینده ۱,2,31,191,15,,,,,90.99843133299873,,,,,,,,,,,,,,,,,,,,,,,,,,,,,,,,,,,,,,,,,,,,,49.79776316599964,49.79791862500133,059469,001,2024-07-01_23h23.38.799,5-28,2024.1.4,None,2024-07-01 23h23.43.903317 +0900,
Images/Speaker1.jpg,Images/Speaker2.jpg,Images/Speaker3.jpg,Images/Speaker4.jpg,Audio/Speaker1_Per/P1-4-Per.wav,Speaker1,گوینده ۱,2,32,192,13,,,,,90.99843133299873,,,,,,,,,,,,,,,,,,,,,,,,,,,,,,,,,,,,,,,,,,,,,49.81370754100135,49.813865208001516,059469,001,2024-07-01_23h23.38.799,5-28,2024.1.4,None,2024-07-01 23h23.43.903317 +0900,
Images/Speaker1.jpg,Images/Speaker2.jpg,Images/Speaker3.jpg,Images/Speaker4.jpg,Audio/Speaker1_Per/P1-19-Per.wav,Speaker1,گوینده ۱,2,33,193,18,,,,,90.99843133299873,,,,,,,,,,,,,,,,,,,,,,,,,,,,,,,,,,,,,,,,,,,,,49.82962445800149,49.82978416599872,059469,001,2024-07-01_23h23.38.799,5-28,2024.1.4,None,2024-07-01 23h23.43.903317 +0900,
Images/Speaker1.jpg,Images/Speaker2.jpg,Images/Speaker3.jpg,Images/Speaker4.jpg,Audio/Speaker4_Per/P4-20-Per.wav,Speaker4,گوینده۴,2,34,194,79,,,,,90.99843133299873,,,,,,,,,,,,,,,,,,,,,,,,,,,,,,,,,,,,,,,,,,,,,49.846299415999965,49.84647145800045,059469,001,2024-07-01_23h23.38.799,5-28,2024.1.4,None,2024-07-01 23h23.43.903317 +0900,
Images/Speaker1.jpg,Images/Speaker2.jpg,Images/Speaker3.jpg,Images/Speaker4.jpg,Audio/Speaker2_Per/P2-11-Per.wav,Speaker2,گوینده۲,2,35,195,30,,,,,90.99843133299873,,,,,,,,,,,,,,,,,,,,,,,,,,,,,,,,,,,,,,,,,,,,,49.862195124998834,49.862355000001116,059469,001,2024-07-01_23h23.38.799,5-28,2024.1.4,None,2024-07-01 23h23.43.903317 +0900,
Images/Speaker1.jpg,Images/Speaker2.jpg,Images/Speaker3.jpg,Images/Speaker4.jpg,Audio/Speaker1_Per/P1-7-Per.wav,Speaker1,گوینده ۱,2,36,196,6,,,,,90.99843133299873,,,,,,,,,,,,,,,,,,,,,,,,,,,,,,,,,,,,,,,,,,,,,49.878117457999906,49.878293500001746,059469,001,2024-07-01_23h23.38.799,5-28,2024.1.4,None,2024-07-01 23h23.43.903317 +0900,
Images/Speaker1.jpg,Images/Speaker2.jpg,Images/Speaker3.jpg,Images/Speaker4.jpg,Audio/Speaker2_Per/P2-1-Per.wav,Speaker2,گوینده۲,2,37,197,20,,,,,90.99843133299873,,,,,,,,,,,,,,,,,,,,,,,,,,,,,,,,,,,,,,,,,,,,,49.89402491600049,49.89418424999894,059469,001,2024-07-01_23h23.38.799,5-28,2024.1.4,None,2024-07-01 23h23.43.903317 +0900,
Images/Speaker1.jpg,Images/Speaker2.jpg,Images/Speaker3.jpg,Images/Speaker4.jpg,Audio/Speaker3_Per/P3-16-Per.wav,Speaker3,گوینده۳,2,38,198,55,,,,,90.99843133299873,,,,,,,,,,,,,,,,,,,,,,,,,,,,,,,,,,,,,,,,,,,,,49.910576291000325,49.91079383300166,059469,001,2024-07-01_23h23.38.799,5-28,2024.1.4,None,2024-07-01 23h23.43.903317 +0900,
Images/Speaker1.jpg,Images/Speaker2.jpg,Images/Speaker3.jpg,Images/Speaker4.jpg,Audio/Speaker3_Per/P3-3-Per.wav,Speaker3,گوینده۳,2,39,199,42,,,,,90.99843133299873,,,,,,,,,,,,,,,,,,,,,,,,,,,,,,,,,,,,,,,,,,,,,49.92657324999891,49.92679370800033,059469,001,2024-07-01_23h23.38.799,5-28,2024.1.4,None,2024-07-01 23h23.43.903317 +0900,
Images/Speaker1.jpg,Images/Speaker2.jpg,Images/Speaker3.jpg,Images/Speaker4.jpg,Audio/Speaker3_Per/P3-12-Per.wav,Speaker3,گوینده۳,2,40,200,51,,,,,90.99843133299873,,,,,,,,,,,,,,,,,,,,,,,,,,,,,,,,,,,,,,,,,,,,,49.94267445800142,49.94286558300155,059469,001,2024-07-01_23h23.38.799,5-28,2024.1.4,None,2024-07-01 23h23.43.903317 +0900,
Images/Speaker1.jpg,Images/Speaker2.jpg,Images/Speaker3.jpg,Images/Speaker4.jpg,Audio/Speaker1_Per/P1-4-Per.wav,Speaker1,گوینده ۱,2,41,201,3,,,,,90.99843133299873,,,,,,,,,,,,,,,,,,,,,,,,,,,,,,,,,,,,,,,,,,,,,49.95848895800009,49.95865633300127,059469,001,2024-07-01_23h23.38.799,5-28,2024.1.4,None,2024-07-01 23h23.43.903317 +0900,
Images/Speaker1.jpg,Images/Speaker2.jpg,Images/Speaker3.jpg,Images/Speaker4.jpg,Audio/Speaker4_Per/P4-14-Per.wav,Speaker4,گوینده۴,2,42,202,73,,,,,90.99843133299873,,,,,,,,,,,,,,,,,,,,,,,,,,,,,,,,,,,,,,,,,,,,,49.974995749998925,49.975159665998945,059469,001,2024-07-01_23h23.38.799,5-28,2024.1.4,None,2024-07-01 23h23.43.903317 +0900,
Images/Speaker1.jpg,Images/Speaker2.jpg,Images/Speaker3.jpg,Images/Speaker4.jpg,Audio/Speaker1_Per/P1-1-Per.wav,Speaker1,گوینده ۱,2,43,203,0,,,,,90.99843133299873,,,,,,,,,,,,,,,,,,,,,,,,,,,,,,,,,,,,,,,,,,,,,49.990914041001815,49.99108320800224,059469,001,2024-07-01_23h23.38.799,5-28,2024.1.4,None,2024-07-01 23h23.43.903317 +0900,
Images/Speaker1.jpg,Images/Speaker2.jpg,Images/Speaker3.jpg,Images/Speaker4.jpg,Audio/Speaker2_Per/P2-16-Per.wav,Speaker2,گوینده۲,2,44,204,35,,,,,90.99843133299873,,,,,,,,,,,,,,,,,,,,,,,,,,,,,,,,,,,,,,,,,,,,,50.00699237500157,50.007169458000135,059469,001,2024-07-01_23h23.38.799,5-28,2024.1.4,None,2024-07-01 23h23.43.903317 +0900,
Images/Speaker1.jpg,Images/Speaker2.jpg,Images/Speaker3.jpg,Images/Speaker4.jpg,Audio/Speaker4_Per/P4-19-Per.wav,Speaker4,گوینده۴,2,45,205,78,,,,,90.99843133299873,,,,,,,,,,,,,,,,,,,,,,,,,,,,,,,,,,,,,,,,,,,,,50.02301449999868,50.0231852500001,059469,001,2024-07-01_23h23.38.799,5-28,2024.1.4,None,2024-07-01 23h23.43.903317 +0900,
Images/Speaker1.jpg,Images/Speaker2.jpg,Images/Speaker3.jpg,Images/Speaker4.jpg,Audio/Speaker1_Per/P1-20-Per.wav,Speaker1,گوینده ۱,2,46,206,19,,,,,90.99843133299873,,,,,,,,,,,,,,,,,,,,,,,,,,,,,,,,,,,,,,,,,,,,,50.039682791000814,50.039851041001384,059469,001,2024-07-01_23h23.38.799,5-28,2024.1.4,None,2024-07-01 23h23.43.903317 +0900,
Images/Speaker1.jpg,Images/Speaker2.jpg,Images/Speaker3.jpg,Images/Speaker4.jpg,Audio/Speaker1_Per/P1-12-Per.wav,Speaker1,گوینده ۱,2,47,207,11,,,,,90.99843133299873,,,,,,,,,,,,,,,,,,,,,,,,,,,,,,,,,,,,,,,,,,,,,50.05555362499945,50.05573654100226,059469,001,2024-07-01_23h23.38.799,5-28,2024.1.4,None,2024-07-01 23h23.43.903317 +0900,
Images/Speaker1.jpg,Images/Speaker2.jpg,Images/Speaker3.jpg,Images/Speaker4.jpg,Audio/Speaker3_Per/P3-5-Per.wav,Speaker3,گوینده۳,2,48,208,44,,,,,90.99843133299873,,,,,,,,,,,,,,,,,,,,,,,,,,,,,,,,,,,,,,,,,,,,,50.0715569999993,50.07177970799967,059469,001,2024-07-01_23h23.38.799,5-28,2024.1.4,None,2024-07-01 23h23.43.903317 +0900,
Images/Speaker1.jpg,Images/Speaker2.jpg,Images/Speaker3.jpg,Images/Speaker4.jpg,Audio/Speaker4_Per/P4-10-Per.wav,Speaker4,گوینده۴,2,49,209,69,,,,,90.99843133299873,,,,,,,,,,,,,,,,,,,,,,,,,,,,,,,,,,,,,,,,,,,,,50.087496166001074,50.08766695799932,059469,001,2024-07-01_23h23.38.799,5-28,2024.1.4,None,2024-07-01 23h23.43.903317 +0900,
Images/Speaker1.jpg,Images/Speaker2.jpg,Images/Speaker3.jpg,Images/Speaker4.jpg,Audio/Speaker4_Per/P4-8-Per.wav,Speaker4,گوینده۴,2,50,210,67,,,,,90.99843133299873,,,,,,,,,,,,,,,,,,,,,,,,,,,,,,,,,,,,,,,,,,,,,50.10404395799924,50.104207625001436,059469,001,2024-07-01_23h23.38.799,5-28,2024.1.4,None,2024-07-01 23h23.43.903317 +0900,
Images/Speaker1.jpg,Images/Speaker2.jpg,Images/Speaker3.jpg,Images/Speaker4.jpg,Audio/Speaker1_Per/P1-9-Per.wav,Speaker1,گوینده ۱,2,51,211,8,,,,,90.99843133299873,,,,,,,,,,,,,,,,,,,,,,,,,,,,,,,,,,,,,,,,,,,,,50.120001082999806,50.120172666000144,059469,001,2024-07-01_23h23.38.799,5-28,2024.1.4,None,2024-07-01 23h23.43.903317 +0900,
Images/Speaker1.jpg,Images/Speaker2.jpg,Images/Speaker3.jpg,Images/Speaker4.jpg,Audio/Speaker2_Per/P2-10-Per.wav,Speaker2,گوینده۲,2,52,212,29,,,,,90.99843133299873,,,,,,,,,,,,,,,,,,,,,,,,,,,,,,,,,,,,,,,,,,,,,50.13587995800117,50.13602941600038,059469,001,2024-07-01_23h23.38.799,5-28,2024.1.4,None,2024-07-01 23h23.43.903317 +0900,
Images/Speaker1.jpg,Images/Speaker2.jpg,Images/Speaker3.jpg,Images/Speaker4.jpg,Audio/Speaker4_Per/P4-9-Per.wav,Speaker4,گوینده۴,2,53,213,68,,,,,90.99843133299873,,,,,,,,,,,,,,,,,,,,,,,,,,,,,,,,,,,,,,,,,,,,,50.15172525000162,50.151889500000834,059469,001,2024-07-01_23h23.38.799,5-28,2024.1.4,None,2024-07-01 23h23.43.903317 +0900,
Images/Speaker1.jpg,Images/Speaker2.jpg,Images/Speaker3.jpg,Images/Speaker4.jpg,Audio/Speaker4_Per/P4-2-Per.wav,Speaker4,گوینده۴,2,54,214,61,,,,,90.99843133299873,,,,,,,,,,,,,,,,,,,,,,,,,,,,,,,,,,,,,,,,,,,,,50.1682116660013,50.16837095799929,059469,001,2024-07-01_23h23.38.799,5-28,2024.1.4,None,2024-07-01 23h23.43.903317 +0900,
Images/Speaker1.jpg,Images/Speaker2.jpg,Images/Speaker3.jpg,Images/Speaker4.jpg,Audio/Speaker1_Per/P1-15-Per.wav,Speaker1,گوینده ۱,2,55,215,14,,,,,90.99843133299873,,,,,,,,,,,,,,,,,,,,,,,,,,,,,,,,,,,,,,,,,,,,,50.184141000001546,50.184314707999874,059469,001,2024-07-01_23h23.38.799,5-28,2024.1.4,None,2024-07-01 23h23.43.903317 +0900,
Images/Speaker1.jpg,Images/Speaker2.jpg,Images/Speaker3.jpg,Images/Speaker4.jpg,Audio/Speaker3_Per/P3-20-Per.wav,Speaker3,گوینده۳,2,56,216,59,,,,,90.99843133299873,,,,,,,,,,,,,,,,,,,,,,,,,,,,,,,,,,,,,,,,,,,,,50.200143500002014,50.200310250002076,059469,001,2024-07-01_23h23.38.799,5-28,2024.1.4,None,2024-07-01 23h23.43.903317 +0900,
Images/Speaker1.jpg,Images/Speaker2.jpg,Images/Speaker3.jpg,Images/Speaker4.jpg,Audio/Speaker3_Per/P3-7-Per.wav,Speaker3,گوینده۳,2,57,217,46,,,,,90.99843133299873,,,,,,,,,,,,,,,,,,,,,,,,,,,,,,,,,,,,,,,,,,,,,50.21603474999938,50.216179957998975,059469,001,2024-07-01_23h23.38.799,5-28,2024.1.4,None,2024-07-01 23h23.43.903317 +0900,
Images/Speaker1.jpg,Images/Speaker2.jpg,Images/Speaker3.jpg,Images/Speaker4.jpg,Audio/Speaker3_Per/P3-18-Per.wav,Speaker3,گوینده۳,2,58,218,57,,,,,90.99843133299873,,,,,,,,,,,,,,,,,,,,,,,,,,,,,,,,,,,,,,,,,,,,,50.2325748330004,50.23274241599938,059469,001,2024-07-01_23h23.38.799,5-28,2024.1.4,None,2024-07-01 23h23.43.903317 +0900,
Images/Speaker1.jpg,Images/Speaker2.jpg,Images/Speaker3.jpg,Images/Speaker4.jpg,Audio/Speaker3_Per/P3-14-Per.wav,Speaker3,گوینده۳,2,59,219,53,,,,,90.99843133299873,,,,,,,,,,,,,,,,,,,,,,,,,,,,,,,,,,,,,,,,,,,,,50.24844912499975,50.248591583000234,059469,001,2024-07-01_23h23.38.799,5-28,2024.1.4,None,2024-07-01 23h23.43.903317 +0900,
Images/Speaker1.jpg,Images/Speaker2.jpg,Images/Speaker3.jpg,Images/Speaker4.jpg,Audio/Speaker1_Per/P1-3-Per.wav,Speaker1,گوینده ۱,2,60,220,2,,,,,90.99843133299873,,,,,,,,,,,,,,,,,,,,,,,,,,,,,,,,,,,,,,,,,,,,,50.26440187499975,50.26457175000178,059469,001,2024-07-01_23h23.38.799,5-28,2024.1.4,None,2024-07-01 23h23.43.903317 +0900,
Images/Speaker1.jpg,Images/Speaker2.jpg,Images/Speaker3.jpg,Images/Speaker4.jpg,Audio/Speaker4_Per/P4-17-Per.wav,Speaker4,گوینده۴,2,61,221,76,,,,,90.99843133299873,,,,,,,,,,,,,,,,,,,,,,,,,,,,,,,,,,,,,,,,,,,,,50.28036341600091,50.28050583300137,059469,001,2024-07-01_23h23.38.799,5-28,2024.1.4,None,2024-07-01 23h23.43.903317 +0900,
Images/Speaker1.jpg,Images/Speaker2.jpg,Images/Speaker3.jpg,Images/Speaker4.jpg,Audio/Speaker4_Per/P4-6-Per.wav,Speaker4,گوینده۴,2,62,222,65,,,,,90.99843133299873,,,,,,,,,,,,,,,,,,,,,,,,,,,,,,,,,,,,,,,,,,,,,50.296902000001865,50.29705920800188,059469,001,2024-07-01_23h23.38.799,5-28,2024.1.4,None,2024-07-01 23h23.43.903317 +0900,
Images/Speaker1.jpg,Images/Speaker2.jpg,Images/Speaker3.jpg,Images/Speaker4.jpg,Audio/Speaker3_Per/P3-4-Per.wav,Speaker3,گوینده۳,2,63,223,43,,,,,90.99843133299873,,,,,,,,,,,,,,,,,,,,,,,,,,,,,,,,,,,,,,,,,,,,,50.31292162500176,50.313072583001485,059469,001,2024-07-01_23h23.38.799,5-28,2024.1.4,None,2024-07-01 23h23.43.903317 +0900,
Images/Speaker1.jpg,Images/Speaker2.jpg,Images/Speaker3.jpg,Images/Speaker4.jpg,Audio/Speaker3_Per/P3-15-Per.wav,Speaker3,گوینده۳,2,64,224,54,,,,,90.99843133299873,,,,,,,,,,,,,,,,,,,,,,,,,,,,,,,,,,,,,,,,,,,,,50.32879429099921,50.32895783300046,059469,001,2024-07-01_23h23.38.799,5-28,2024.1.4,None,2024-07-01 23h23.43.903317 +0900,
Images/Speaker1.jpg,Images/Speaker2.jpg,Images/Speaker3.jpg,Images/Speaker4.jpg,Audio/Speaker3_Per/P3-2-Per.wav,Speaker3,گوینده۳,2,65,225,41,,,,,90.99843133299873,,,,,,,,,,,,,,,,,,,,,,,,,,,,,,,,,,,,,,,,,,,,,50.34476666599949,50.34493212500092,059469,001,2024-07-01_23h23.38.799,5-28,2024.1.4,None,2024-07-01 23h23.43.903317 +0900,
Images/Speaker1.jpg,Images/Speaker2.jpg,Images/Speaker3.jpg,Images/Speaker4.jpg,Audio/Speaker1_Per/P1-8-Per.wav,Speaker1,گوینده ۱,2,66,226,7,,,,,90.99843133299873,,,,,,,,,,,,,,,,,,,,,,,,,,,,,,,,,,,,,,,,,,,,,50.361352915999305,50.36152658300125,059469,001,2024-07-01_23h23.38.799,5-28,2024.1.4,None,2024-07-01 23h23.43.903317 +0900,
Images/Speaker1.jpg,Images/Speaker2.jpg,Images/Speaker3.jpg,Images/Speaker4.jpg,Audio/Speaker3_Per/P3-13-Per.wav,Speaker3,گوینده۳,2,67,227,52,,,,,90.99843133299873,,,,,,,,,,,,,,,,,,,,,,,,,,,,,,,,,,,,,,,,,,,,,50.377282083001774,50.37746150000021,059469,001,2024-07-01_23h23.38.799,5-28,2024.1.4,None,2024-07-01 23h23.43.903317 +0900,
Images/Speaker1.jpg,Images/Speaker2.jpg,Images/Speaker3.jpg,Images/Speaker4.jpg,Audio/Speaker1_Per/P1-18-Per.wav,Speaker1,گوینده ۱,2,68,228,17,,,,,90.99843133299873,,,,,,,,,,,,,,,,,,,,,,,,,,,,,,,,,,,,,,,,,,,,,50.393244375001814,50.393414750000375,059469,001,2024-07-01_23h23.38.799,5-28,2024.1.4,None,2024-07-01 23h23.43.903317 +0900,
Images/Speaker1.jpg,Images/Speaker2.jpg,Images/Speaker3.jpg,Images/Speaker4.jpg,Audio/Speaker4_Per/P4-5-Per.wav,Speaker4,گوینده۴,2,69,229,64,,,,,90.99843133299873,,,,,,,,,,,,,,,,,,,,,,,,,,,,,,,,,,,,,,,,,,,,,50.40918241599866,50.409360749999905,059469,001,2024-07-01_23h23.38.799,5-28,2024.1.4,None,2024-07-01 23h23.43.903317 +0900,
Images/Speaker1.jpg,Images/Speaker2.jpg,Images/Speaker3.jpg,Images/Speaker4.jpg,Audio/Speaker3_Per/P3-10-Per.wav,Speaker3,گوینده۳,2,70,230,49,,,,,90.99843133299873,,,,,,,,,,,,,,,,,,,,,,,,,,,,,,,,,,,,,,,,,,,,,50.425711541000055,50.425873083000624,059469,001,2024-07-01_23h23.38.799,5-28,2024.1.4,None,2024-07-01 23h23.43.903317 +0900,
Images/Speaker1.jpg,Images/Speaker2.jpg,Images/Speaker3.jpg,Images/Speaker4.jpg,Audio/Speaker1_Per/P1-6-Per.wav,Speaker1,گوینده ۱,2,71,231,5,,,,,90.99843133299873,,,,,,,,,,,,,,,,,,,,,,,,,,,,,,,,,,,,,,,,,,,,,50.44185691600069,50.44202183300149,059469,001,2024-07-01_23h23.38.799,5-28,2024.1.4,None,2024-07-01 23h23.43.903317 +0900,
Images/Speaker1.jpg,Images/Speaker2.jpg,Images/Speaker3.jpg,Images/Speaker4.jpg,Audio/Speaker4_Per/P4-13-Per.wav,Speaker4,گوینده۴,2,72,232,72,,,,,90.99843133299873,,,,,,,,,,,,,,,,,,,,,,,,,,,,,,,,,,,,,,,,,,,,,50.457691874999,50.45785099999921,059469,001,2024-07-01_23h23.38.799,5-28,2024.1.4,None,2024-07-01 23h23.43.903317 +0900,
Images/Speaker1.jpg,Images/Speaker2.jpg,Images/Speaker3.jpg,Images/Speaker4.jpg,Audio/Speaker1_Per/P1-10-Per.wav,Speaker1,گوینده ۱,2,73,233,9,,,,,90.99843133299873,,,,,,,,,,,,,,,,,,,,,,,,,,,,,,,,,,,,,,,,,,,,,50.47355195799901,50.47372558300049,059469,001,2024-07-01_23h23.38.799,5-28,2024.1.4,None,2024-07-01 23h23.43.903317 +0900,
Images/Speaker1.jpg,Images/Speaker2.jpg,Images/Speaker3.jpg,Images/Speaker4.jpg,Audio/Speaker2_Per/P2-14-Per.wav,Speaker2,گوینده۲,2,74,234,33,,,,,90.99843133299873,,,,,,,,,,,,,,,,,,,,,,,,,,,,,,,,,,,,,,,,,,,,,50.49010766599895,50.49027962499895,059469,001,2024-07-01_23h23.38.799,5-28,2024.1.4,None,2024-07-01 23h23.43.903317 +0900,
Images/Speaker1.jpg,Images/Speaker2.jpg,Images/Speaker3.jpg,Images/Speaker4.jpg,Audio/Speaker1_Per/P1-2-Per.wav,Speaker1,گوینده ۱,2,75,235,1,,,,,90.99843133299873,,,,,,,,,,,,,,,,,,,,,,,,,,,,,,,,,,,,,,,,,,,,,50.50608945800195,50.50626729099895,059469,001,2024-07-01_23h23.38.799,5-28,2024.1.4,None,2024-07-01 23h23.43.903317 +0900,
Images/Speaker1.jpg,Images/Speaker2.jpg,Images/Speaker3.jpg,Images/Speaker4.jpg,Audio/Speaker2_Per/P2-19-Per.wav,Speaker2,گوینده۲,2,76,236,38,,,,,90.99843133299873,,,,,,,,,,,,,,,,,,,,,,,,,,,,,,,,,,,,,,,,,,,,,50.522018166000635,50.52219354100089,059469,001,2024-07-01_23h23.38.799,5-28,2024.1.4,None,2024-07-01 23h23.43.903317 +0900,
Images/Speaker1.jpg,Images/Speaker2.jpg,Images/Speaker3.jpg,Images/Speaker4.jpg,Audio/Speaker1_Per/P1-13-Per.wav,Speaker1,گوینده ۱,2,77,237,12,,,,,90.99843133299873,,,,,,,,,,,,,,,,,,,,,,,,,,,,,,,,,,,,,,,,,,,,,50.53804608300197,50.53822008299903,059469,001,2024-07-01_23h23.38.799,5-28,2024.1.4,None,2024-07-01 23h23.43.903317 +0900,
Images/Speaker1.jpg,Images/Speaker2.jpg,Images/Speaker3.jpg,Images/Speaker4.jpg,Audio/Speaker4_Per/P4-18-Per.wav,Speaker4,گوینده۴,2,78,238,77,,,,,90.99843133299873,,,,,,,,,,,,,,,,,,,,,,,,,,,,,,,,,,,,,,,,,,,,,50.55444783300118,50.554614041000605,059469,001,2024-07-01_23h23.38.799,5-28,2024.1.4,None,2024-07-01 23h23.43.903317 +0900,
Images/Speaker1.jpg,Images/Speaker2.jpg,Images/Speaker3.jpg,Images/Speaker4.jpg,Audio/Speaker4_Per/P4-4-Per.wav,Speaker4,گوینده۴,2,79,239,63,,,,,90.99843133299873,,,,,,,,,,,,,,,,,,,,,,,,,,,,,,,,,,,,,,,,,,,,,50.57042841600196,50.57059783300065,059469,001,2024-07-01_23h23.38.799,5-28,2024.1.4,None,2024-07-01 23h23.43.903317 +0900,
Images/Speaker1.jpg,Images/Speaker2.jpg,Images/Speaker3.jpg,Images/Speaker4.jpg,Audio/Speaker2_Per/P2-12-Per.wav,Speaker2,گوینده۲,3,0,240,31,,,,,90.99843133299873,,,,,,,,,,,,,,,,,,,,,,,,,,,,,,,,,,,,,,,,,,,,,50.58637108300172,50.58654970800126,059469,001,2024-07-01_23h23.38.799,5-28,2024.1.4,None,2024-07-01 23h23.43.903317 +0900,
Images/Speaker1.jpg,Images/Speaker2.jpg,Images/Speaker3.jpg,Images/Speaker4.jpg,Audio/Speaker2_Per/P2-8-Per.wav,Speaker2,گوینده۲,3,1,241,27,,,,,90.99843133299873,,,,,,,,,,,,,,,,,,,,,,,,,,,,,,,,,,,,,,,,,,,,,50.60222991599949,50.60238895799921,059469,001,2024-07-01_23h23.38.799,5-28,2024.1.4,None,2024-07-01 23h23.43.903317 +0900,
Images/Speaker1.jpg,Images/Speaker2.jpg,Images/Speaker3.jpg,Images/Speaker4.jpg,Audio/Speaker2_Per/P2-16-Per.wav,Speaker2,گوینده۲,3,2,242,35,,,,,90.99843133299873,,,,,,,,,,,,,,,,,,,,,,,,,,,,,,,,,,,,,,,,,,,,,50.61871704100122,50.618875500000286,059469,001,2024-07-01_23h23.38.799,5-28,2024.1.4,None,2024-07-01 23h23.43.903317 +0900,
Images/Speaker1.jpg,Images/Speaker2.jpg,Images/Speaker3.jpg,Images/Speaker4.jpg,Audio/Speaker4_Per/P4-14-Per.wav,Speaker4,گوینده۴,3,3,243,73,,,,,90.99843133299873,,,,,,,,,,,,,,,,,,,,,,,,,,,,,,,,,,,,,,,,,,,,,50.63473108299877,50.63492224999936,059469,001,2024-07-01_23h23.38.799,5-28,2024.1.4,None,2024-07-01 23h23.43.903317 +0900,
Images/Speaker1.jpg,Images/Speaker2.jpg,Images/Speaker3.jpg,Images/Speaker4.jpg,Audio/Speaker3_Per/P3-11-Per.wav,Speaker3,گوینده۳,3,4,244,50,,,,,90.99843133299873,,,,,,,,,,,,,,,,,,,,,,,,,,,,,,,,,,,,,,,,,,,,,50.65051733300061,50.650698125002236,059469,001,2024-07-01_23h23.38.799,5-28,2024.1.4,None,2024-07-01 23h23.43.903317 +0900,
Images/Speaker1.jpg,Images/Speaker2.jpg,Images/Speaker3.jpg,Images/Speaker4.jpg,Audio/Speaker1_Per/P1-4-Per.wav,Speaker1,گوینده ۱,3,5,245,3,,,,,90.99843133299873,,,,,,,,,,,,,,,,,,,,,,,,,,,,,,,,,,,,,,,,,,,,,50.66642804100047,50.66661658299927,059469,001,2024-07-01_23h23.38.799,5-28,2024.1.4,None,2024-07-01 23h23.43.903317 +0900,
Images/Speaker1.jpg,Images/Speaker2.jpg,Images/Speaker3.jpg,Images/Speaker4.jpg,Audio/Speaker2_Per/P2-1-Per.wav,Speaker2,گوینده۲,3,6,246,20,,,,,90.99843133299873,,,,,,,,,,,,,,,,,,,,,,,,,,,,,,,,,,,,,,,,,,,,,50.682998000000225,50.68317220799872,059469,001,2024-07-01_23h23.38.799,5-28,2024.1.4,None,2024-07-01 23h23.43.903317 +0900,
Images/Speaker1.jpg,Images/Speaker2.jpg,Images/Speaker3.jpg,Images/Speaker4.jpg,Audio/Speaker1_Per/P1-11-Per.wav,Speaker1,گوینده ۱,3,7,247,10,,,,,90.99843133299873,,,,,,,,,,,,,,,,,,,,,,,,,,,,,,,,,,,,,,,,,,,,,50.6988972500003,50.69905587500034,059469,001,2024-07-01_23h23.38.799,5-28,2024.1.4,None,2024-07-01 23h23.43.903317 +0900,
Images/Speaker1.jpg,Images/Speaker2.jpg,Images/Speaker3.jpg,Images/Speaker4.jpg,Audio/Speaker3_Per/P3-2-Per.wav,Speaker3,گوینده۳,3,8,248,41,,,,,90.99843133299873,,,,,,,,,,,,,,,,,,,,,,,,,,,,,,,,,,,,,,,,,,,,,50.71473112500098,50.71489379099876,059469,001,2024-07-01_23h23.38.799,5-28,2024.1.4,None,2024-07-01 23h23.43.903317 +0900,
Images/Speaker1.jpg,Images/Speaker2.jpg,Images/Speaker3.jpg,Images/Speaker4.jpg,Audio/Speaker4_Per/P4-19-Per.wav,Speaker4,گوینده۴,3,9,249,78,,,,,90.99843133299873,,,,,,,,,,,,,,,,,,,,,,,,,,,,,,,,,,,,,,,,,,,,,50.730608707999636,50.73077062499942,059469,001,2024-07-01_23h23.38.799,5-28,2024.1.4,None,2024-07-01 23h23.43.903317 +0900,
Images/Speaker1.jpg,Images/Speaker2.jpg,Images/Speaker3.jpg,Images/Speaker4.jpg,Audio/Speaker3_Per/P3-10-Per.wav,Speaker3,گوینده۳,3,10,250,49,,,,,90.99843133299873,,,,,,,,,,,,,,,,,,,,,,,,,,,,,,,,,,,,,,,,,,,,,50.74714145799953,50.74730079100118,059469,001,2024-07-01_23h23.38.799,5-28,2024.1.4,None,2024-07-01 23h23.43.903317 +0900,
Images/Speaker1.jpg,Images/Speaker2.jpg,Images/Speaker3.jpg,Images/Speaker4.jpg,Audio/Speaker1_Per/P1-20-Per.wav,Speaker1,گوینده ۱,3,11,251,19,,,,,90.99843133299873,,,,,,,,,,,,,,,,,,,,,,,,,,,,,,,,,,,,,,,,,,,,,50.76304370800062,50.763205416002165,059469,001,2024-07-01_23h23.38.799,5-28,2024.1.4,None,2024-07-01 23h23.43.903317 +0900,
Images/Speaker1.jpg,Images/Speaker2.jpg,Images/Speaker3.jpg,Images/Speaker4.jpg,Audio/Speaker4_Per/P4-9-Per.wav,Speaker4,گوینده۴,3,12,252,68,,,,,90.99843133299873,,,,,,,,,,,,,,,,,,,,,,,,,,,,,,,,,,,,,,,,,,,,,50.77896641600091,50.77912370800186,059469,001,2024-07-01_23h23.38.799,5-28,2024.1.4,None,2024-07-01 23h23.43.903317 +0900,
Images/Speaker1.jpg,Images/Speaker2.jpg,Images/Speaker3.jpg,Images/Speaker4.jpg,Audio/Speaker4_Per/P4-6-Per.wav,Speaker4,گوینده۴,3,13,253,65,,,,,90.99843133299873,,,,,,,,,,,,,,,,,,,,,,,,,,,,,,,,,,,,,,,,,,,,,50.79481708300227,50.79503837499942,059469,001,2024-07-01_23h23.38.799,5-28,2024.1.4,None,2024-07-01 23h23.43.903317 +0900,
Images/Speaker1.jpg,Images/Speaker2.jpg,Images/Speaker3.jpg,Images/Speaker4.jpg,Audio/Speaker1_Per/P1-4-Per.wav,Speaker1,گوینده ۱,3,14,254,13,,,,,90.99843133299873,,,,,,,,,,,,,,,,,,,,,,,,,,,,,,,,,,,,,,,,,,,,,50.81149995799933,50.81165908299954,059469,001,2024-07-01_23h23.38.799,5-28,2024.1.4,None,2024-07-01 23h23.43.903317 +0900,
Images/Speaker1.jpg,Images/Speaker2.jpg,Images/Speaker3.jpg,Images/Speaker4.jpg,Audio/Speaker3_Per/P3-5-Per.wav,Speaker3,گوینده۳,3,15,255,44,,,,,90.99843133299873,,,,,,,,,,,,,,,,,,,,,,,,,,,,,,,,,,,,,,,,,,,,,50.82737900000211,50.82755658300084,059469,001,2024-07-01_23h23.38.799,5-28,2024.1.4,None,2024-07-01 23h23.43.903317 +0900,
Images/Speaker1.jpg,Images/Speaker2.jpg,Images/Speaker3.jpg,Images/Speaker4.jpg,Audio/Speaker1_Per/P1-9-Per.wav,Speaker1,گوینده ۱,3,16,256,8,,,,,90.99843133299873,,,,,,,,,,,,,,,,,,,,,,,,,,,,,,,,,,,,,,,,,,,,,50.84333029100162,50.843510999999125,059469,001,2024-07-01_23h23.38.799,5-28,2024.1.4,None,2024-07-01 23h23.43.903317 +0900,
Images/Speaker1.jpg,Images/Speaker2.jpg,Images/Speaker3.jpg,Images/Speaker4.jpg,Audio/Speaker3_Per/P3-13-Per.wav,Speaker3,گوینده۳,3,17,257,52,,,,,90.99843133299873,,,,,,,,,,,,,,,,,,,,,,,,,,,,,,,,,,,,,,,,,,,,,50.85924708300081,50.85941158300193,059469,001,2024-07-01_23h23.38.799,5-28,2024.1.4,None,2024-07-01 23h23.43.903317 +0900,
Images/Speaker1.jpg,Images/Speaker2.jpg,Images/Speaker3.jpg,Images/Speaker4.jpg,Audio/Speaker3_Per/P3-20-Per.wav,Speaker3,گوینده۳,3,18,258,59,,,,,90.99843133299873,,,,,,,,,,,,,,,,,,,,,,,,,,,,,,,,,,,,,,,,,,,,,50.87579941600052,50.87596708300043,059469,001,2024-07-01_23h23.38.799,5-28,2024.1.4,None,2024-07-01 23h23.43.903317 +0900,
Images/Speaker1.jpg,Images/Speaker2.jpg,Images/Speaker3.jpg,Images/Speaker4.jpg,Audio/Speaker3_Per/P3-18-Per.wav,Speaker3,گوینده۳,3,19,259,57,,,,,90.99843133299873,,,,,,,,,,,,,,,,,,,,,,,,,,,,,,,,,,,,,,,,,,,,,50.891726207999454,50.89189758300199,059469,001,2024-07-01_23h23.38.799,5-28,2024.1.4,None,2024-07-01 23h23.43.903317 +0900,
Images/Speaker1.jpg,Images/Speaker2.jpg,Images/Speaker3.jpg,Images/Speaker4.jpg,Audio/Speaker3_Per/P3-15-Per.wav,Speaker3,گوینده۳,3,20,260,54,,,,,90.99843133299873,,,,,,,,,,,,,,,,,,,,,,,,,,,,,,,,,,,,,,,,,,,,,50.90766687500218,50.9078292080012,059469,001,2024-07-01_23h23.38.799,5-28,2024.1.4,None,2024-07-01 23h23.43.903317 +0900,
Images/Speaker1.jpg,Images/Speaker2.jpg,Images/Speaker3.jpg,Images/Speaker4.jpg,Audio/Speaker4_Per/P4-16-Per.wav,Speaker4,گوینده۴,3,21,261,75,,,,,90.99843133299873,,,,,,,,,,,,,,,,,,,,,,,,,,,,,,,,,,,,,,,,,,,,,50.923575583001366,50.923744625000836,059469,001,2024-07-01_23h23.38.799,5-28,2024.1.4,None,2024-07-01 23h23.43.903317 +0900,
Images/Speaker1.jpg,Images/Speaker2.jpg,Images/Speaker3.jpg,Images/Speaker4.jpg,Audio/Speaker4_Per/P4-18-Per.wav,Speaker4,گوینده۴,3,22,262,77,,,,,90.99843133299873,,,,,,,,,,,,,,,,,,,,,,,,,,,,,,,,,,,,,,,,,,,,,50.940037250002206,50.940240750001976,059469,001,2024-07-01_23h23.38.799,5-28,2024.1.4,None,2024-07-01 23h23.43.903317 +0900,
Images/Speaker1.jpg,Images/Speaker2.jpg,Images/Speaker3.jpg,Images/Speaker4.jpg,Audio/Speaker3_Per/P3-4-Per.wav,Speaker3,گوینده۳,3,23,263,43,,,,,90.99843133299873,,,,,,,,,,,,,,,,,,,,,,,,,,,,,,,,,,,,,,,,,,,,,50.95594450000135,50.956143082999915,059469,001,2024-07-01_23h23.38.799,5-28,2024.1.4,None,2024-07-01 23h23.43.903317 +0900,
Images/Speaker1.jpg,Images/Speaker2.jpg,Images/Speaker3.jpg,Images/Speaker4.jpg,Audio/Speaker2_Per/P2-10-Per.wav,Speaker2,گوینده۲,3,24,264,29,,,,,90.99843133299873,,,,,,,,,,,,,,,,,,,,,,,,,,,,,,,,,,,,,,,,,,,,,50.97178141599943,50.972007125001255,059469,001,2024-07-01_23h23.38.799,5-28,2024.1.4,None,2024-07-01 23h23.43.903317 +0900,
Images/Speaker1.jpg,Images/Speaker2.jpg,Images/Speaker3.jpg,Images/Speaker4.jpg,Audio/Speaker1_Per/P1-12-Per.wav,Speaker1,گوینده ۱,3,25,265,11,,,,,90.99843133299873,,,,,,,,,,,,,,,,,,,,,,,,,,,,,,,,,,,,,,,,,,,,,50.98766145799891,50.987831791000644,059469,001,2024-07-01_23h23.38.799,5-28,2024.1.4,None,2024-07-01 23h23.43.903317 +0900,
Images/Speaker1.jpg,Images/Speaker2.jpg,Images/Speaker3.jpg,Images/Speaker4.jpg,Audio/Speaker3_Per/P3-19-Per.wav,Speaker3,گوینده۳,3,26,266,58,,,,,90.99843133299873,,,,,,,,,,,,,,,,,,,,,,,,,,,,,,,,,,,,,,,,,,,,,51.004151666002144,51.00431708299948,059469,001,2024-07-01_23h23.38.799,5-28,2024.1.4,None,2024-07-01 23h23.43.903317 +0900,
Images/Speaker1.jpg,Images/Speaker2.jpg,Images/Speaker3.jpg,Images/Speaker4.jpg,Audio/Speaker2_Per/P2-18-Per.wav,Speaker2,گوینده۲,3,27,267,37,,,,,90.99843133299873,,,,,,,,,,,,,,,,,,,,,,,,,,,,,,,,,,,,,,,,,,,,,51.02005558300152,51.02022787500027,059469,001,2024-07-01_23h23.38.799,5-28,2024.1.4,None,2024-07-01 23h23.43.903317 +0900,
Images/Speaker1.jpg,Images/Speaker2.jpg,Images/Speaker3.jpg,Images/Speaker4.jpg,Audio/Speaker1_Per/P1-16-Per.wav,Speaker1,گوینده ۱,3,28,268,15,,,,,90.99843133299873,,,,,,,,,,,,,,,,,,,,,,,,,,,,,,,,,,,,,,,,,,,,,51.035935457999585,51.036094582999795,059469,001,2024-07-01_23h23.38.799,5-28,2024.1.4,None,2024-07-01 23h23.43.903317 +0900,
Images/Speaker1.jpg,Images/Speaker2.jpg,Images/Speaker3.jpg,Images/Speaker4.jpg,Audio/Speaker4_Per/P4-8-Per.wav,Speaker4,گوینده۴,3,29,269,67,,,,,90.99843133299873,,,,,,,,,,,,,,,,,,,,,,,,,,,,,,,,,,,,,,,,,,,,,51.051786332998745,51.05201183299869,059469,001,2024-07-01_23h23.38.799,5-28,2024.1.4,None,2024-07-01 23h23.43.903317 +0900,
Images/Speaker1.jpg,Images/Speaker2.jpg,Images/Speaker3.jpg,Images/Speaker4.jpg,Audio/Speaker3_Per/P3-1-Per.wav,Speaker3,گوینده۳,3,30,270,40,,,,,90.99843133299873,,,,,,,,,,,,,,,,,,,,,,,,,,,,,,,,,,,,,,,,,,,,,51.068442708001385,51.068605874999776,059469,001,2024-07-01_23h23.38.799,5-28,2024.1.4,None,2024-07-01 23h23.43.903317 +0900,
Images/Speaker1.jpg,Images/Speaker2.jpg,Images/Speaker3.jpg,Images/Speaker4.jpg,Audio/Speaker2_Per/P2-19-Per.wav,Speaker2,گوینده۲,3,31,271,38,,,,,90.99843133299873,,,,,,,,,,,,,,,,,,,,,,,,,,,,,,,,,,,,,,,,,,,,,51.08433200000218,51.084481791000144,059469,001,2024-07-01_23h23.38.799,5-28,2024.1.4,None,2024-07-01 23h23.43.903317 +0900,
Images/Speaker1.jpg,Images/Speaker2.jpg,Images/Speaker3.jpg,Images/Speaker4.jpg,Audio/Speaker3_Per/P3-17-Per.wav,Speaker3,گوینده۳,3,32,272,56,,,,,90.99843133299873,,,,,,,,,,,,,,,,,,,,,,,,,,,,,,,,,,,,,,,,,,,,,51.100208708001446,51.10039175000202,059469,001,2024-07-01_23h23.38.799,5-28,2024.1.4,None,2024-07-01 23h23.43.903317 +0900,
Images/Speaker1.jpg,Images/Speaker2.jpg,Images/Speaker3.jpg,Images/Speaker4.jpg,Audio/Speaker1_Per/P1-18-Per.wav,Speaker1,گوینده ۱,3,33,273,17,,,,,90.99843133299873,,,,,,,,,,,,,,,,,,,,,,,,,,,,,,,,,,,,,,,,,,,,,51.11614641599954,51.11632279100013,059469,001,2024-07-01_23h23.38.799,5-28,2024.1.4,None,2024-07-01 23h23.43.903317 +0900,
Images/Speaker1.jpg,Images/Speaker2.jpg,Images/Speaker3.jpg,Images/Speaker4.jpg,Audio/Speaker2_Per/P2-3-Per.wav,Speaker2,گوینده۲,3,34,274,22,,,,,90.99843133299873,,,,,,,,,,,,,,,,,,,,,,,,,,,,,,,,,,,,,,,,,,,,,51.132676541001274,51.13285141600136,059469,001,2024-07-01_23h23.38.799,5-28,2024.1.4,None,2024-07-01 23h23.43.903317 +0900,
Images/Speaker1.jpg,Images/Speaker2.jpg,Images/Speaker3.jpg,Images/Speaker4.jpg,Audio/Speaker2_Per/P2-14-Per.wav,Speaker2,گوینده۲,3,35,275,33,,,,,90.99843133299873,,,,,,,,,,,,,,,,,,,,,,,,,,,,,,,,,,,,,,,,,,,,,51.148556250002,51.14875687500171,059469,001,2024-07-01_23h23.38.799,5-28,2024.1.4,None,2024-07-01 23h23.43.903317 +0900,
Images/Speaker1.jpg,Images/Speaker2.jpg,Images/Speaker3.jpg,Images/Speaker4.jpg,Audio/Speaker4_Per/P4-5-Per.wav,Speaker4,گوینده۴,3,36,276,64,,,,,90.99843133299873,,,,,,,,,,,,,,,,,,,,,,,,,,,,,,,,,,,,,,,,,,,,,51.16450566600179,51.16470883299917,059469,001,2024-07-01_23h23.38.799,5-28,2024.1.4,None,2024-07-01 23h23.43.903317 +0900,
Images/Speaker1.jpg,Images/Speaker2.jpg,Images/Speaker3.jpg,Images/Speaker4.jpg,Audio/Speaker1_Per/P1-2-Per.wav,Speaker1,گوینده ۱,3,37,277,1,,,,,90.99843133299873,,,,,,,,,,,,,,,,,,,,,,,,,,,,,,,,,,,,,,,,,,,,,51.18045025000174,51.180619165999815,059469,001,2024-07-01_23h23.38.799,5-28,2024.1.4,None,2024-07-01 23h23.43.903317 +0900,
Images/Speaker1.jpg,Images/Speaker2.jpg,Images/Speaker3.jpg,Images/Speaker4.jpg,Audio/Speaker1_Per/P1-1-Per.wav,Speaker1,گوینده ۱,3,38,278,0,,,,,90.99843133299873,,,,,,,,,,,,,,,,,,,,,,,,,,,,,,,,,,,,,,,,,,,,,51.19690045799871,51.19706550000046,059469,001,2024-07-01_23h23.38.799,5-28,2024.1.4,None,2024-07-01 23h23.43.903317 +0900,
Images/Speaker1.jpg,Images/Speaker2.jpg,Images/Speaker3.jpg,Images/Speaker4.jpg,Audio/Speaker4_Per/P4-3-Per.wav,Speaker4,گوینده۴,3,39,279,62,,,,,90.99843133299873,,,,,,,,,,,,,,,,,,,,,,,,,,,,,,,,,,,,,,,,,,,,,51.212846540998726,51.213006165999104,059469,001,2024-07-01_23h23.38.799,5-28,2024.1.4,None,2024-07-01 23h23.43.903317 +0900,
Images/Speaker1.jpg,Images/Speaker2.jpg,Images/Speaker3.jpg,Images/Speaker4.jpg,Audio/Speaker3_Per/P3-14-Per.wav,Speaker3,گوینده۳,3,40,280,53,,,,,90.99843133299873,,,,,,,,,,,,,,,,,,,,,,,,,,,,,,,,,,,,,,,,,,,,,51.228773916001956,51.22894037500009,059469,001,2024-07-01_23h23.38.799,5-28,2024.1.4,None,2024-07-01 23h23.43.903317 +0900,
Images/Speaker1.jpg,Images/Speaker2.jpg,Images/Speaker3.jpg,Images/Speaker4.jpg,Audio/Speaker1_Per/P1-8-Per.wav,Speaker1,گوینده ۱,3,41,281,7,,,,,90.99843133299873,,,,,,,,,,,,,,,,,,,,,,,,,,,,,,,,,,,,,,,,,,,,,51.24474004100193,51.24490229100047,059469,001,2024-07-01_23h23.38.799,5-28,2024.1.4,None,2024-07-01 23h23.43.903317 +0900,
Images/Speaker1.jpg,Images/Speaker2.jpg,Images/Speaker3.jpg,Images/Speaker4.jpg,Audio/Speaker2_Per/P2-17-Per.wav,Speaker2,گوینده۲,3,42,282,36,,,,,90.99843133299873,,,,,,,,,,,,,,,,,,,,,,,,,,,,,,,,,,,,,,,,,,,,,51.26120549999905,51.26135324999996,059469,001,2024-07-01_23h23.38.799,5-28,2024.1.4,None,2024-07-01 23h23.43.903317 +0900,
Images/Speaker1.jpg,Images/Speaker2.jpg,Images/Speaker3.jpg,Images/Speaker4.jpg,Audio/Speaker4_Per/P4-1-Per.wav,Speaker4,گوینده۴,3,43,283,60,,,,,90.99843133299873,,,,,,,,,,,,,,,,,,,,,,,,,,,,,,,,,,,,,,,,,,,,,51.277007125001546,51.27716870800214,059469,001,2024-07-01_23h23.38.799,5-28,2024.1.4,None,2024-07-01 23h23.43.903317 +0900,
Images/Speaker1.jpg,Images/Speaker2.jpg,Images/Speaker3.jpg,Images/Speaker4.jpg,Audio/Speaker2_Per/P2-6-Per.wav,Speaker2,گوینده۲,3,44,284,25,,,,,90.99843133299873,,,,,,,,,,,,,,,,,,,,,,,,,,,,,,,,,,,,,,,,,,,,,51.29291566599932,51.293072666001535,059469,001,2024-07-01_23h23.38.799,5-28,2024.1.4,None,2024-07-01 23h23.43.903317 +0900,
Images/Speaker1.jpg,Images/Speaker2.jpg,Images/Speaker3.jpg,Images/Speaker4.jpg,Audio/Speaker3_Per/P3-6-Per.wav,Speaker3,گوینده۳,3,45,285,45,,,,,90.99843133299873,,,,,,,,,,,,,,,,,,,,,,,,,,,,,,,,,,,,,,,,,,,,,51.308786875000806,51.309004124999774,059469,001,2024-07-01_23h23.38.799,5-28,2024.1.4,None,2024-07-01 23h23.43.903317 +0900,
Images/Speaker1.jpg,Images/Speaker2.jpg,Images/Speaker3.jpg,Images/Speaker4.jpg,Audio/Speaker1_Per/P1-3-Per.wav,Speaker1,گوینده ۱,3,46,286,2,,,,,90.99843133299873,,,,,,,,,,,,,,,,,,,,,,,,,,,,,,,,,,,,,,,,,,,,,51.325371833001554,51.32552937500077,059469,001,2024-07-01_23h23.38.799,5-28,2024.1.4,None,2024-07-01 23h23.43.903317 +0900,
Images/Speaker1.jpg,Images/Speaker2.jpg,Images/Speaker3.jpg,Images/Speaker4.jpg,Audio/Speaker2_Per/P2-11-Per.wav,Speaker2,گوینده۲,3,47,287,30,,,,,90.99843133299873,,,,,,,,,,,,,,,,,,,,,,,,,,,,,,,,,,,,,,,,,,,,,51.34125279100044,51.3414162500012,059469,001,2024-07-01_23h23.38.799,5-28,2024.1.4,None,2024-07-01 23h23.43.903317 +0900,
Images/Speaker1.jpg,Images/Speaker2.jpg,Images/Speaker3.jpg,Images/Speaker4.jpg,Audio/Speaker4_Per/P4-4-Per.wav,Speaker4,گوینده۴,3,48,288,63,,,,,90.99843133299873,,,,,,,,,,,,,,,,,,,,,,,,,,,,,,,,,,,,,,,,,,,,,51.35714954099967,51.35729962500045,059469,001,2024-07-01_23h23.38.799,5-28,2024.1.4,None,2024-07-01 23h23.43.903317 +0900,
Images/Speaker1.jpg,Images/Speaker2.jpg,Images/Speaker3.jpg,Images/Speaker4.jpg,Audio/Speaker1_Per/P1-19-Per.wav,Speaker1,گوینده ۱,3,49,289,18,,,,,90.99843133299873,,,,,,,,,,,,,,,,,,,,,,,,,,,,,,,,,,,,,,,,,,,,,51.37309520800045,51.37326395800119,059469,001,2024-07-01_23h23.38.799,5-28,2024.1.4,None,2024-07-01 23h23.43.903317 +0900,
Images/Speaker1.jpg,Images/Speaker2.jpg,Images/Speaker3.jpg,Images/Speaker4.jpg,Audio/Speaker3_Per/P3-7-Per.wav,Speaker3,گوینده۳,3,50,290,46,,,,,90.99843133299873,,,,,,,,,,,,,,,,,,,,,,,,,,,,,,,,,,,,,,,,,,,,,51.3895482500011,51.38971424999909,059469,001,2024-07-01_23h23.38.799,5-28,2024.1.4,None,2024-07-01 23h23.43.903317 +0900,
Images/Speaker1.jpg,Images/Speaker2.jpg,Images/Speaker3.jpg,Images/Speaker4.jpg,Audio/Speaker4_Per/P4-17-Per.wav,Speaker4,گوینده۴,3,51,291,76,,,,,90.99843133299873,,,,,,,,,,,,,,,,,,,,,,,,,,,,,,,,,,,,,,,,,,,,,51.405343916001584,51.405502041001455,059469,001,2024-07-01_23h23.38.799,5-28,2024.1.4,None,2024-07-01 23h23.43.903317 +0900,
Images/Speaker1.jpg,Images/Speaker2.jpg,Images/Speaker3.jpg,Images/Speaker4.jpg,Audio/Speaker4_Per/P4-12-Per.wav,Speaker4,گوینده۴,3,52,292,71,,,,,90.99843133299873,,,,,,,,,,,,,,,,,,,,,,,,,,,,,,,,,,,,,,,,,,,,,51.42122645800191,51.42140379099874,059469,001,2024-07-01_23h23.38.799,5-28,2024.1.4,None,2024-07-01 23h23.43.903317 +0900,
