SpeakerImage1,SpeakerImage2,SpeakerImage3,SpeakerImage4,TrainingSound,EnglishCorrectAnswer,PersianCorrectAnswer,TrainingLoopGroup1.thisRepN,TrainingLoopGroup1.thisTrialN,TrainingLoopGroup1.thisN,TrainingLoopGroup1.thisIndex,TrainingLoopGroup2.thisRepN,TrainingLoopGroup2.thisTrialN,TrainingLoopGroup2.thisN,TrainingLoopGroup2.thisIndex,TrainingLoopGroup3.thisRepN,TrainingLoopGroup3.thisTrialN,TrainingLoopGroup3.thisN,TrainingLoopGroup3.thisIndex,thisRow.t,notes,trial.started,trial.stopped,GroupSelection.started,GroupInstructions.started,ker_resp.started,GroupSelection.stopped,ker_resp.keys,ker_resp.rt,ker_resp.duration,Introduction.started,text_2.started,image.started,sound_7.started,text_4.started,text_2.stopped,sound_8.started,image.stopped,text_4.stopped,image_7.started,sound_9.started,text_5.started,sound_10.started,image_7.stopped,text_5.stopped,image_8.started,sound_11.started,text_6.started,sound_12.started,image_8.stopped,text_6.stopped,image_9.started,sound_13.started,text_7.started,sound_14.started,image_9.stopped,text_7.stopped,Introduction.stopped,Instructions.started,InstructionText.started,InstructionText.stopped,Instructions.stopped,InitializeExperiment.started,InitializeExperiment.stopped,TrainingGroup2.started,image_11.started,SpeakerPicture2.started,image_5.started,image_6.started,Sound2.started,Instruction2.started,Response2.started,TrainingGroup2.stopped,feedbackText,Response2.keys,Response2.rt,Response2.duration,correct_responses,total_trials,FeedbackRoutine2.started,FeedbackText2.started,FeedbackRoutine2.stopped,FeedbackText2.stopped,TransitionRoutine.started,accuracy,nextRoutine,TransitionRoutine.stopped,TestPhase1.started,participant,session,date,expName,psychopyVersion,frameRate,expStart,
,,,,,,,,,,,,,,,,,,,,,0.01163424999685958,0.012020458991173655,,,,,,,,,,,,,,,,,,,,,,,,,,,,,,,,,,,,,,,,,,,,,,,,,,,,,,,,,,,,,,,,,,066841,001,2024-06-26_10h26.25.341,5-18,2024.1.4,None,2024-06-26 10h26.31.289011 +0900,
,,,,,,,,,,,,,,,,,,,,,,,0.012035374995321035,0.018333333980990574,0.018333333980990574,0.6971433750004508,2,0.6383762920158915,None,,,,,,,,,,,,,,,,,,,,,,,,,,,,,,,,,,,,,,,,,,,,,,,,,,,,,,,,,,,066841,001,2024-06-26_10h26.25.341,5-18,2024.1.4,None,2024-06-26 10h26.31.289011 +0900,
,,,,,,,,,,,,,,,,,,,,,,,,,,,,,,0.6971715839754324,0.7587190839985851,5.692511417000787,5.701945125653098,5.692511417000787,5.752005958987866,10.698123333659412,15.68560170897399,15.68560170897399,15.692774750001263,15.702268375640658,15.692774750001263,20.70029491666743,25.69752829198842,25.69752829198842,25.69752829198842,25.706572666651724,25.69752829198842,30.706804166639145,35.68398316699313,35.68398316699313,35.68398316699313,35.69699008364502,35.68398316699313,40.69921579165772,45.68102883399115,45.68102883399115,45.67024574999232,,,,,,,,,,,,,,,,,,,,,,,,,,,,,,,066841,001,2024-06-26_10h26.25.341,5-18,2024.1.4,None,2024-06-26 10h26.31.289011 +0900,
,,,,,,,,,,,,,,,,,,,,,,,,,,,,,,,,,,,,,,,,,,,,,,,,,,,,,,,,,,45.67026391698164,45.687685874989256,50.73712316699675,50.67136416697758,,,,,,,,,,,,,,,,,,,,,,,,,,,066841,001,2024-06-26_10h26.25.341,5-18,2024.1.4,None,2024-06-26 10h26.31.289011 +0900,
,,,,,,,,,,,,,,,,,,,,,,,,,,,,,,,,,,,,,,,,,,,,,,,,,,,,,,,,,,,,,,50.67138591699768,50.67152045900002,,,,,,,,,,,,,,,,,,,,,,,,,066841,001,2024-06-26_10h26.25.341,5-18,2024.1.4,None,2024-06-26 10h26.31.289011 +0900,
Images/Speaker1.jpg,Images/Speaker2.jpg,Images/Speaker3.jpg,Images/Speaker4.jpg,Audio/Speaker2_Per/P2-9-Per.wav,Speaker2,گوینده۲,,,,,0,0,0,28,,,,,50.73712316699675,,,,,,,,,,,,,,,,,,,,,,,,,,,,,,,,,,,,,,,,,,,,,50.70996183398529,50.73712316699675,50.73712316699675,50.73712316699675,50.73712316699675,50.73778766665879,50.73712316699675,50.73712316699675,53.26875399998971,Correct! صحیح است,2,2.524625833000755,None,0,1,53.27427787499619,53.293910458975006,55.280899249977665,,,,,,,066841,001,2024-06-26_10h26.25.341,5-18,2024.1.4,None,2024-06-26 10h26.31.289011 +0900,
Images/Speaker1.jpg,Images/Speaker2.jpg,Images/Speaker3.jpg,Images/Speaker4.jpg,Audio/Speaker1_Per/P1-18-Per.wav,Speaker1,گوینده ۱,,,,,0,1,1,17,,,,,55.30324008397292,,,,,,,,,,,,,,,,,,,,,,,,,,,,,,,,,,,,,,,,,,,,,55.28106437498354,55.30324008397292,55.30324008397292,55.30324008397292,55.30324008397292,55.297535083667995,55.30324008397292,55.30324008397292,57.55662241697428,Correct! صحیح است,1,2.2516322910087183,None,0,2,57.56180762499571,57.573304958990775,59.56061249997583,59.58720591699239,,,,,,066841,001,2024-06-26_10h26.25.341,5-18,2024.1.4,None,2024-06-26 10h26.31.289011 +0900,
Images/Speaker1.jpg,Images/Speaker2.jpg,Images/Speaker3.jpg,Images/Speaker4.jpg,Audio/Speaker4_Per/P4-5-Per.wav,Speaker4,گوینده۴,,,,,0,2,2,64,,,,,59.58720591699239,,,,,,,,,,,,,,,,,,,,,,,,,,,,,,,,,,,,,,,,,,,,,59.561379291990306,59.58720591699239,59.58720591699239,59.58720591699239,59.58720591699239,59.592581500307034,59.58720591699239,59.58720591699239,62.214276958984556,Correct! صحیح است,4,2.62598350000917,None,0,3,62.218524374999106,62.230007499980275,64.21992933397996,,,,,,,066841,001,2024-06-26_10h26.25.341,5-18,2024.1.4,None,2024-06-26 10h26.31.289011 +0900,
Images/Speaker1.jpg,Images/Speaker2.jpg,Images/Speaker3.jpg,Images/Speaker4.jpg,Audio/Speaker3_Per/P3-3-Per.wav,Speaker3,گوینده۳,,,,,0,3,3,42,,,,,64.24460112498491,,,,,,,,,,,,,,,,,,,,,,,,,,,,,,,,,,,,,,,,,,,,,64.22050012499676,64.24460112498491,64.24460112498491,64.24460112498491,64.24460112498491,64.25312162531966,64.24460112498491,64.24460112498491,66.161590624979,Correct! صحیح است,3,1.9107678750006016,None,0,4,66.16539966699202,66.17647574999137,68.15934908398776,68.18221174998325,,,,,,066841,001,2024-06-26_10h26.25.341,5-18,2024.1.4,None,2024-06-26 10h26.31.289011 +0900,
Images/Speaker1.jpg,Images/Speaker2.jpg,Images/Speaker3.jpg,Images/Speaker4.jpg,Audio/Speaker1_Per/P1-1-Per.wav,Speaker1,گوینده ۱,,,,,0,4,4,0,,,,,68.18221174998325,,,,,,,,,,,,,,,,,,,,,,,,,,,,,,,,,,,,,,,,,,,,,68.15951262498857,68.18221174998325,68.18221174998325,68.18221174998325,68.18221174998325,68.19249483332581,68.18221174998325,68.18221174998325,70.22570166699006,Correct! صحیح است,1,2.0352297500066925,None,0,5,70.22948691700003,70.24063758397824,72.23764333399595,,,,,,,066841,001,2024-06-26_10h26.25.341,5-18,2024.1.4,None,2024-06-26 10h26.31.289011 +0900,
Images/Speaker1.jpg,Images/Speaker2.jpg,Images/Speaker3.jpg,Images/Speaker4.jpg,Audio/Speaker4_Per/P4-13-Per.wav,Speaker4,گوینده۴,,,,,0,5,5,72,,,,,72.26369483399321,,,,,,,,,,,,,,,,,,,,,,,,,,,,,,,,,,,,,,,,,,,,,72.23819762497442,72.26369483399321,72.26369483399321,72.26369483399321,72.26369483399321,72.2708120833345,72.26369483399321,72.26369483399321,73.83667962497566,Correct! صحیح است,4,1.5658613750129007,None,0,6,73.84043899999233,73.85150208399864,75.83744908397784,75.86356924998108,,,,,,066841,001,2024-06-26_10h26.25.341,5-18,2024.1.4,None,2024-06-26 10h26.31.289011 +0900,
Images/Speaker1.jpg,Images/Speaker2.jpg,Images/Speaker3.jpg,Images/Speaker4.jpg,Audio/Speaker3_Per/P3-1-Per.wav,Speaker3,گوینده۳,,,,,0,6,6,40,,,,,75.86356924998108,,,,,,,,,,,,,,,,,,,,,,,,,,,,,,,,,,,,,,,,,,,,,75.83840541698737,75.86356924998108,75.86356924998108,75.86356924998108,75.86356924998108,75.8698359583291,75.86356924998108,75.86356924998108,77.82268041698262,Correct! صحیح است,3,1.9539226250199135,None,0,7,77.82701220898889,77.83801558398409,79.8267331669922,79.8535429170006,,,,,,066841,001,2024-06-26_10h26.25.341,5-18,2024.1.4,None,2024-06-26 10h26.31.289011 +0900,
Images/Speaker1.jpg,Images/Speaker2.jpg,Images/Speaker3.jpg,Images/Speaker4.jpg,Audio/Speaker3_Per/P3-6-Per.wav,Speaker3,گوینده۳,,,,,0,7,7,45,,,,,79.8535429170006,,,,,,,,,,,,,,,,,,,,,,,,,,,,,,,,,,,,,,,,,,,,,79.82768562500132,79.8535429170006,79.8535429170006,79.8535429170006,79.8535429170006,79.85927791731277,79.8535429170006,79.8535429170006,81.59078149998095,Correct! صحیح است,3,1.735472792002838,None,0,8,81.59453612499055,81.60614983399864,83.59241437498713,83.61456170899328,,,,,,066841,001,2024-06-26_10h26.25.341,5-18,2024.1.4,None,2024-06-26 10h26.31.289011 +0900,
Images/Speaker1.jpg,Images/Speaker2.jpg,Images/Speaker3.jpg,Images/Speaker4.jpg,Audio/Speaker2_Per/P2-17-Per.wav,Speaker2,گوینده۲,,,,,0,8,8,36,,,,,83.61456170899328,,,,,,,,,,,,,,,,,,,,,,,,,,,,,,,,,,,,,,,,,,,,,83.59256466699298,83.61456170899328,83.61456170899328,83.61456170899328,83.61456170899328,83.60886904164023,83.61456170899328,83.61456170899328,85.02577520898194,Correct! صحیح است,2,1.3989504580094945,None,0,9,85.02985987497959,85.03810104198055,87.02397374997963,87.04611912497785,,,,,,066841,001,2024-06-26_10h26.25.341,5-18,2024.1.4,None,2024-06-26 10h26.31.289011 +0900,
Images/Speaker1.jpg,Images/Speaker2.jpg,Images/Speaker3.jpg,Images/Speaker4.jpg,Audio/Speaker4_Per/P4-7-Per.wav,Speaker4,گوینده۴,,,,,0,9,9,66,,,,,87.04611912497785,,,,,,,,,,,,,,,,,,,,,,,,,,,,,,,,,,,,,,,,,,,,,87.02415520898649,87.04611912497785,87.04611912497785,87.04611912497785,87.04611912497785,87.0404406666678,87.04611912497785,87.04611912497785,89.85305399997742,Correct! صحیح است,4,2.7986559169949032,None,0,10,89.85373891697964,89.86575154197635,91.85274379199836,91.87641779199475,,,,,,066841,001,2024-06-26_10h26.25.341,5-18,2024.1.4,None,2024-06-26 10h26.31.289011 +0900,
Images/Speaker1.jpg,Images/Speaker2.jpg,Images/Speaker3.jpg,Images/Speaker4.jpg,Audio/Speaker4_Per/P4-2-Per.wav,Speaker4,گوینده۴,,,,,0,10,10,61,,,,,91.87641779199475,,,,,,,,,,,,,,,,,,,,,,,,,,,,,,,,,,,,,,,,,,,,,91.8529081249726,91.87641779199475,91.87641779199475,91.87641779199475,91.87641779199475,91.88583487532063,91.87641779199475,91.87641779199475,93.20260458398843,Correct! صحیح است,4,1.3161544999748003,None,0,11,93.20677462499589,93.2156812089961,95.20264266699087,95.2251561669982,,,,,,066841,001,2024-06-26_10h26.25.341,5-18,2024.1.4,None,2024-06-26 10h26.31.289011 +0900,
Images/Speaker1.jpg,Images/Speaker2.jpg,Images/Speaker3.jpg,Images/Speaker4.jpg,Audio/Speaker4_Per/P4-1-Per.wav,Speaker4,گوینده۴,,,,,0,11,11,60,,,,,95.2251561669982,,,,,,,,,,,,,,,,,,,,,,,,,,,,,,,,,,,,,,,,,,,,,95.20280895897304,95.2251561669982,95.2251561669982,95.2251561669982,95.2251561669982,95.21903316665363,95.2251561669982,95.2251561669982,98.49513708398445,Correct! صحیح است,4,3.2613142079790123,None,0,12,98.49541429197416,98.50644524997915,100.48956662497949,100.51168670898187,,,,,,066841,001,2024-06-26_10h26.25.341,5-18,2024.1.4,None,2024-06-26 10h26.31.289011 +0900,
Images/Speaker1.jpg,Images/Speaker2.jpg,Images/Speaker3.jpg,Images/Speaker4.jpg,Audio/Speaker2_Per/P2-10-Per.wav,Speaker2,گوینده۲,,,,,0,12,12,29,,,,,100.51168670898187,,,,,,,,,,,,,,,,,,,,,,,,,,,,,,,,,,,,,,,,,,,,,100.48971549997805,100.51168670898187,100.51168670898187,100.51168670898187,100.51168670898187,100.50602816665584,100.51168670898187,100.51168670898187,103.05675166699803,Incorrect! The correct answer is Speaker2. نادرست! پاسخ صحیح گوینده۲ است,4,2.537928291974822,None,0,13,103.06057358399266,103.07582408399321,105.06075637499453,,,,,,,066841,001,2024-06-26_10h26.25.341,5-18,2024.1.4,None,2024-06-26 10h26.31.289011 +0900,
Images/Speaker1.jpg,Images/Speaker2.jpg,Images/Speaker3.jpg,Images/Speaker4.jpg,Audio/Speaker4_Per/P4-8-Per.wav,Speaker4,گوینده۴,,,,,0,13,13,67,,,,,105.08582308399491,,,,,,,,,,,,,,,,,,,,,,,,,,,,,,,,,,,,,,,,,,,,,105.06136549997609,105.08582308399491,105.08582308399491,105.08582308399491,105.08582308399491,105.09389762531694,105.08582308399491,105.08582308399491,106.74815841697273,Correct! صحیح است,4,1.6564444579998963,None,0,14,106.75215654197382,106.76333737498499,108.75974770897301,,,,,,,066841,001,2024-06-26_10h26.25.341,5-18,2024.1.4,None,2024-06-26 10h26.31.289011 +0900,
Images/Speaker1.jpg,Images/Speaker2.jpg,Images/Speaker3.jpg,Images/Speaker4.jpg,Audio/Speaker4_Per/P4-19-Per.wav,Speaker4,گوینده۴,,,,,0,14,14,78,,,,,108.78378745898954,,,,,,,,,,,,,,,,,,,,,,,,,,,,,,,,,,,,,,,,,,,,,108.76043304198538,108.78378745898954,108.78378745898954,108.78378745898954,108.78378745898954,108.79289550032311,108.78378745898954,108.78378745898954,111.66490120897652,Correct! صحیح است,4,2.878707999974722,None,0,15,111.66875520898611,111.67987170899869,113.66737004197785,113.69034375000047,,,,,,066841,001,2024-06-26_10h26.25.341,5-18,2024.1.4,None,2024-06-26 10h26.31.289011 +0900,
Images/Speaker1.jpg,Images/Speaker2.jpg,Images/Speaker3.jpg,Images/Speaker4.jpg,Audio/Speaker3_Per/P3-20-Per.wav,Speaker3,گوینده۳,,,,,0,15,15,59,,,,,113.69034375000047,,,,,,,,,,,,,,,,,,,,,,,,,,,,,,,,,,,,,,,,,,,,,113.66754295898136,113.69034375000047,113.69034375000047,113.69034375000047,113.69034375000047,113.6837907086631,113.69034375000047,113.69034375000047,115.71691424999153,Incorrect! The correct answer is Speaker3. نادرست! پاسخ صحیح گوینده۳ است,1,2.0244602500170004,None,0,16,115.72059274997446,115.73336499999277,117.71986758397543,117.74678695897455,,,,,,066841,001,2024-06-26_10h26.25.341,5-18,2024.1.4,None,2024-06-26 10h26.31.289011 +0900,
Images/Speaker1.jpg,Images/Speaker2.jpg,Images/Speaker3.jpg,Images/Speaker4.jpg,Audio/Speaker2_Per/P2-6-Per.wav,Speaker2,گوینده۲,,,,,0,16,16,25,,,,,117.74678695897455,,,,,,,,,,,,,,,,,,,,,,,,,,,,,,,,,,,,,,,,,,,,,117.72040304198163,117.74678695897455,117.74678695897455,117.74678695897455,117.74678695897455,117.75234541731382,117.74678695897455,117.74678695897455,118.98366620898014,Correct! صحیح است,2,1.234396874991944,None,0,17,118.98748554199119,118.99851791697438,120.98411974997725,121.00743266698555,,,,,,066841,001,2024-06-26_10h26.25.341,5-18,2024.1.4,None,2024-06-26 10h26.31.289011 +0900,
Images/Speaker1.jpg,Images/Speaker2.jpg,Images/Speaker3.jpg,Images/Speaker4.jpg,Audio/Speaker3_Per/P3-18-Per.wav,Speaker3,گوینده۳,,,,,0,17,17,57,,,,,121.00743266698555,,,,,,,,,,,,,,,,,,,,,,,,,,,,,,,,,,,,,,,,,,,,,120.98432645897265,121.00743266698555,121.00743266698555,121.00743266698555,121.00743266698555,121.01725700032742,121.00743266698555,121.00743266698555,122.28443999998854,Correct! صحیح است,3,1.2702928749786224,None,0,18,122.28917495897622,122.30190949997632,124.29141520897974,,,,,,,066841,001,2024-06-26_10h26.25.341,5-18,2024.1.4,None,2024-06-26 10h26.31.289011 +0900,
Images/Speaker1.jpg,Images/Speaker2.jpg,Images/Speaker3.jpg,Images/Speaker4.jpg,Audio/Speaker1_Per/P1-11-Per.wav,Speaker1,گوینده ۱,,,,,0,18,18,10,,,,,124.31673524997314,,,,,,,,,,,,,,,,,,,,,,,,,,,,,,,,,,,,,,,,,,,,,124.29199829199933,124.31673524997314,124.31673524997314,124.31673524997314,124.31673524997314,124.32459304232228,124.31673524997314,124.31673524997314,126.16727024997817,Correct! صحیح است,1,1.844710874982411,None,0,19,126.17095337499632,126.18199891698896,128.17054262498277,128.1920098339906,,,,,,066841,001,2024-06-26_10h26.25.341,5-18,2024.1.4,None,2024-06-26 10h26.31.289011 +0900,
Images/Speaker1.jpg,Images/Speaker2.jpg,Images/Speaker3.jpg,Images/Speaker4.jpg,Audio/Speaker2_Per/P2-12-Per.wav,Speaker2,گوینده۲,,,,,0,19,19,31,,,,,128.1920098339906,,,,,,,,,,,,,,,,,,,,,,,,,,,,,,,,,,,,,,,,,,,,,128.17070791698643,128.1920098339906,128.1920098339906,128.1920098339906,128.1920098339906,128.18701154165709,128.1920098339906,128.1920098339906,130.52686208399246,Correct! صحیح است,2,2.3288565830152947,None,0,20,130.52755154197803,130.5397043749981,132.52766495899414,132.54949691699585,,,,,,066841,001,2024-06-26_10h26.25.341,5-18,2024.1.4,None,2024-06-26 10h26.31.289011 +0900,
Images/Speaker1.jpg,Images/Speaker2.jpg,Images/Speaker3.jpg,Images/Speaker4.jpg,Audio/Speaker1_Per/P1-7-Per.wav,Speaker1,گوینده ۱,,,,,0,20,20,6,,,,,132.54949691699585,,,,,,,,,,,,,,,,,,,,,,,,,,,,,,,,,,,,,,,,,,,,,132.5278416669753,132.54949691699585,132.54949691699585,132.54949691699585,132.54949691699585,132.54406225064693,132.54949691699585,132.54949691699585,135.18411979198572,Correct! صحیح است,1,2.625988999992842,None,0,21,135.18438120899373,135.19569033398875,137.18224945900147,137.2054636249959,,,,,,066841,001,2024-06-26_10h26.25.341,5-18,2024.1.4,None,2024-06-26 10h26.31.289011 +0900,
Images/Speaker1.jpg,Images/Speaker2.jpg,Images/Speaker3.jpg,Images/Speaker4.jpg,Audio/Speaker3_Per/P3-19-Per.wav,Speaker3,گوینده۳,,,,,0,21,21,58,,,,,137.2054636249959,,,,,,,,,,,,,,,,,,,,,,,,,,,,,,,,,,,,,,,,,,,,,137.18242545897374,137.2054636249959,137.2054636249959,137.2054636249959,137.2054636249959,137.21535383331553,137.2054636249959,137.2054636249959,140.0006674589822,Correct! صحیح است,3,2.793283209000947,None,0,22,140.00446820899379,140.015532083984,142.0025763749727,142.0278704999946,,,,,,066841,001,2024-06-26_10h26.25.341,5-18,2024.1.4,None,2024-06-26 10h26.31.289011 +0900,
Images/Speaker1.jpg,Images/Speaker2.jpg,Images/Speaker3.jpg,Images/Speaker4.jpg,Audio/Speaker3_Per/P3-4-Per.wav,Speaker3,گوینده۳,,,,,0,22,22,43,,,,,142.0278704999946,,,,,,,,,,,,,,,,,,,,,,,,,,,,,,,,,,,,,,,,,,,,,142.0030880419945,142.0278704999946,142.0278704999946,142.0278704999946,142.0278704999946,142.03500704232334,142.0278704999946,142.0278704999946,144.49022833397612,Incorrect! The correct answer is Speaker3. نادرست! پاسخ صحیح گوینده۳ است,4,2.4590401660243515,None,0,23,144.49422424999648,144.50820662497426,146.49430708397995,146.51889524998842,,,,,,066841,001,2024-06-26_10h26.25.341,5-18,2024.1.4,None,2024-06-26 10h26.31.289011 +0900,
Images/Speaker1.jpg,Images/Speaker2.jpg,Images/Speaker3.jpg,Images/Speaker4.jpg,Audio/Speaker1_Per/P1-15-Per.wav,Speaker1,گوینده ۱,,,,,0,23,23,14,,,,,146.51889524998842,,,,,,,,,,,,,,,,,,,,,,,,,,,,,,,,,,,,,,,,,,,,,146.49488333397312,146.51889524998842,146.51889524998842,146.51889524998842,146.51889524998842,146.5267028333115,146.51889524998842,146.51889524998842,148.11702091697953,Correct! صحیح است,1,1.5963595829962287,None,0,24,148.1207783339778,148.13198487498448,150.1253470419906,,,,,,,066841,001,2024-06-26_10h26.25.341,5-18,2024.1.4,None,2024-06-26 10h26.31.289011 +0900,
Images/Speaker1.jpg,Images/Speaker2.jpg,Images/Speaker3.jpg,Images/Speaker4.jpg,Audio/Speaker2_Per/P2-5-Per.wav,Speaker2,گوینده۲,,,,,0,24,24,24,,,,,150.14771058398765,,,,,,,,,,,,,,,,,,,,,,,,,,,,,,,,,,,,,,,,,,,,,150.1255003339902,150.14771058398765,150.14771058398765,150.14771058398765,150.14771058398765,150.14197729164542,150.14771058398765,150.14771058398765,151.49021733397967,Correct! صحیح است,2,1.3307626669993624,None,0,25,151.495177083998,151.5073491249932,153.50002979199053,,,,,,,066841,001,2024-06-26_10h26.25.341,5-18,2024.1.4,None,2024-06-26 10h26.31.289011 +0900,
Images/Speaker1.jpg,Images/Speaker2.jpg,Images/Speaker3.jpg,Images/Speaker4.jpg,Audio/Speaker4_Per/P4-9-Per.wav,Speaker4,گوینده۴,,,,,0,25,25,68,,,,,153.522370916995,,,,,,,,,,,,,,,,,,,,,,,,,,,,,,,,,,,,,,,,,,,,,153.5001794169948,153.522370916995,153.522370916995,153.522370916995,153.522370916995,153.51666420864447,153.522370916995,153.522370916995,155.56668391698622,Correct! صحیح است,4,2.042830958002014,None,0,26,155.57079404199612,155.5819305839832,157.56688979198225,157.5887702499749,,,,,,066841,001,2024-06-26_10h26.25.341,5-18,2024.1.4,None,2024-06-26 10h26.31.289011 +0900,
Images/Speaker1.jpg,Images/Speaker2.jpg,Images/Speaker3.jpg,Images/Speaker4.jpg,Audio/Speaker2_Per/P2-20-Per.wav,Speaker2,گوینده۲,,,,,0,26,26,39,,,,,157.5887702499749,,,,,,,,,,,,,,,,,,,,,,,,,,,,,,,,,,,,,,,,,,,,,157.56704562497907,157.5887702499749,157.5887702499749,157.5887702499749,157.5887702499749,157.5833177086645,157.5887702499749,157.5887702499749,159.26625466698897,Correct! صحیح است,2,1.6694852500222623,None,0,27,159.27050233399495,159.27912133399514,161.26756279199617,161.29088383397902,,,,,,066841,001,2024-06-26_10h26.25.341,5-18,2024.1.4,None,2024-06-26 10h26.31.289011 +0900,
Images/Speaker1.jpg,Images/Speaker2.jpg,Images/Speaker3.jpg,Images/Speaker4.jpg,Audio/Speaker3_Per/P3-2-Per.wav,Speaker3,گوینده۳,,,,,0,27,27,41,,,,,161.29088383397902,,,,,,,,,,,,,,,,,,,,,,,,,,,,,,,,,,,,,,,,,,,,,161.2677275419992,161.29088383397902,161.29088383397902,161.29088383397902,161.29088383397902,161.3006965423197,161.29088383397902,161.29088383397902,163.8849407499947,Correct! صحیح است,3,2.5930464589910116,None,0,28,163.8897816669778,163.90299704199424,165.8869629999972,165.90961562498705,,,,,,066841,001,2024-06-26_10h26.25.341,5-18,2024.1.4,None,2024-06-26 10h26.31.289011 +0900,
Images/Speaker1.jpg,Images/Speaker2.jpg,Images/Speaker3.jpg,Images/Speaker4.jpg,Audio/Speaker1_Per/P1-4-Per.wav,Speaker1,گوینده ۱,,,,,0,28,28,13,,,,,165.90961562498705,,,,,,,,,,,,,,,,,,,,,,,,,,,,,,,,,,,,,,,,,,,,,165.88711891698767,165.90961562498705,165.90961562498705,165.90961562498705,165.90961562498705,165.90341029165236,165.90961562498705,165.90961562498705,168.77548745897366,Correct! صحیح است,1,2.862953000003472,None,0,29,168.7799882919935,168.79291012499016,170.78510629199445,,,,,,,066841,001,2024-06-26_10h26.25.341,5-18,2024.1.4,None,2024-06-26 10h26.31.289011 +0900,
Images/Speaker1.jpg,Images/Speaker2.jpg,Images/Speaker3.jpg,Images/Speaker4.jpg,Audio/Speaker4_Per/P4-11-Per.wav,Speaker4,گوینده۴,,,,,0,29,29,70,,,,,170.8099758339813,,,,,,,,,,,,,,,,,,,,,,,,,,,,,,,,,,,,,,,,,,,,,170.78578612499405,170.8099758339813,170.8099758339813,170.8099758339813,170.8099758339813,170.81827625030616,170.8099758339813,170.8099758339813,173.72764824997284,Correct! صحیح است,4,2.9164125839888584,None,0,30,173.73184979197686,173.7429376669752,175.73694962498848,,,,,,,066841,001,2024-06-26_10h26.25.341,5-18,2024.1.4,None,2024-06-26 10h26.31.289011 +0900,
Images/Speaker1.jpg,Images/Speaker2.jpg,Images/Speaker3.jpg,Images/Speaker4.jpg,Audio/Speaker3_Per/P3-17-Per.wav,Speaker3,گوینده۳,,,,,0,30,30,56,,,,,175.76322495899512,,,,,,,,,,,,,,,,,,,,,,,,,,,,,,,,,,,,,,,,,,,,,175.7375835419807,175.76322495899512,175.76322495899512,175.76322495899512,175.76322495899512,175.7701202923277,175.76322495899512,175.76322495899512,177.74341683398234,Correct! صحیح است,3,1.9680302920169197,None,0,31,177.74719574998016,177.7595919589803,179.75293816698832,,,,,,,066841,001,2024-06-26_10h26.25.341,5-18,2024.1.4,None,2024-06-26 10h26.31.289011 +0900,
Images/Speaker1.jpg,Images/Speaker2.jpg,Images/Speaker3.jpg,Images/Speaker4.jpg,Audio/Speaker1_Per/P1-16-Per.wav,Speaker1,گوینده ۱,,,,,0,31,31,15,,,,,179.77749474998564,,,,,,,,,,,,,,,,,,,,,,,,,,,,,,,,,,,,,,,,,,,,,179.75360545897274,179.77749474998564,179.77749474998564,179.77749474998564,179.77749474998564,179.7860763753202,179.77749474998564,179.77749474998564,181.36164045898477,Correct! صحیح است,1,1.5763367500039749,None,0,32,181.36563699998078,181.3740166669886,183.3624340419774,183.38723429199308,,,,,,066841,001,2024-06-26_10h26.25.341,5-18,2024.1.4,None,2024-06-26 10h26.31.289011 +0900,
Images/Speaker1.jpg,Images/Speaker2.jpg,Images/Speaker3.jpg,Images/Speaker4.jpg,Audio/Speaker1_Per/P1-12-Per.wav,Speaker1,گوینده ۱,,,,,0,32,32,11,,,,,183.38723429199308,,,,,,,,,,,,,,,,,,,,,,,,,,,,,,,,,,,,,,,,,,,,,183.3631530419807,183.38723429199308,183.38723429199308,183.38723429199308,183.38723429199308,183.39493400030966,183.38723429199308,183.38723429199308,185.59573729199474,Correct! صحیح است,1,2.197676917014178,None,0,33,185.6004367089772,185.61263795898412,187.59649437500047,187.6179396249936,,,,,,066841,001,2024-06-26_10h26.25.341,5-18,2024.1.4,None,2024-06-26 10h26.31.289011 +0900,
Images/Speaker1.jpg,Images/Speaker2.jpg,Images/Speaker3.jpg,Images/Speaker4.jpg,Audio/Speaker1_Per/P1-13-Per.wav,Speaker1,گوینده ۱,,,,,0,33,33,12,,,,,187.6179396249936,,,,,,,,,,,,,,,,,,,,,,,,,,,,,,,,,,,,,,,,,,,,,187.5966491669824,187.6179396249936,187.6179396249936,187.6179396249936,187.6179396249936,187.61297062566544,187.6179396249936,187.6179396249936,189.20901591697475,Correct! صحیح است,1,1.5879677080083638,None,0,34,189.21277166699292,189.22378308398766,191.2104815839848,191.23495062498841,,,,,,066841,001,2024-06-26_10h26.25.341,5-18,2024.1.4,None,2024-06-26 10h26.31.289011 +0900,
Images/Speaker1.jpg,Images/Speaker2.jpg,Images/Speaker3.jpg,Images/Speaker4.jpg,Audio/Speaker2_Per/P2-14-Per.wav,Speaker2,گوینده۲,,,,,0,34,34,33,,,,,191.23495062498841,,,,,,,,,,,,,,,,,,,,,,,,,,,,,,,,,,,,,,,,,,,,,191.21107837499585,191.23495062498841,191.23495062498841,191.23495062498841,191.23495062498841,191.24294770832836,191.23495062498841,191.23495062498841,192.63621299999068,Correct! صحیح است,2,1.3993517499766313,None,0,35,192.64133279197267,192.65345004198025,194.63794591699843,194.66009391698753,,,,,,066841,001,2024-06-26_10h26.25.341,5-18,2024.1.4,None,2024-06-26 10h26.31.289011 +0900,
Images/Speaker1.jpg,Images/Speaker2.jpg,Images/Speaker3.jpg,Images/Speaker4.jpg,Audio/Speaker4_Per/P4-18-Per.wav,Speaker4,گوینده۴,,,,,0,35,35,77,,,,,194.66009391698753,,,,,,,,,,,,,,,,,,,,,,,,,,,,,,,,,,,,,,,,,,,,,194.63811699999496,194.66009391698753,194.66009391698753,194.66009391698753,194.66009391698753,194.6544184166453,194.66009391698753,194.66009391698753,196.01420112498454,Incorrect! The correct answer is Speaker4. نادرست! پاسخ صحیح گوینده۴ است,3,1.3514152920106426,None,0,36,196.01832366699819,196.0310939589981,198.02695958397817,,,,,,,066841,001,2024-06-26_10h26.25.341,5-18,2024.1.4,None,2024-06-26 10h26.31.289011 +0900,
Images/Speaker1.jpg,Images/Speaker2.jpg,Images/Speaker3.jpg,Images/Speaker4.jpg,Audio/Speaker3_Per/P3-8-Per.wav,Speaker3,گوینده۳,,,,,0,36,36,47,,,,,198.0522109589947,,,,,,,,,,,,,,,,,,,,,,,,,,,,,,,,,,,,,,,,,,,,,198.0276366249891,198.0522109589947,198.0522109589947,198.0522109589947,198.0522109589947,198.06010650032164,198.0522109589947,198.0522109589947,200.45890904197586,Correct! صحیح است,3,2.3966042080137413,None,0,37,200.46323649998521,200.47565616699285,202.46905987497303,,,,,,,066841,001,2024-06-26_10h26.25.341,5-18,2024.1.4,None,2024-06-26 10h26.31.289011 +0900,
Images/Speaker1.jpg,Images/Speaker2.jpg,Images/Speaker3.jpg,Images/Speaker4.jpg,Audio/Speaker2_Per/P2-8-Per.wav,Speaker2,گوینده۲,,,,,0,37,37,27,,,,,202.4914089589729,,,,,,,,,,,,,,,,,,,,,,,,,,,,,,,,,,,,,,,,,,,,,202.46927120897453,202.4914089589729,202.4914089589729,202.4914089589729,202.4914089589729,202.48569083365535,202.4914089589729,202.4914089589729,203.90204224997433,Correct! صحیح است,2,1.4096512090181932,None,0,38,203.90608012498706,203.9176841249864,205.91217849997338,,,,,,,066841,001,2024-06-26_10h26.25.341,5-18,2024.1.4,None,2024-06-26 10h26.31.289011 +0900,
Images/Speaker1.jpg,Images/Speaker2.jpg,Images/Speaker3.jpg,Images/Speaker4.jpg,Audio/Speaker3_Per/P3-9-Per.wav,Speaker3,گوینده۳,,,,,0,38,38,48,,,,,205.93774291698355,,,,,,,,,,,,,,,,,,,,,,,,,,,,,,,,,,,,,,,,,,,,,205.91279391699936,205.93774291698355,205.93774291698355,205.93774291698355,205.93774291698355,205.9453561673077,205.93774291698355,205.93774291698355,207.76638258399907,Correct! صحیح است,3,1.8240309579996392,None,0,39,207.77056708399323,207.7818245839735,209.7780109999876,,,,,,,066841,001,2024-06-26_10h26.25.341,5-18,2024.1.4,None,2024-06-26 10h26.31.289011 +0900,
Images/Speaker1.jpg,Images/Speaker2.jpg,Images/Speaker3.jpg,Images/Speaker4.jpg,Audio/Speaker3_Per/P3-14-Per.wav,Speaker3,گوینده۳,,,,,0,39,39,53,,,,,209.8038877089857,,,,,,,,,,,,,,,,,,,,,,,,,,,,,,,,,,,,,,,,,,,,,209.77862362499582,209.8038877089857,209.8038877089857,209.8038877089857,209.8038877089857,209.81112837533198,209.8038877089857,209.8038877089857,211.5855422919849,Incorrect! The correct answer is Speaker3. نادرست! پاسخ صحیح گوینده۳ است,4,1.7746455000014976,None,0,40,211.59044949998497,211.604338583973,213.5958307919791,,,,,,,066841,001,2024-06-26_10h26.25.341,5-18,2024.1.4,None,2024-06-26 10h26.31.289011 +0900,
Images/Speaker1.jpg,Images/Speaker2.jpg,Images/Speaker3.jpg,Images/Speaker4.jpg,Audio/Speaker1_Per/P1-3-Per.wav,Speaker1,گوینده ۱,,,,,0,40,40,2,,,,,213.62049329199363,,,,,,,,,,,,,,,,,,,,,,,,,,,,,,,,,,,,,,,,,,,,,213.5963442089851,213.62049329199363,213.62049329199363,213.62049329199363,213.62049329199363,213.6289947083065,213.62049329199363,213.62049329199363,215.19274224998662,Correct! صحیح است,1,1.5682904589921236,None,0,41,215.19706979198963,215.20832254199195,217.19760695897276,217.22084424999775,,,,,,066841,001,2024-06-26_10h26.25.341,5-18,2024.1.4,None,2024-06-26 10h26.31.289011 +0900,
Images/Speaker1.jpg,Images/Speaker2.jpg,Images/Speaker3.jpg,Images/Speaker4.jpg,Audio/Speaker4_Per/P4-17-Per.wav,Speaker4,گوینده۴,,,,,0,41,41,76,,,,,217.22084424999775,,,,,,,,,,,,,,,,,,,,,,,,,,,,,,,,,,,,,,,,,,,,,217.19859470898518,217.22084424999775,217.22084424999775,217.22084424999775,217.22084424999775,217.23003595832466,217.22084424999775,217.22084424999775,218.6656659169821,Correct! صحیح است,4,1.4301749579899479,None,0,42,218.66960758398636,218.68084045898286,220.67731474997709,,,,,,,066841,001,2024-06-26_10h26.25.341,5-18,2024.1.4,None,2024-06-26 10h26.31.289011 +0900,
Images/Speaker1.jpg,Images/Speaker2.jpg,Images/Speaker3.jpg,Images/Speaker4.jpg,Audio/Speaker2_Per/P2-2-Per.wav,Speaker2,گوینده۲,,,,,0,42,42,21,,,,,220.70163508399855,,,,,,,,,,,,,,,,,,,,,,,,,,,,,,,,,,,,,,,,,,,,,220.67792791698594,220.70163508399855,220.70163508399855,220.70163508399855,220.70163508399855,220.71048966731956,220.70163508399855,220.70163508399855,222.16034129197942,Correct! صحیح است,2,1.454941083007725,None,0,43,222.16458345897263,222.17618345899973,224.1717591669876,,,,,,,066841,001,2024-06-26_10h26.25.341,5-18,2024.1.4,None,2024-06-26 10h26.31.289011 +0900,
Images/Speaker1.jpg,Images/Speaker2.jpg,Images/Speaker3.jpg,Images/Speaker4.jpg,Audio/Speaker4_Per/P4-4-Per.wav,Speaker4,گوینده۴,,,,,0,43,43,63,,,,,224.19359408397577,,,,,,,,,,,,,,,,,,,,,,,,,,,,,,,,,,,,,,,,,,,,,224.17193529198994,224.19359408397577,224.19359408397577,224.19359408397577,224.19359408397577,224.18838870866264,224.19359408397577,224.19359408397577,225.6248526669806,Correct! صحیح است,4,1.4266166659945156,None,0,44,225.62876670897822,225.63995812498615,227.626102041977,227.64929616698646,,,,,,066841,001,2024-06-26_10h26.25.341,5-18,2024.1.4,None,2024-06-26 10h26.31.289011 +0900,
Images/Speaker1.jpg,Images/Speaker2.jpg,Images/Speaker3.jpg,Images/Speaker4.jpg,Audio/Speaker1_Per/P1-9-Per.wav,Speaker1,گوینده ۱,,,,,0,44,44,8,,,,,227.64929616698646,,,,,,,,,,,,,,,,,,,,,,,,,,,,,,,,,,,,,,,,,,,,,227.62626087499666,227.64929616698646,227.64929616698646,227.64929616698646,227.64929616698646,227.65915616733452,227.64929616698646,227.64929616698646,229.45193179199123,Correct! صحیح است,1,1.8014292079897132,None,0,45,229.45587366700056,229.4669874169922,231.45150024999748,231.47401554198586,,,,,,066841,001,2024-06-26_10h26.25.341,5-18,2024.1.4,None,2024-06-26 10h26.31.289011 +0900,
Images/Speaker1.jpg,Images/Speaker2.jpg,Images/Speaker3.jpg,Images/Speaker4.jpg,Audio/Speaker3_Per/P3-7-Per.wav,Speaker3,گوینده۳,,,,,0,45,45,46,,,,,231.47401554198586,,,,,,,,,,,,,,,,,,,,,,,,,,,,,,,,,,,,,,,,,,,,,231.45168999998714,231.47401554198586,231.47401554198586,231.47401554198586,231.47401554198586,231.46793825066223,231.47401554198586,231.47401554198586,232.6375236249878,Correct! صحیح است,3,1.1595933749922551,None,0,46,232.641528291977,232.6527887499833,234.64605058397865,,,,,,,066841,001,2024-06-26_10h26.25.341,5-18,2024.1.4,None,2024-06-26 10h26.31.289011 +0900,
Images/Speaker1.jpg,Images/Speaker2.jpg,Images/Speaker3.jpg,Images/Speaker4.jpg,Audio/Speaker3_Per/P3-10-Per.wav,Speaker3,گوینده۳,,,,,0,46,46,49,,,,,234.6728004589968,,,,,,,,,,,,,,,,,,,,,,,,,,,,,,,,,,,,,,,,,,,,,234.64670870898408,234.6728004589968,234.6728004589968,234.6728004589968,234.6728004589968,234.6792356673182,234.6728004589968,234.6728004589968,235.7677805419953,Correct! صحیح است,3,1.0845445409941021,None,0,47,235.77183133398648,235.78271424997365,237.77181249999558,237.79554945899872,,,,,,066841,001,2024-06-26_10h26.25.341,5-18,2024.1.4,None,2024-06-26 10h26.31.289011 +0900,
Images/Speaker1.jpg,Images/Speaker2.jpg,Images/Speaker3.jpg,Images/Speaker4.jpg,Audio/Speaker4_Per/P4-6-Per.wav,Speaker4,گوینده۴,,,,,0,47,47,65,,,,,237.79554945899872,,,,,,,,,,,,,,,,,,,,,,,,,,,,,,,,,,,,,,,,,,,,,237.7727015419805,237.79554945899872,237.79554945899872,237.79554945899872,237.79554945899872,237.80427033332722,237.79554945899872,237.79554945899872,239.1010367499839,Correct! صحیح است,4,1.299553457996808,None,0,48,239.10530229198048,239.11671462497907,241.11142949998612,,,,,,,066841,001,2024-06-26_10h26.25.341,5-18,2024.1.4,None,2024-06-26 10h26.31.289011 +0900,
Images/Speaker1.jpg,Images/Speaker2.jpg,Images/Speaker3.jpg,Images/Speaker4.jpg,Audio/Speaker2_Per/P2-7-Per.wav,Speaker2,گوینده۲,,,,,0,48,48,26,,,,,241.13670729199657,,,,,,,,,,,,,,,,,,,,,,,,,,,,,,,,,,,,,,,,,,,,,241.11205079199863,241.13670729199657,241.13670729199657,241.13670729199657,241.13670729199657,241.14456875032243,241.13670729199657,241.13670729199657,242.39711558399722,Correct! صحیح است,2,1.2593878750049043,None,0,49,242.4009441669914,242.41248237498803,244.3978253749956,244.4207954169833,,,,,,066841,001,2024-06-26_10h26.25.341,5-18,2024.1.4,None,2024-06-26 10h26.31.289011 +0900,
Images/Speaker1.jpg,Images/Speaker2.jpg,Images/Speaker3.jpg,Images/Speaker4.jpg,Audio/Speaker1_Per/P1-2-Per.wav,Speaker1,گوینده ۱,,,,,0,49,49,1,,,,,244.4207954169833,,,,,,,,,,,,,,,,,,,,,,,,,,,,,,,,,,,,,,,,,,,,,244.39802116699866,244.4207954169833,244.4207954169833,244.4207954169833,244.4207954169833,244.4142570416482,244.4207954169833,244.4207954169833,246.09225991700077,Correct! صحیح است,1,1.6625277080165688,None,0,50,246.09687691699946,246.10919370898046,248.09488654197776,248.1196953339968,,,,,,066841,001,2024-06-26_10h26.25.341,5-18,2024.1.4,None,2024-06-26 10h26.31.289011 +0900,
Images/Speaker1.jpg,Images/Speaker2.jpg,Images/Speaker3.jpg,Images/Speaker4.jpg,Audio/Speaker2_Per/P2-18-Per.wav,Speaker2,گوینده۲,,,,,0,50,50,37,,,,,248.1196953339968,,,,,,,,,,,,,,,,,,,,,,,,,,,,,,,,,,,,,,,,,,,,,248.09545587497996,248.1196953339968,248.1196953339968,248.1196953339968,248.1196953339968,248.12732929230748,248.1196953339968,248.1196953339968,249.37678762499127,Correct! صحیح است,2,1.2517109999898821,None,0,51,249.38067249997403,249.3919522499782,251.37863812499563,251.4003937089874,,,,,,066841,001,2024-06-26_10h26.25.341,5-18,2024.1.4,None,2024-06-26 10h26.31.289011 +0900,
Images/Speaker1.jpg,Images/Speaker2.jpg,Images/Speaker3.jpg,Images/Speaker4.jpg,Audio/Speaker2_Per/P2-19-Per.wav,Speaker2,گوینده۲,,,,,0,51,51,38,,,,,251.4003937089874,,,,,,,,,,,,,,,,,,,,,,,,,,,,,,,,,,,,,,,,,,,,,251.37879370898008,251.4003937089874,251.4003937089874,251.4003937089874,251.4003937089874,251.3950662506434,251.4003937089874,251.4003937089874,252.53961929198704,Correct! صحیح است,2,1.1382201660017017,None,0,52,252.54380295900046,252.5549092500005,254.5408027919766,254.56776020899997,,,,,,066841,001,2024-06-26_10h26.25.341,5-18,2024.1.4,None,2024-06-26 10h26.31.289011 +0900,
Images/Speaker1.jpg,Images/Speaker2.jpg,Images/Speaker3.jpg,Images/Speaker4.jpg,Audio/Speaker3_Per/P3-15-Per.wav,Speaker3,گوینده۳,,,,,0,52,52,54,,,,,254.56776020899997,,,,,,,,,,,,,,,,,,,,,,,,,,,,,,,,,,,,,,,,,,,,,254.5417058339808,254.56776020899997,254.56776020899997,254.56776020899997,254.56776020899997,254.57327100032904,254.56776020899997,254.56776020899997,257.13432629199815,Correct! صحیح است,3,2.564930333988741,None,0,53,257.13819987498573,257.1501904169854,259.13654616699205,259.15999266697327,,,,,,066841,001,2024-06-26_10h26.25.341,5-18,2024.1.4,None,2024-06-26 10h26.31.289011 +0900,
Images/Speaker1.jpg,Images/Speaker2.jpg,Images/Speaker3.jpg,Images/Speaker4.jpg,Audio/Speaker1_Per/P1-6-Per.wav,Speaker1,گوینده ۱,,,,,0,53,53,5,,,,,259.15999266697327,,,,,,,,,,,,,,,,,,,,,,,,,,,,,,,,,,,,,,,,,,,,,259.1370612089813,259.15999266697327,259.15999266697327,259.15999266697327,259.15999266697327,259.1689894173255,259.15999266697327,259.15999266697327,260.54563683399465,Correct! صحیح است,1,1.3762812500062864,None,0,54,260.55024612499983,260.5620256669936,262.55218699999386,,,,,,,066841,001,2024-06-26_10h26.25.341,5-18,2024.1.4,None,2024-06-26 10h26.31.289011 +0900,
Images/Speaker1.jpg,Images/Speaker2.jpg,Images/Speaker3.jpg,Images/Speaker4.jpg,Audio/Speaker2_Per/P2-16-Per.wav,Speaker2,گوینده۲,,,,,0,54,54,35,,,,,262.57516929198755,,,,,,,,,,,,,,,,,,,,,,,,,,,,,,,,,,,,,,,,,,,,,262.5523614589765,262.57516929198755,262.57516929198755,262.57516929198755,262.57516929198755,262.58548275032854,262.57516929198755,262.57516929198755,264.0287464589928,Correct! صحیح است,2,1.4457572919782251,None,0,55,264.0329080419906,264.04399841697887,266.02912620897405,266.0520162920002,,,,,,066841,001,2024-06-26_10h26.25.341,5-18,2024.1.4,None,2024-06-26 10h26.31.289011 +0900,
Images/Speaker1.jpg,Images/Speaker2.jpg,Images/Speaker3.jpg,Images/Speaker4.jpg,Audio/Speaker1_Per/P1-5-Per.wav,Speaker1,گوینده ۱,,,,,0,55,55,4,,,,,266.0520162920002,,,,,,,,,,,,,,,,,,,,,,,,,,,,,,,,,,,,,,,,,,,,,266.02928274997976,266.0520162920002,266.0520162920002,266.0520162920002,266.0520162920002,266.0455619586612,266.0520162920002,266.0520162920002,267.5784410839842,Correct! صحیح است,1,1.5215770420036279,None,0,56,267.58231574998354,267.5934457919793,269.5875054169737,,,,,,,066841,001,2024-06-26_10h26.25.341,5-18,2024.1.4,None,2024-06-26 10h26.31.289011 +0900,
Images/Speaker1.jpg,Images/Speaker2.jpg,Images/Speaker3.jpg,Images/Speaker4.jpg,Audio/Speaker4_Per/P4-10-Per.wav,Speaker4,گوینده۴,,,,,0,56,56,69,,,,,269.6096838339872,,,,,,,,,,,,,,,,,,,,,,,,,,,,,,,,,,,,,,,,,,,,,269.58764866698766,269.6096838339872,269.6096838339872,269.6096838339872,269.6096838339872,269.60413645866015,269.6096838339872,269.6096838339872,272.1950203339802,Correct! صحیح است,4,2.583770249999361,None,0,57,272.1989133749739,272.21005466699717,274.19535224998253,274.22125466697617,,,,,,066841,001,2024-06-26_10h26.25.341,5-18,2024.1.4,None,2024-06-26 10h26.31.289011 +0900,
Images/Speaker1.jpg,Images/Speaker2.jpg,Images/Speaker3.jpg,Images/Speaker4.jpg,Audio/Speaker4_Per/P4-14-Per.wav,Speaker4,گوینده۴,,,,,0,57,57,73,,,,,274.22125466697617,,,,,,,,,,,,,,,,,,,,,,,,,,,,,,,,,,,,,,,,,,,,,274.19604679199983,274.22125466697617,274.22125466697617,274.22125466697617,274.22125466697617,274.2277736673209,274.22125466697617,274.22125466697617,275.70629608398303,Correct! صحیح است,4,1.481645624997327,None,0,58,275.71017166698584,275.7217257919838,277.7049226249801,277.7274387090001,,,,,,066841,001,2024-06-26_10h26.25.341,5-18,2024.1.4,None,2024-06-26 10h26.31.289011 +0900,
Images/Speaker1.jpg,Images/Speaker2.jpg,Images/Speaker3.jpg,Images/Speaker4.jpg,Audio/Speaker2_Per/P2-15-Per.wav,Speaker2,گوینده۲,,,,,0,58,58,34,,,,,277.7274387090001,,,,,,,,,,,,,,,,,,,,,,,,,,,,,,,,,,,,,,,,,,,,,277.7051005419926,277.7274387090001,277.7274387090001,277.7274387090001,277.7274387090001,277.721268791651,277.7274387090001,277.7274387090001,279.13265758397756,Correct! صحیح است,2,1.4004488330101594,None,0,59,279.13687358397874,279.14820633397903,281.13752154199756,281.16104683399317,,,,,,066841,001,2024-06-26_10h26.25.341,5-18,2024.1.4,None,2024-06-26 10h26.31.289011 +0900,
Images/Speaker1.jpg,Images/Speaker2.jpg,Images/Speaker3.jpg,Images/Speaker4.jpg,Audio/Speaker1_Per/P1-19-Per.wav,Speaker1,گوینده ۱,,,,,0,59,59,18,,,,,281.16104683399317,,,,,,,,,,,,,,,,,,,,,,,,,,,,,,,,,,,,,,,,,,,,,281.1384728749981,281.16104683399317,281.16104683399317,281.16104683399317,281.16104683399317,281.17003279232495,281.16104683399317,281.16104683399317,282.5263642499922,Correct! صحیح است,1,1.3643003750185017,None,0,60,282.5311938749801,282.543864458974,284.52769233399886,284.5527696249774,,,,,,066841,001,2024-06-26_10h26.25.341,5-18,2024.1.4,None,2024-06-26 10h26.31.289011 +0900,
Images/Speaker1.jpg,Images/Speaker2.jpg,Images/Speaker3.jpg,Images/Speaker4.jpg,Audio/Speaker1_Per/P1-10-Per.wav,Speaker1,گوینده ۱,,,,,0,60,60,9,,,,,284.5527696249774,,,,,,,,,,,,,,,,,,,,,,,,,,,,,,,,,,,,,,,,,,,,,284.52789649998886,284.5527696249774,284.5527696249774,284.5527696249774,284.5527696249774,284.56075916731106,284.5527696249774,284.5527696249774,286.0375720000011,Correct! صحیح است,1,1.4734995419858024,None,0,61,286.0414733339858,286.0525364589994,288.0438038749853,,,,,,,066841,001,2024-06-26_10h26.25.341,5-18,2024.1.4,None,2024-06-26 10h26.31.289011 +0900,
Images/Speaker1.jpg,Images/Speaker2.jpg,Images/Speaker3.jpg,Images/Speaker4.jpg,Audio/Speaker4_Per/P4-16-Per.wav,Speaker4,گوینده۴,,,,,0,61,61,75,,,,,288.0680135419825,,,,,,,,,,,,,,,,,,,,,,,,,,,,,,,,,,,,,,,,,,,,,288.04441529198084,288.0680135419825,288.0680135419825,288.0680135419825,288.0680135419825,288.0769908753068,288.0680135419825,288.0680135419825,289.4891049169819,Correct! صحیح است,4,1.418336915987311,None,0,62,289.4933557919867,289.5042728339904,291.4876069999882,291.510467916989,,,,,,066841,001,2024-06-26_10h26.25.341,5-18,2024.1.4,None,2024-06-26 10h26.31.289011 +0900,
Images/Speaker1.jpg,Images/Speaker2.jpg,Images/Speaker3.jpg,Images/Speaker4.jpg,Audio/Speaker4_Per/P4-15-Per.wav,Speaker4,گوینده۴,,,,,0,62,62,74,,,,,291.510467916989,,,,,,,,,,,,,,,,,,,,,,,,,,,,,,,,,,,,,,,,,,,,,291.48776837499463,291.510467916989,291.510467916989,291.510467916989,291.510467916989,291.50407970865876,291.510467916989,291.510467916989,292.7006641670014,Correct! صحیح است,4,1.1854290000046603,None,0,63,292.7046452499926,292.7162333749875,294.70892470897525,,,,,,,066841,001,2024-06-26_10h26.25.341,5-18,2024.1.4,None,2024-06-26 10h26.31.289011 +0900,
Images/Speaker1.jpg,Images/Speaker2.jpg,Images/Speaker3.jpg,Images/Speaker4.jpg,Audio/Speaker3_Per/P3-12-Per.wav,Speaker3,گوینده۳,,,,,0,63,63,51,,,,,294.7342107919976,,,,,,,,,,,,,,,,,,,,,,,,,,,,,,,,,,,,,,,,,,,,,294.7095630839758,294.7342107919976,294.7342107919976,294.7342107919976,294.7342107919976,294.7420897083143,294.7342107919976,294.7342107919976,295.89383216699935,Correct! صحیح است,3,1.1572441669995897,None,0,64,295.897777458973,295.9083943339938,297.8981658339908,297.9241523749952,,,,,,066841,001,2024-06-26_10h26.25.341,5-18,2024.1.4,None,2024-06-26 10h26.31.289011 +0900,
Images/Speaker1.jpg,Images/Speaker2.jpg,Images/Speaker3.jpg,Images/Speaker4.jpg,Audio/Speaker4_Per/P4-3-Per.wav,Speaker4,گوینده۴,,,,,0,64,64,62,,,,,297.9241523749952,,,,,,,,,,,,,,,,,,,,,,,,,,,,,,,,,,,,,,,,,,,,,297.89913287499803,297.9241523749952,297.9241523749952,297.9241523749952,297.9241523749952,297.9303420003057,297.9241523749952,297.9241523749952,299.3419117089943,Correct! صحیح است,4,1.4112755829992238,None,0,65,299.3458817919891,299.35633249999955,301.34520212499774,301.3695793749939,,,,,,066841,001,2024-06-26_10h26.25.341,5-18,2024.1.4,None,2024-06-26 10h26.31.289011 +0900,
Images/Speaker1.jpg,Images/Speaker2.jpg,Images/Speaker3.jpg,Images/Speaker4.jpg,Audio/Speaker2_Per/P2-13-Per.wav,Speaker2,گوینده۲,,,,,0,65,65,32,,,,,301.3695793749939,,,,,,,,,,,,,,,,,,,,,,,,,,,,,,,,,,,,,,,,,,,,,301.34536970898625,301.3695793749939,301.3695793749939,301.3695793749939,301.3695793749939,301.3782436673141,301.3695793749939,301.3695793749939,302.8512112919998,Correct! صحیح است,2,1.4758786249731202,None,0,66,302.85501224998734,302.86613074998604,304.861068416998,,,,,,,066841,001,2024-06-26_10h26.25.341,5-18,2024.1.4,None,2024-06-26 10h26.31.289011 +0900,
Images/Speaker1.jpg,Images/Speaker2.jpg,Images/Speaker3.jpg,Images/Speaker4.jpg,Audio/Speaker1_Per/P1-8-Per.wav,Speaker1,گوینده ۱,,,,,0,66,66,7,,,,,304.88572095899144,,,,,,,,,,,,,,,,,,,,,,,,,,,,,,,,,,,,,,,,,,,,,304.8617516249942,304.88572095899144,304.88572095899144,304.88572095899144,304.88572095899144,304.89421833330607,304.88572095899144,304.88572095899144,306.23959462498897,Correct! صحیح است,1,1.3519305000081658,None,0,67,306.2436436249991,306.25444999997853,308.2452619999822,,,,,,,066841,001,2024-06-26_10h26.25.341,5-18,2024.1.4,None,2024-06-26 10h26.31.289011 +0900,
Images/Speaker1.jpg,Images/Speaker2.jpg,Images/Speaker3.jpg,Images/Speaker4.jpg,Audio/Speaker1_Per/P1-20-Per.wav,Speaker1,گوینده ۱,,,,,0,67,67,19,,,,,308.2695296249876,,,,,,,,,,,,,,,,,,,,,,,,,,,,,,,,,,,,,,,,,,,,,308.2458284169843,308.2695296249876,308.2695296249876,308.2695296249876,308.2695296249876,308.2784405833304,308.2695296249876,308.2695296249876,309.56303699998534,Correct! صحیح است,1,1.286758332978934,None,0,68,309.5671317499946,309.5788090839924,311.5702958339825,,,,,,,066841,001,2024-06-26_10h26.25.341,5-18,2024.1.4,None,2024-06-26 10h26.31.289011 +0900,
Images/Speaker1.jpg,Images/Speaker2.jpg,Images/Speaker3.jpg,Images/Speaker4.jpg,Audio/Speaker3_Per/P3-11-Per.wav,Speaker3,گوینده۳,,,,,0,68,68,50,,,,,311.5968238339992,,,,,,,,,,,,,,,,,,,,,,,,,,,,,,,,,,,,,,,,,,,,,311.570905999979,311.5968238339992,311.5968238339992,311.5968238339992,311.5968238339992,311.6034755003134,311.5968238339992,311.5968238339992,313.4657869999937,Correct! صحیح است,3,1.8652579579793382,None,0,69,313.47007895898423,313.48122799998964,315.4649937089998,315.4875372919778,,,,,,066841,001,2024-06-26_10h26.25.341,5-18,2024.1.4,None,2024-06-26 10h26.31.289011 +0900,
Images/Speaker1.jpg,Images/Speaker2.jpg,Images/Speaker3.jpg,Images/Speaker4.jpg,Audio/Speaker3_Per/P3-13-Per.wav,Speaker3,گوینده۳,,,,,0,69,69,52,,,,,315.4875372919778,,,,,,,,,,,,,,,,,,,,,,,,,,,,,,,,,,,,,,,,,,,,,315.4651517919847,315.4875372919778,315.4875372919778,315.4875372919778,315.4875372919778,315.4814012916506,315.4875372919778,315.4875372919778,317.1014688339783,Correct! صحیح است,3,1.6115270830050576,None,0,70,317.10538904200075,317.116081708984,319.1038019999978,319.12663862499176,,,,,,066841,001,2024-06-26_10h26.25.341,5-18,2024.1.4,None,2024-06-26 10h26.31.289011 +0900,
Images/Speaker1.jpg,Images/Speaker2.jpg,Images/Speaker3.jpg,Images/Speaker4.jpg,Audio/Speaker3_Per/P3-5-Per.wav,Speaker3,گوینده۳,,,,,0,70,70,44,,,,,319.12663862499176,,,,,,,,,,,,,,,,,,,,,,,,,,,,,,,,,,,,,,,,,,,,,319.1039877089788,319.12663862499176,319.12663862499176,319.12663862499176,319.12663862499176,319.13691987531683,319.12663862499176,319.12663862499176,320.9826252089988,Correct! صحیح است,3,1.8468682500242721,None,0,71,320.98692391699296,320.9960324999993,322.98636062498554,323.0091586249764,,,,,,066841,001,2024-06-26_10h26.25.341,5-18,2024.1.4,None,2024-06-26 10h26.31.289011 +0900,
Images/Speaker1.jpg,Images/Speaker2.jpg,Images/Speaker3.jpg,Images/Speaker4.jpg,Audio/Speaker4_Per/P4-12-Per.wav,Speaker4,گوینده۴,,,,,0,71,71,71,,,,,323.0091586249764,,,,,,,,,,,,,,,,,,,,,,,,,,,,,,,,,,,,,,,,,,,,,322.9868937919964,323.0091586249764,323.0091586249764,323.0091586249764,323.0091586249764,323.01881579231895,323.0091586249764,323.0091586249764,324.40285637497436,Correct! صحیح است,4,1.3890640000172425,None,0,72,324.40665687498404,324.41795099998126,326.4144414589973,,,,,,,066841,001,2024-06-26_10h26.25.341,5-18,2024.1.4,None,2024-06-26 10h26.31.289011 +0900,
Images/Speaker1.jpg,Images/Speaker2.jpg,Images/Speaker3.jpg,Images/Speaker4.jpg,Audio/Speaker4_Per/P4-20-Per.wav,Speaker4,گوینده۴,,,,,0,72,72,79,,,,,326.4386764999945,,,,,,,,,,,,,,,,,,,,,,,,,,,,,,,,,,,,,,,,,,,,,326.4150862089882,326.4386764999945,326.4386764999945,326.4386764999945,326.4386764999945,326.44760708331205,326.4386764999945,326.4386764999945,327.7408619999769,Correct! صحیح است,4,1.29507970798295,None,0,73,327.74487349999254,327.7538627089816,329.74566649997723,,,,,,,066841,001,2024-06-26_10h26.25.341,5-18,2024.1.4,None,2024-06-26 10h26.31.289011 +0900,
Images/Speaker1.jpg,Images/Speaker2.jpg,Images/Speaker3.jpg,Images/Speaker4.jpg,Audio/Speaker1_Per/P1-17-Per.wav,Speaker1,گوینده ۱,,,,,0,73,73,16,,,,,329.7670896249765,,,,,,,,,,,,,,,,,,,,,,,,,,,,,,,,,,,,,,,,,,,,,329.7458139999944,329.7670896249765,329.7670896249765,329.7670896249765,329.7670896249765,329.7623029586432,329.7670896249765,329.7670896249765,330.9263067919819,Correct! صحیح است,1,1.1492145840020385,None,0,74,330.9301504169998,330.9412589999847,332.92741199999,332.9481050839822,,,,,,066841,001,2024-06-26_10h26.25.341,5-18,2024.1.4,None,2024-06-26 10h26.31.289011 +0900,
Images/Speaker1.jpg,Images/Speaker2.jpg,Images/Speaker3.jpg,Images/Speaker4.jpg,Audio/Speaker1_Per/P1-4-Per.wav,Speaker1,گوینده ۱,,,,,0,74,74,3,,,,,332.9481050839822,,,,,,,,,,,,,,,,,,,,,,,,,,,,,,,,,,,,,,,,,,,,,332.927596249996,332.9481050839822,332.9481050839822,332.9481050839822,332.9481050839822,332.94380337564894,332.9481050839822,332.9481050839822,334.17698183399625,Correct! صحیح است,1,1.226675250014523,None,0,75,334.18078820899245,334.19193287499365,336.18563641697983,,,,,,,066841,001,2024-06-26_10h26.25.341,5-18,2024.1.4,None,2024-06-26 10h26.31.289011 +0900,
Images/Speaker1.jpg,Images/Speaker2.jpg,Images/Speaker3.jpg,Images/Speaker4.jpg,Audio/Speaker2_Per/P2-11-Per.wav,Speaker2,گوینده۲,,,,,0,75,75,30,,,,,336.2108240839734,,,,,,,,,,,,,,,,,,,,,,,,,,,,,,,,,,,,,,,,,,,,,336.18626016698545,336.2108240839734,336.2108240839734,336.2108240839734,336.2108240839734,336.2188347503329,336.2108240839734,336.2108240839734,339.3214875839767,Correct! صحیح است,2,3.1046301660244353,None,0,76,339.3255024589889,339.33673854198423,341.3196650839818,341.3419294169871,,,,,,066841,001,2024-06-26_10h26.25.341,5-18,2024.1.4,None,2024-06-26 10h26.31.289011 +0900,
Images/Speaker1.jpg,Images/Speaker2.jpg,Images/Speaker3.jpg,Images/Speaker4.jpg,Audio/Speaker2_Per/P2-1-Per.wav,Speaker2,گوینده۲,,,,,0,76,76,20,,,,,341.3419294169871,,,,,,,,,,,,,,,,,,,,,,,,,,,,,,,,,,,,,,,,,,,,,341.31981683397316,341.3419294169871,341.3419294169871,341.3419294169871,341.3419294169871,341.3360730836614,341.3419294169871,341.3419294169871,344.7184769589803,Correct! صحیح است,2,3.3728139579761773,None,0,77,344.7186727919907,344.72930266699404,346.712577208993,346.73469408397796,,,,,,066841,001,2024-06-26_10h26.25.341,5-18,2024.1.4,None,2024-06-26 10h26.31.289011 +0900,
Images/Speaker1.jpg,Images/Speaker2.jpg,Images/Speaker3.jpg,Images/Speaker4.jpg,Audio/Speaker2_Per/P2-3-Per.wav,Speaker2,گوینده۲,,,,,0,77,77,22,,,,,346.73469408397796,,,,,,,,,,,,,,,,,,,,,,,,,,,,,,,,,,,,,,,,,,,,,346.71273162498255,346.73469408397796,346.73469408397796,346.73469408397796,346.73469408397796,346.72905404164726,346.73469408397796,346.73469408397796,348.5023359999759,Correct! صحیح است,2,1.7660171250172425,None,0,78,348.50639474997297,348.51807887500036,350.50672049997956,,,,,,,066841,001,2024-06-26_10h26.25.341,5-18,2024.1.4,None,2024-06-26 10h26.31.289011 +0900,
Images/Speaker1.jpg,Images/Speaker2.jpg,Images/Speaker3.jpg,Images/Speaker4.jpg,Audio/Speaker2_Per/P2-4-Per.wav,Speaker2,گوینده۲,,,,,0,78,78,23,,,,,350.52924091697787,,,,,,,,,,,,,,,,,,,,,,,,,,,,,,,,,,,,,,,,,,,,,350.5068849999807,350.52924091697787,350.52924091697787,350.52924091697787,350.52924091697787,350.52335533366227,350.52924091697787,350.52924091697787,351.9857295839756,Correct! صحیح است,2,1.4520913750166073,None,0,79,351.99050799998804,352.0024754169863,353.99739108397625,,,,,,,066841,001,2024-06-26_10h26.25.341,5-18,2024.1.4,None,2024-06-26 10h26.31.289011 +0900,
Images/Speaker1.jpg,Images/Speaker2.jpg,Images/Speaker3.jpg,Images/Speaker4.jpg,Audio/Speaker3_Per/P3-16-Per.wav,Speaker3,گوینده۳,,,,,0,79,79,55,,,,,354.02066366697545,,,,,,,,,,,,,,,,,,,,,,,,,,,,,,,,,,,,,,,,,,,,,353.9979892499978,354.02066366697545,354.02066366697545,354.02066366697545,354.02066366697545,354.0305377923146,354.02066366697545,354.02066366697545,356.26093066699104,Correct! صحیح است,3,2.233487833989784,None,0,80,356.26616795899463,356.2784072919749,358.2681720419787,,,,,,,066841,001,2024-06-26_10h26.25.341,5-18,2024.1.4,None,2024-06-26 10h26.31.289011 +0900,
,,,,,,,,,,,,,,,,,,,,,,,,,,,,,,,,,,,,,,,,,,,,,,,,,,,,,,,,,,,,,,,,,,,,,,,,,,,,,,,,,,,358.2893261249992,0.0,TrainingGroup1,358.2896452919813,,066841,001,2024-06-26_10h26.25.341,5-18,2024.1.4,None,2024-06-26 10h26.31.289011 +0900,
,,,,,,,,,,,,,,,,,,,,,,,,,,,,,,,,,,,,,,,,,,,,,,,,,,,,,,,,,,,,,,,,,,,,,,,,,,,,,,,,,,,,,,,358.2896612919867,,,,,,,,
