SpeakerImage1,SpeakerImage2,SpeakerImage3,SpeakerImage4,TrainingSound,EnglishCorrectAnswer,PersianCorrectAnswer,repeated_TrainingLoopGroup1.thisRepN,repeated_TrainingLoopGroup1.thisTrialN,repeated_TrainingLoopGroup1.thisN,repeated_TrainingLoopGroup1.thisIndex,TrainingLoopGroup1.thisRepN,TrainingLoopGroup1.thisTrialN,TrainingLoopGroup1.thisN,TrainingLoopGroup1.thisIndex,thisRow.t,notes,trial.started,trial.stopped,GroupSelection.started,GroupInstructions.started,key_resp.started,GroupSelection.stopped,key_resp.keys,key_resp.rt,key_resp.duration,HeadphoneCheck.started,text_13.started,mouse.started,checkbox.started,HeadphoneCheck.stopped,mouse.x,mouse.y,mouse.leftButton,mouse.midButton,mouse.rightButton,mouse.time,mouse.clicked_name,Headphone_Used,Introduction.started,text_2.started,image.started,sound_8.started,text_4.started,text_2.stopped,image.stopped,text_4.stopped,image_7.started,sound_10.started,text_5.started,image_7.stopped,text_5.stopped,image_8.started,sound_12.started,text_6.started,image_8.stopped,text_6.stopped,image_9.started,sound_14.started,text_7.started,image_9.stopped,text_7.stopped,Introduction.stopped,Instructions.started,InstructionText.started,InstructionText.stopped,Instructions.stopped,InitializeExperiment.started,InitializeExperiment.stopped,TrainingGroup1.started,image_1.started,image_2.started,image_3.started,image_4.started,sound1.started,Instruction.started,ResponseKey.started,SessionNumberText.started,TrainingGroup1.stopped,feedbackText,correct_responses_group1,total_trials_group1,ResponseKey.keys,ResponseKey.rt,ResponseKey.duration,FeedbackRoutine1.started,FeedbackText.started,FeedbackText.stopped,FeedbackRoutine1.stopped,Break.started,Break.stopped,participant,session,date,expName,psychopyVersion,frameRate,expStart,
,,,,,,,,,,,,,,,,,0.009000082995044068,0.010172207999858074,,,,,,,,,,,,,,,,,,,,,,,,,,,,,,,,,,,,,,,,,,,,,,,,,,,,,,,,,,,,,,,,,,,,,,,,,072347,001,2024-08-01_15h56.03.692,5-34 ready-monolingual persian speaker,2024.1.5,None,2024-08-01 15h56.08.386752 +0900,
,,,,,,,,,,,,,,,,,,,0.010189166998316068,0.015268916999048088,0.015268916999048088,4.557768957994995,1,4.504187583996099,None,,,,,,,,,,,,,,,,,,,,,,,,,,,,,,,,,,,,,,,,,,,,,,,,,,,,,,,,,,,,,,,,,,072347,001,2024-08-01_15h56.03.692,5-34 ready-monolingual persian speaker,2024.1.5,None,2024-08-01 15h56.08.386752 +0900,
,,,,,,,,,,,,,,,,,,,,,,,,,,4.557800957998552,4.568505749994074,0.00015299999358830974,4.568505749994074,5.269105416999082,[-0.1120162932790224],[0.2708757637474542],[1],[0],[0],[0.7105834169997252],[],False,,,,,,,,,,,,,,,,,,,,,,,,,,,,,,,,,,,,,,,,,,,,,,,,,,,,,072347,001,2024-08-01_15h56.03.692,5-34 ready-monolingual persian speaker,2024.1.5,None,2024-08-01 15h56.08.386752 +0900,
,,,,,,,,,,,,,,,,,,,,,,,,,,,,,,,,,,,,,,,5.269271874996775,5.312903749996622,10.259775791993889,10.26989649966369,10.259775791993889,10.307528666999133,18.257940999996208,18.257940999996208,18.262835832996643,18.274607666662874,18.262835832996643,26.26023529200029,26.26023529200029,26.267812582998886,26.276901958666954,26.267812582998886,34.25356716699753,34.25356716699753,34.26758312499442,34.27023383366419,34.26758312499442,42.25635820799653,42.25635820799653,42.251712041994324,,,,,,,,,,,,,,,,,,,,,,,,,,,,,072347,001,2024-08-01_15h56.03.692,5-34 ready-monolingual persian speaker,2024.1.5,None,2024-08-01 15h56.08.386752 +0900,
,,,,,,,,,,,,,,,,,,,,,,,,,,,,,,,,,,,,,,,,,,,,,,,,,,,,,,,,,,,,,,,42.25179733299592,42.26780249999865,43.3455084169982,43.2615278749945,,,,,,,,,,,,,,,,,,,,,,,,,072347,001,2024-08-01_15h56.03.692,5-34 ready-monolingual persian speaker,2024.1.5,None,2024-08-01 15h56.08.386752 +0900,
,,,,,,,,,,,,,,,,,,,,,,,,,,,,,,,,,,,,,,,,,,,,,,,,,,,,,,,,,,,,,,,,,,,43.26154137499543,43.261684375000186,,,,,,,,,,,,,,,,,,,,,,,072347,001,2024-08-01_15h56.03.692,5-34 ready-monolingual persian speaker,2024.1.5,None,2024-08-01 15h56.08.386752 +0900,
Images/Speaker1.jpg,Images/Speaker2.jpg,Images/Speaker3.jpg,Images/Speaker4.jpg,Audio/Speaker1_Per/P1-5-Per.wav,Speaker1,گوینده ۱,0,0,0,62,0,0,0,4,43.3455084169982,,,,,,,,,,,,,,,,,,,,,,,,,,,,,,,,,,,,,,,,,,,,,,,,,,,,,,43.31445316699683,43.3455084169982,43.3455084169982,43.3455084169982,43.3455084169982,43.344598083332436,43.3455084169982,43.3455084169982,43.3455084169982,44.69017124999664,صحیح است,1,1,1,1.3299282080042758,None,44.69466937499965,44.703317624997,46.71744624999701,46.69104674999835,46.691056957999535,46.69121204199473,072347,001,2024-08-01_15h56.03.692,5-34 ready-monolingual persian speaker,2024.1.5,None,2024-08-01 15h56.08.386752 +0900,
Images/Speaker1.jpg,Images/Speaker2.jpg,Images/Speaker3.jpg,Images/Speaker4.jpg,Audio/Speaker2_Per/P2-6-Per.wav,Speaker2,گوینده۲,0,0,0,62,0,1,1,25,46.71744624999701,,,,,,,,,,,,,,,,,,,,,,,,,,,,,,,,,,,,,,,,,,,,,,,,,,,,,,46.69140958299977,46.71744624999701,46.71744624999701,46.71744624999701,46.71744624999701,46.724116958329006,46.71744624999701,46.71744624999701,46.71744624999701,47.40967370799626,نادرست! پاسخ صحیح گوینده۲ است,1,2,1,0.6902106250054203,None,47.41377054199984,47.42646458299714,49.43577012499736,49.41007358299976,49.41010387499409,49.410399666994635,072347,001,2024-08-01_15h56.03.692,5-34 ready-monolingual persian speaker,2024.1.5,None,2024-08-01 15h56.08.386752 +0900,
Images/Speaker1.jpg,Images/Speaker2.jpg,Images/Speaker3.jpg,Images/Speaker4.jpg,Audio/Speaker1_Per/P1-17-Per.wav,Speaker1,گوینده ۱,0,0,0,62,0,2,2,16,49.43577012499736,,,,,,,,,,,,,,,,,,,,,,,,,,,,,,,,,,,,,,,,,,,,,,,,,,,,,,49.41060604199447,49.43577012499736,49.43577012499736,49.43577012499736,49.43577012499736,49.44256595832897,49.43577012499736,49.43577012499736,49.43577012499736,49.71775995799544,صحیح است,2,3,1,0.27260391599702416,None,49.72182695799711,49.73251779199927,51.7514474579948,51.72078637499362,51.72080958299921,51.72132208299445,072347,001,2024-08-01_15h56.03.692,5-34 ready-monolingual persian speaker,2024.1.5,None,2024-08-01 15h56.08.386752 +0900,
Images/Speaker1.jpg,Images/Speaker2.jpg,Images/Speaker3.jpg,Images/Speaker4.jpg,Audio/Speaker3_Per/P3-4-Per.wav,Speaker3,گوینده۳,0,0,0,62,0,3,3,43,51.7514474579948,,,,,,,,,,,,,,,,,,,,,,,,,,,,,,,,,,,,,,,,,,,,,,,,,,,,,,51.72227874999953,51.7514474579948,51.7514474579948,51.7514474579948,51.7514474579948,51.753330083331576,51.7514474579948,51.7514474579948,51.7514474579948,52.137847792000684,نادرست! پاسخ صحیح گوینده۳ است,2,4,1,0.3819621250004275,None,52.1418687080004,52.15344158299558,54.166492416996334,54.13936812499742,54.13937795799575,54.13955479199649,072347,001,2024-08-01_15h56.03.692,5-34 ready-monolingual persian speaker,2024.1.5,None,2024-08-01 15h56.08.386752 +0900,
Images/Speaker1.jpg,Images/Speaker2.jpg,Images/Speaker3.jpg,Images/Speaker4.jpg,Audio/Speaker1_Per/P1-15-Per.wav,Speaker1,گوینده ۱,0,0,0,62,0,4,4,14,54.166492416996334,,,,,,,,,,,,,,,,,,,,,,,,,,,,,,,,,,,,,,,,,,,,,,,,,,,,,,54.139753832998395,54.166492416996334,54.166492416996334,54.166492416996334,54.166492416996334,54.17245045833309,54.166492416996334,54.166492416996334,54.166492416996334,54.52781720799976,صحیح است,3,5,1,0.35353441599727375,None,54.5320322080006,54.54050316699431,56.55053024999506,56.525220666997484,56.52523541700066,56.525382041996636,072347,001,2024-08-01_15h56.03.692,5-34 ready-monolingual persian speaker,2024.1.5,None,2024-08-01 15h56.08.386752 +0900,
Images/Speaker1.jpg,Images/Speaker2.jpg,Images/Speaker3.jpg,Images/Speaker4.jpg,Audio/Speaker3_Per/P3-17-Per.wav,Speaker3,گوینده۳,0,0,0,62,0,5,5,56,56.55053024999506,,,,,,,,,,,,,,,,,,,,,,,,,,,,,,,,,,,,,,,,,,,,,,,,,,,,,,56.52558954199776,56.55053024999506,56.55053024999506,56.55053024999506,56.55053024999506,56.558336041329795,56.55053024999506,56.55053024999506,56.55053024999506,56.72993074999977,نادرست! پاسخ صحیح گوینده۳ است,3,6,1,0.17296658400300657,None,56.73378799999773,56.74439037499542,,58.738306207997084,58.73831495799823,58.73846558299556,072347,001,2024-08-01_15h56.03.692,5-34 ready-monolingual persian speaker,2024.1.5,None,2024-08-01 15h56.08.386752 +0900,
Images/Speaker1.jpg,Images/Speaker2.jpg,Images/Speaker3.jpg,Images/Speaker4.jpg,Audio/Speaker4_Per/P4-16-Per.wav,Speaker4,گوینده۴,0,0,0,62,0,6,6,75,58.76352162499825,,,,,,,,,,,,,,,,,,,,,,,,,,,,,,,,,,,,,,,,,,,,,,,,,,,,,,58.738652791995264,58.76352162499825,58.76352162499825,58.76352162499825,58.76352162499825,58.7716124583317,58.76352162499825,58.76352162499825,58.76352162499825,59.198813999995764,نادرست! پاسخ صحیح گوینده۴ است,3,7,1,0.4288664159976179,None,59.20252579199587,59.21364333299425,61.22087258299871,61.19645412499813,61.19646374999866,61.196593207998376,072347,001,2024-08-01_15h56.03.692,5-34 ready-monolingual persian speaker,2024.1.5,None,2024-08-01 15h56.08.386752 +0900,
Images/Speaker1.jpg,Images/Speaker2.jpg,Images/Speaker3.jpg,Images/Speaker4.jpg,Audio/Speaker4_Per/P4-7-Per.wav,Speaker4,گوینده۴,0,0,0,62,0,7,7,66,61.22087258299871,,,,,,,,,,,,,,,,,,,,,,,,,,,,,,,,,,,,,,,,,,,,,,,,,,,,,,61.19677229199442,61.22087258299871,61.22087258299871,61.22087258299871,61.22087258299871,61.22959391633097,61.22087258299871,61.22087258299871,61.22087258299871,61.58720791700034,نادرست! پاسخ صحیح گوینده۴ است,3,8,1,0.36213608300022315,None,61.59101391699369,61.6027208749947,63.61430316699989,63.58805662499799,63.588068291996024,63.588202749997436,072347,001,2024-08-01_15h56.03.692,5-34 ready-monolingual persian speaker,2024.1.5,None,2024-08-01 15h56.08.386752 +0900,
Images/Speaker1.jpg,Images/Speaker2.jpg,Images/Speaker3.jpg,Images/Speaker4.jpg,Audio/Speaker1_Per/P1-13-Per.wav,Speaker1,گوینده ۱,0,0,0,62,0,8,8,12,63.61430316699989,,,,,,,,,,,,,,,,,,,,,,,,,,,,,,,,,,,,,,,,,,,,,,,,,,,,,,63.5883837500005,63.61430316699989,63.61430316699989,63.61430316699989,63.61430316699989,63.62106187533257,63.61430316699989,63.61430316699989,63.61430316699989,63.83468908299983,صحیح است,4,9,1,0.21936275000189198,None,63.83849999999802,63.849562625000544,65.85848462499416,65.83291641699907,65.83293924999452,65.83324120799807,072347,001,2024-08-01_15h56.03.692,5-34 ready-monolingual persian speaker,2024.1.5,None,2024-08-01 15h56.08.386752 +0900,
Images/Speaker1.jpg,Images/Speaker2.jpg,Images/Speaker3.jpg,Images/Speaker4.jpg,Audio/Speaker2_Per/P2-16-Per.wav,Speaker2,گوینده۲,0,0,0,62,0,9,9,35,65.85848462499416,,,,,,,,,,,,,,,,,,,,,,,,,,,,,,,,,,,,,,,,,,,,,,,,,,,,,,65.83420437499444,65.85848462499416,65.85848462499416,65.85848462499416,65.85848462499416,65.86529908332935,65.85848462499416,65.85848462499416,65.85848462499416,65.88332345799427,نادرست! پاسخ صحیح گوینده۲ است,4,10,1,0.0172168330027489,None,65.88756512499822,65.89599183300015,67.90763183299714,67.88253070799692,67.88254054199933,67.8826900829954,072347,001,2024-08-01_15h56.03.692,5-34 ready-monolingual persian speaker,2024.1.5,None,2024-08-01 15h56.08.386752 +0900,
Images/Speaker1.jpg,Images/Speaker2.jpg,Images/Speaker3.jpg,Images/Speaker4.jpg,Audio/Speaker1_Per/P1-6-Per.wav,Speaker1,گوینده ۱,0,0,0,62,0,10,10,5,67.90763183299714,,,,,,,,,,,,,,,,,,,,,,,,,,,,,,,,,,,,,,,,,,,,,,,,,,,,,,67.88286366700049,67.90763183299714,67.90763183299714,67.90763183299714,67.90763183299714,67.91564804132989,67.90763183299714,67.90763183299714,67.90763183299714,68.17669424999622,صحیح است,5,11,1,0.2666483330031042,None,68.18037916699541,68.190916749998,70.19907799999783,70.17469424999581,70.17470358299761,70.17485158299678,072347,001,2024-08-01_15h56.03.692,5-34 ready-monolingual persian speaker,2024.1.5,None,2024-08-01 15h56.08.386752 +0900,
Images/Speaker1.jpg,Images/Speaker2.jpg,Images/Speaker3.jpg,Images/Speaker4.jpg,Audio/Speaker2_Per/P2-4-Per.wav,Speaker2,گوینده۲,0,0,0,62,0,11,11,23,70.19907799999783,,,,,,,,,,,,,,,,,,,,,,,,,,,,,,,,,,,,,,,,,,,,,,,,,,,,,,70.17505629199877,70.19907799999783,70.19907799999783,70.19907799999783,70.19907799999783,70.20782612532687,70.19907799999783,70.19907799999783,70.19907799999783,70.42911299999832,نادرست! پاسخ صحیح گوینده۲ است,5,12,1,0.22744041700207163,None,70.43319791699469,70.44459308299702,72.462786666998,72.43199729199841,72.43202133299928,72.43226795800001,072347,001,2024-08-01_15h56.03.692,5-34 ready-monolingual persian speaker,2024.1.5,None,2024-08-01 15h56.08.386752 +0900,
Images/Speaker1.jpg,Images/Speaker2.jpg,Images/Speaker3.jpg,Images/Speaker4.jpg,Audio/Speaker2_Per/P2-2-Per.wav,Speaker2,گوینده۲,0,0,0,62,0,12,12,21,72.462786666998,,,,,,,,,,,,,,,,,,,,,,,,,,,,,,,,,,,,,,,,,,,,,,,,,,,,,,72.43304345799697,72.462786666998,72.462786666998,72.462786666998,72.462786666998,72.4643358753315,72.462786666998,72.462786666998,72.462786666998,72.64724483299506,نادرست! پاسخ صحیح گوینده۲ است,5,13,1,0.18343233299674466,None,72.65103299999464,72.66221091699845,,74.65412166699389,74.65415412499715,74.65481029199873,072347,001,2024-08-01_15h56.03.692,5-34 ready-monolingual persian speaker,2024.1.5,None,2024-08-01 15h56.08.386752 +0900,
Images/Speaker1.jpg,Images/Speaker2.jpg,Images/Speaker3.jpg,Images/Speaker4.jpg,Audio/Speaker1_Per/P1-4-Per.wav,Speaker1,گوینده ۱,0,0,0,62,0,13,13,13,74.68332808299601,,,,,,,,,,,,,,,,,,,,,,,,,,,,,,,,,,,,,,,,,,,,,,,,,,,,,,74.65566849999595,74.68332808299601,74.68332808299601,74.68332808299601,74.68332808299601,74.68729816633325,74.68332808299601,74.68332808299601,74.68332808299601,74.89338858299743,صحیح است,6,14,1,0.2085173340019537,None,74.89731016699807,74.9081139169939,76.9185637499977,76.89221799999359,76.89226066699484,76.89263195799867,072347,001,2024-08-01_15h56.03.692,5-34 ready-monolingual persian speaker,2024.1.5,None,2024-08-01 15h56.08.386752 +0900,
Images/Speaker1.jpg,Images/Speaker2.jpg,Images/Speaker3.jpg,Images/Speaker4.jpg,Audio/Speaker2_Per/P2-8-Per.wav,Speaker2,گوینده۲,0,0,0,62,0,14,14,27,76.9185637499977,,,,,,,,,,,,,,,,,,,,,,,,,,,,,,,,,,,,,,,,,,,,,,,,,,,,,,76.89347837499372,76.9185637499977,76.9185637499977,76.9185637499977,76.9185637499977,76.92476283333284,76.9185637499977,76.9185637499977,76.9185637499977,77.15410433299985,نادرست! پاسخ صحیح گوینده۲ است,6,15,1,0.23391479199926835,None,77.1580620829991,77.16941024999687,79.18118608299847,79.1568490829959,79.15686054199614,79.15700320799806,072347,001,2024-08-01_15h56.03.692,5-34 ready-monolingual persian speaker,2024.1.5,None,2024-08-01 15h56.08.386752 +0900,
Images/Speaker1.jpg,Images/Speaker2.jpg,Images/Speaker3.jpg,Images/Speaker4.jpg,Audio/Speaker1_Per/P1-8-Per.wav,Speaker1,گوینده ۱,0,0,0,62,0,15,15,7,79.18118608299847,,,,,,,,,,,,,,,,,,,,,,,,,,,,,,,,,,,,,,,,,,,,,,,,,,,,,,79.15720899999724,79.18118608299847,79.18118608299847,79.18118608299847,79.18118608299847,79.18990908333265,79.18118608299847,79.18118608299847,79.18118608299847,79.55680374999793,صحیح است,7,16,1,0.3729012909971061,None,79.5607452080003,79.57119033299387,,81.5656681670007,81.56570583299617,81.56635758299672,072347,001,2024-08-01_15h56.03.692,5-34 ready-monolingual persian speaker,2024.1.5,None,2024-08-01 15h56.08.386752 +0900,
Images/Speaker1.jpg,Images/Speaker2.jpg,Images/Speaker3.jpg,Images/Speaker4.jpg,Audio/Speaker2_Per/P2-12-Per.wav,Speaker2,گوینده۲,0,0,0,62,0,16,16,31,81.59309066699643,,,,,,,,,,,,,,,,,,,,,,,,,,,,,,,,,,,,,,,,,,,,,,,,,,,,,,81.56725133299915,81.59309066699643,81.59309066699643,81.59309066699643,81.59309066699643,81.59885562532921,81.59309066699643,81.59309066699643,81.59309066699643,81.84701883299567,نادرست! پاسخ صحیح گوینده۲ است,7,17,1,0.25170525000430644,None,81.85077379199356,81.86243149999791,83.8761097079987,83.84904216699942,83.84908224999526,83.84935920799762,072347,001,2024-08-01_15h56.03.692,5-34 ready-monolingual persian speaker,2024.1.5,None,2024-08-01 15h56.08.386752 +0900,
Images/Speaker1.jpg,Images/Speaker2.jpg,Images/Speaker3.jpg,Images/Speaker4.jpg,Audio/Speaker2_Per/P2-13-Per.wav,Speaker2,گوینده۲,0,0,0,62,0,17,17,32,83.8761097079987,,,,,,,,,,,,,,,,,,,,,,,,,,,,,,,,,,,,,,,,,,,,,,,,,,,,,,83.8502730830005,83.8761097079987,83.8761097079987,83.8761097079987,83.8761097079987,83.88153387532705,83.8761097079987,83.8761097079987,83.8761097079987,84.02935366699967,نادرست! پاسخ صحیح گوینده۲ است,7,18,1,0.1448105410017888,None,84.03333704199758,84.04471516699414,86.06129849999706,86.03186374999495,86.03188558299735,86.03213112499361,072347,001,2024-08-01_15h56.03.692,5-34 ready-monolingual persian speaker,2024.1.5,None,2024-08-01 15h56.08.386752 +0900,
Images/Speaker1.jpg,Images/Speaker2.jpg,Images/Speaker3.jpg,Images/Speaker4.jpg,Audio/Speaker3_Per/P3-19-Per.wav,Speaker3,گوینده۳,0,0,0,62,0,18,18,58,86.06129849999706,,,,,,,,,,,,,,,,,,,,,,,,,,,,,,,,,,,,,,,,,,,,,,,,,,,,,,86.0328359579944,86.06129849999706,86.06129849999706,86.06129849999706,86.06129849999706,86.06446741632729,86.06129849999706,86.06129849999706,86.06129849999706,86.33724787499523,نادرست! پاسخ صحیح گوینده۳ است,7,19,1,0.27339383299840847,None,86.34108991699759,86.35237420799967,,88.3461777919947,88.34618654199585,88.34641849999753,072347,001,2024-08-01_15h56.03.692,5-34 ready-monolingual persian speaker,2024.1.5,None,2024-08-01 15h56.08.386752 +0900,
Images/Speaker1.jpg,Images/Speaker2.jpg,Images/Speaker3.jpg,Images/Speaker4.jpg,Audio/Speaker2_Per/P2-18-Per.wav,Speaker2,گوینده۲,0,0,0,62,0,19,19,37,88.37079683299817,,,,,,,,,,,,,,,,,,,,,,,,,,,,,,,,,,,,,,,,,,,,,,,,,,,,,,88.34663891699893,88.37079683299817,88.37079683299817,88.37079683299817,88.37079683299817,88.37947570833106,88.37079683299817,88.37079683299817,88.37079683299817,88.59694812499947,نادرست! پاسخ صحیح گوینده۲ است,7,20,1,0.22514591599610867,None,88.60081616699608,88.61203733299772,90.62158491699665,90.59495466699445,90.59496591700008,90.59509841699764,072347,001,2024-08-01_15h56.03.692,5-34 ready-monolingual persian speaker,2024.1.5,None,2024-08-01 15h56.08.386752 +0900,
Images/Speaker1.jpg,Images/Speaker2.jpg,Images/Speaker3.jpg,Images/Speaker4.jpg,Audio/Speaker3_Per/P3-14-Per.wav,Speaker3,گوینده۳,0,0,0,62,0,20,20,53,90.62158491699665,,,,,,,,,,,,,,,,,,,,,,,,,,,,,,,,,,,,,,,,,,,,,,,,,,,,,,90.59526787499635,90.62158491699665,90.62158491699665,90.62158491699665,90.62158491699665,90.62800470832784,90.62158491699665,90.62158491699665,90.62158491699665,90.86409387499589,نادرست! پاسخ صحیح گوینده۳ است,7,21,1,0.23582437499862863,None,90.86832995800069,90.87962233299913,92.89457924999442,92.86745374999737,92.86748287499358,92.86783337499946,072347,001,2024-08-01_15h56.03.692,5-34 ready-monolingual persian speaker,2024.1.5,None,2024-08-01 15h56.08.386752 +0900,
Images/Speaker1.jpg,Images/Speaker2.jpg,Images/Speaker3.jpg,Images/Speaker4.jpg,Audio/Speaker1_Per/P1-11-Per.wav,Speaker1,گوینده ۱,0,0,0,62,0,21,21,10,92.89457924999442,,,,,,,,,,,,,,,,,,,,,,,,,,,,,,,,,,,,,,,,,,,,,,,,,,,,,,92.86880445799761,92.89457924999442,92.89457924999442,92.89457924999442,92.89457924999442,92.89990245833226,92.89457924999442,92.89457924999442,92.89457924999442,93.27152358299645,صحیح است,8,22,1,0.36889583300217055,None,93.27549837499828,93.28586258299765,95.29281795799761,95.26889712499542,95.26890679200005,95.26916195800004,072347,001,2024-08-01_15h56.03.692,5-34 ready-monolingual persian speaker,2024.1.5,None,2024-08-01 15h56.08.386752 +0900,
Images/Speaker1.jpg,Images/Speaker2.jpg,Images/Speaker3.jpg,Images/Speaker4.jpg,Audio/Speaker4_Per/P4-10-Per.wav,Speaker4,گوینده۴,0,0,0,62,0,22,22,69,95.29281795799761,,,,,,,,,,,,,,,,,,,,,,,,,,,,,,,,,,,,,,,,,,,,,,,,,,,,,,95.26933599999757,95.29281795799761,95.29281795799761,95.29281795799761,95.29281795799761,95.30196712532828,95.29281795799761,95.29281795799761,95.29281795799761,95.63032562499575,نادرست! پاسخ صحیح گوینده۴ است,8,23,1,0.32848125000600703,None,95.63428720799857,95.64573937499517,97.65505466699688,97.62953129199741,97.62954099999479,97.62971499999549,072347,001,2024-08-01_15h56.03.692,5-34 ready-monolingual persian speaker,2024.1.5,None,2024-08-01 15h56.08.386752 +0900,
Images/Speaker1.jpg,Images/Speaker2.jpg,Images/Speaker3.jpg,Images/Speaker4.jpg,Audio/Speaker3_Per/P3-5-Per.wav,Speaker3,گوینده۳,0,0,0,62,0,23,23,44,97.65505466699688,,,,,,,,,,,,,,,,,,,,,,,,,,,,,,,,,,,,,,,,,,,,,,,,,,,,,,97.62988762500026,97.65505466699688,97.65505466699688,97.65505466699688,97.65505466699688,97.6626452913338,97.65505466699688,97.65505466699688,97.65505466699688,97.93727524999849,نادرست! پاسخ صحیح گوینده۳ است,8,24,1,0.2812941669981228,None,97.9414419579989,97.95292291700025,,99.94861358299386,99.94862204200035,99.94878670799517,072347,001,2024-08-01_15h56.03.692,5-34 ready-monolingual persian speaker,2024.1.5,None,2024-08-01 15h56.08.386752 +0900,
Images/Speaker1.jpg,Images/Speaker2.jpg,Images/Speaker3.jpg,Images/Speaker4.jpg,Audio/Speaker2_Per/P2-17-Per.wav,Speaker2,گوینده۲,0,0,0,62,0,24,24,36,99.9726828329949,,,,,,,,,,,,,,,,,,,,,,,,,,,,,,,,,,,,,,,,,,,,,,,,,,,,,,99.94895258299948,99.9726828329949,99.9726828329949,99.9726828329949,99.9726828329949,99.98191462532898,99.9726828329949,99.9726828329949,99.9726828329949,100.22037199999613,نادرست! پاسخ صحیح گوینده۲ است,8,25,1,0.2467594579939032,None,100.22427479199541,100.23558049999701,102.24671487500018,102.2220764579979,102.22209020800074,102.2222356669954,072347,001,2024-08-01_15h56.03.692,5-34 ready-monolingual persian speaker,2024.1.5,None,2024-08-01 15h56.08.386752 +0900,
Images/Speaker1.jpg,Images/Speaker2.jpg,Images/Speaker3.jpg,Images/Speaker4.jpg,Audio/Speaker2_Per/P2-9-Per.wav,Speaker2,گوینده۲,0,0,0,62,0,25,25,28,102.24671487500018,,,,,,,,,,,,,,,,,,,,,,,,,,,,,,,,,,,,,,,,,,,,,,,,,,,,,,102.2224035420004,102.24671487500018,102.24671487500018,102.24671487500018,102.24671487500018,102.25517925032958,102.24671487500018,102.24671487500018,102.24671487500018,102.61339141699864,نادرست! پاسخ صحیح گوینده۲ است,8,26,1,0.3608512499995413,None,102.61715174999699,102.62895879199641,,104.62413699999888,104.6241458749937,104.62430704199505,072347,001,2024-08-01_15h56.03.692,5-34 ready-monolingual persian speaker,2024.1.5,None,2024-08-01 15h56.08.386752 +0900,
Images/Speaker1.jpg,Images/Speaker2.jpg,Images/Speaker3.jpg,Images/Speaker4.jpg,Audio/Speaker4_Per/P4-14-Per.wav,Speaker4,گوینده۴,0,0,0,62,0,26,26,73,104.65192099999695,,,,,,,,,,,,,,,,,,,,,,,,,,,,,,,,,,,,,,,,,,,,,,,,,,,,,,104.62483162499848,104.65192099999695,104.65192099999695,104.65192099999695,104.65192099999695,104.65743483333111,104.65192099999695,104.65192099999695,104.65192099999695,104.9054288749976,نادرست! پاسخ صحیح گوینده۴ است,8,27,1,0.24974141600250732,None,104.90963216700038,104.9209274169989,106.93021829200006,106.90487895799743,106.90489454199997,106.90502837499662,072347,001,2024-08-01_15h56.03.692,5-34 ready-monolingual persian speaker,2024.1.5,None,2024-08-01 15h56.08.386752 +0900,
Images/Speaker1.jpg,Images/Speaker2.jpg,Images/Speaker3.jpg,Images/Speaker4.jpg,Audio/Speaker2_Per/P2-14-Per.wav,Speaker2,گوینده۲,0,0,0,62,0,27,27,33,106.93021829200006,,,,,,,,,,,,,,,,,,,,,,,,,,,,,,,,,,,,,,,,,,,,,,,,,,,,,,106.90519558300002,106.93021829200006,106.93021829200006,106.93021829200006,106.93021829200006,106.93800675033029,106.93021829200006,106.93021829200006,106.93021829200006,107.16019075000077,نادرست! پاسخ صحیح گوینده۲ است,8,28,1,0.22775704200466862,None,107.16400504199555,107.17485429199587,,109.1659453329994,109.16595633299585,109.16611604199716,072347,001,2024-08-01_15h56.03.692,5-34 ready-monolingual persian speaker,2024.1.5,None,2024-08-01 15h56.08.386752 +0900,
Images/Speaker1.jpg,Images/Speaker2.jpg,Images/Speaker3.jpg,Images/Speaker4.jpg,Audio/Speaker2_Per/P2-15-Per.wav,Speaker2,گوینده۲,0,0,0,62,0,28,28,34,109.19123649999528,,,,,,,,,,,,,,,,,,,,,,,,,,,,,,,,,,,,,,,,,,,,,,,,,,,,,,109.1663256249958,109.19123649999528,109.19123649999528,109.19123649999528,109.19123649999528,109.19923683333084,109.19123649999528,109.19123649999528,109.19123649999528,109.29803579199506,نادرست! پاسخ صحیح گوینده۲ است,8,29,1,0.10360312499688007,None,109.30184608299896,109.31247212499875,111.32861462499568,111.29979895799625,111.29983558299864,111.30014200000005,072347,001,2024-08-01_15h56.03.692,5-34 ready-monolingual persian speaker,2024.1.5,None,2024-08-01 15h56.08.386752 +0900,
Images/Speaker1.jpg,Images/Speaker2.jpg,Images/Speaker3.jpg,Images/Speaker4.jpg,Audio/Speaker4_Per/P4-15-Per.wav,Speaker4,گوینده۴,0,0,0,62,0,29,29,74,111.32861462499568,,,,,,,,,,,,,,,,,,,,,,,,,,,,,,,,,,,,,,,,,,,,,,,,,,,,,,111.30103908299498,111.32861462499568,111.32861462499568,111.32861462499568,111.32861462499568,111.33237775033243,111.32861462499568,111.32861462499568,111.32861462499568,111.4969667080004,نادرست! پاسخ صحیح گوینده۴ است,8,30,1,0.16684558300039498,None,111.50093845799711,111.51228558299772,113.52706354199472,113.50039737499901,113.50042937499529,113.50083066699881,072347,001,2024-08-01_15h56.03.692,5-34 ready-monolingual persian speaker,2024.1.5,None,2024-08-01 15h56.08.386752 +0900,
Images/Speaker1.jpg,Images/Speaker2.jpg,Images/Speaker3.jpg,Images/Speaker4.jpg,Audio/Speaker3_Per/P3-9-Per.wav,Speaker3,گوینده۳,0,0,0,62,0,30,30,48,113.52706354199472,,,,,,,,,,,,,,,,,,,,,,,,,,,,,,,,,,,,,,,,,,,,,,,,,,,,,,113.50181445799535,113.52706354199472,113.52706354199472,113.52706354199472,113.52706354199472,113.53286129132951,113.52706354199472,113.52706354199472,113.52706354199472,113.6731239169967,نادرست! پاسخ صحیح گوینده۳ است,8,31,1,0.14315687499765772,None,113.6771659579972,113.68839954199939,115.70088304199453,115.67546208299609,115.67547162499977,115.67561104199558,072347,001,2024-08-01_15h56.03.692,5-34 ready-monolingual persian speaker,2024.1.5,None,2024-08-01 15h56.08.386752 +0900,
Images/Speaker1.jpg,Images/Speaker2.jpg,Images/Speaker3.jpg,Images/Speaker4.jpg,Audio/Speaker3_Per/P3-1-Per.wav,Speaker3,گوینده۳,0,0,0,62,0,31,31,40,115.70088304199453,,,,,,,,,,,,,,,,,,,,,,,,,,,,,,,,,,,,,,,,,,,,,,,,,,,,,,115.67582499999844,115.70088304199453,115.70088304199453,115.70088304199453,115.70088304199453,115.70854366633333,115.70088304199453,115.70088304199453,115.70088304199453,115.91465437499573,نادرست! پاسخ صحیح گوینده۳ است,8,32,1,0.20605366599920671,None,115.91874987499614,115.9300504999992,,117.92432287499832,117.924332124996,117.92450749999989,072347,001,2024-08-01_15h56.03.692,5-34 ready-monolingual persian speaker,2024.1.5,None,2024-08-01 15h56.08.386752 +0900,
Images/Speaker1.jpg,Images/Speaker2.jpg,Images/Speaker3.jpg,Images/Speaker4.jpg,Audio/Speaker1_Per/P1-2-Per.wav,Speaker1,گوینده ۱,0,0,0,62,0,32,32,1,117.94983249999495,,,,,,,,,,,,,,,,,,,,,,,,,,,,,,,,,,,,,,,,,,,,,,,,,,,,,,117.92468758299947,117.94983249999495,117.94983249999495,117.94983249999495,117.94983249999495,117.95761916632958,117.94983249999495,117.94983249999495,117.94983249999495,118.15932975000032,صحیح است,9,33,1,0.20803629199508578,None,118.16313287499361,118.1739375420002,,120.16586308299884,120.1658991669974,120.1668014579991,072347,001,2024-08-01_15h56.03.692,5-34 ready-monolingual persian speaker,2024.1.5,None,2024-08-01 15h56.08.386752 +0900,
Images/Speaker1.jpg,Images/Speaker2.jpg,Images/Speaker3.jpg,Images/Speaker4.jpg,Audio/Speaker3_Per/P3-16-Per.wav,Speaker3,گوینده۳,0,0,0,62,0,33,33,55,120.19215029199404,,,,,,,,,,,,,,,,,,,,,,,,,,,,,,,,,,,,,,,,,,,,,,,,,,,,,,120.16778524999972,120.19215029199404,120.19215029199404,120.19215029199404,120.19215029199404,120.19902333332769,120.19215029199404,120.19215029199404,120.19215029199404,120.32116566699551,نادرست! پاسخ صحیح گوینده۳ است,9,34,1,0.12126416600222001,None,120.32498945800035,120.3360746249964,122.34548154199729,122.31999274999544,122.32000424999569,122.3201454999944,072347,001,2024-08-01_15h56.03.692,5-34 ready-monolingual persian speaker,2024.1.5,None,2024-08-01 15h56.08.386752 +0900,
Images/Speaker1.jpg,Images/Speaker2.jpg,Images/Speaker3.jpg,Images/Speaker4.jpg,Audio/Speaker4_Per/P4-19-Per.wav,Speaker4,گوینده۴,0,0,0,62,0,34,34,78,122.34548154199729,,,,,,,,,,,,,,,,,,,,,,,,,,,,,,,,,,,,,,,,,,,,,,,,,,,,,,122.32033745799708,122.34548154199729,122.34548154199729,122.34548154199729,122.34548154199729,122.35311241632783,122.34548154199729,122.34548154199729,122.34548154199729,122.58096358299372,نادرست! پاسخ صحیح گوینده۴ است,9,35,1,0.22350541599735152,None,122.58503158299573,122.59648787499464,,124.59118779200071,124.59121983299701,124.5921864579941,072347,001,2024-08-01_15h56.03.692,5-34 ready-monolingual persian speaker,2024.1.5,None,2024-08-01 15h56.08.386752 +0900,
Images/Speaker1.jpg,Images/Speaker2.jpg,Images/Speaker3.jpg,Images/Speaker4.jpg,Audio/Speaker2_Per/P2-11-Per.wav,Speaker2,گوینده۲,0,0,0,62,0,35,35,30,124.61924754199572,,,,,,,,,,,,,,,,,,,,,,,,,,,,,,,,,,,,,,,,,,,,,,,,,,,,,,124.59320533299615,124.61924754199572,124.61924754199572,124.61924754199572,124.61924754199572,124.62437170832757,124.61924754199572,124.61924754199572,124.61924754199572,124.8890275829981,نادرست! پاسخ صحیح گوینده۲ است,9,36,1,0.2669156660049339,None,124.89317949999531,124.90462983299949,,126.89796495799965,126.89799591699557,126.89861991699581,072347,001,2024-08-01_15h56.03.692,5-34 ready-monolingual persian speaker,2024.1.5,None,2024-08-01 15h56.08.386752 +0900,
Images/Speaker1.jpg,Images/Speaker2.jpg,Images/Speaker3.jpg,Images/Speaker4.jpg,Audio/Speaker1_Per/P1-3-Per.wav,Speaker1,گوینده ۱,0,0,0,62,0,36,36,2,126.9262127080001,,,,,,,,,,,,,,,,,,,,,,,,,,,,,,,,,,,,,,,,,,,,,,,,,,,,,,126.89923899999849,126.9262127080001,126.9262127080001,126.9262127080001,126.9262127080001,126.93112366632752,126.9262127080001,126.9262127080001,126.9262127080001,127.10564774999511,صحیح است,10,37,1,0.17723991700040642,None,127.10973358299816,127.11981816699699,,129.1142783749965,129.11431716699735,129.11504412499926,072347,001,2024-08-01_15h56.03.692,5-34 ready-monolingual persian speaker,2024.1.5,None,2024-08-01 15h56.08.386752 +0900,
Images/Speaker1.jpg,Images/Speaker2.jpg,Images/Speaker3.jpg,Images/Speaker4.jpg,Audio/Speaker3_Per/P3-15-Per.wav,Speaker3,گوینده۳,0,0,0,62,0,37,37,54,129.1437506250004,,,,,,,,,,,,,,,,,,,,,,,,,,,,,,,,,,,,,,,,,,,,,,,,,,,,,,129.11558904199774,129.1437506250004,129.1437506250004,129.1437506250004,129.1437506250004,129.14745312533393,129.1437506250004,129.1437506250004,129.1437506250004,129.40170066699648,نادرست! پاسخ صحیح گوینده۳ است,10,38,1,0.254686792002758,None,129.4056800420003,129.41677316699497,131.42609887499566,131.40095304200076,131.400965791996,131.40113995799766,072347,001,2024-08-01_15h56.03.692,5-34 ready-monolingual persian speaker,2024.1.5,None,2024-08-01 15h56.08.386752 +0900,
Images/Speaker1.jpg,Images/Speaker2.jpg,Images/Speaker3.jpg,Images/Speaker4.jpg,Audio/Speaker2_Per/P2-7-Per.wav,Speaker2,گوینده۲,0,0,0,62,0,38,38,26,131.42609887499566,,,,,,,,,,,,,,,,,,,,,,,,,,,,,,,,,,,,,,,,,,,,,,,,,,,,,,131.40130649999628,131.42609887499566,131.42609887499566,131.42609887499566,131.42609887499566,131.43401533333287,131.42609887499566,131.42609887499566,131.42609887499566,131.67114445799962,نادرست! پاسخ صحیح گوینده۲ است,10,39,1,0.23553966700274032,None,131.6751289169988,131.6840172499942,133.69188216699695,133.66783670799487,133.6678463329954,133.66801370799658,072347,001,2024-08-01_15h56.03.692,5-34 ready-monolingual persian speaker,2024.1.5,None,2024-08-01 15h56.08.386752 +0900,
,,,,,,,,,,,,,,,133.69188216699695,,,,,,,,,,,,,,,,,,,,,,,,,,,,,,,,,,,,,,,,,,,,,,,,,,,,,,133.6682010000004,133.69188216699695,133.69188216699695,133.69188216699695,133.69188216699695,133.7009632503328,133.69188216699695,133.69188216699695,133.69188216699695,135.41254883299553,نادرست! پاسخ صحیح گوینده۴ است,10,40,1,1.710537375001877,None,135.4166726669937,135.4278892079965,,137.41445070799818,137.4144602499946,,,,,,,,,
