SpeakerImage1,SpeakerImage2,SpeakerImage3,SpeakerImage4,TrainingSound,EnglishCorrectAnswer,PersianCorrectAnswer,repeated_TrainingLoopGroup1.thisRepN,repeated_TrainingLoopGroup1.thisTrialN,repeated_TrainingLoopGroup1.thisN,repeated_TrainingLoopGroup1.thisIndex,TrainingLoopGroup1.thisRepN,TrainingLoopGroup1.thisTrialN,TrainingLoopGroup1.thisN,TrainingLoopGroup1.thisIndex,thisRow.t,notes,trial.started,trial.stopped,GroupSelection.started,GroupInstructions.started,key_resp.started,GroupSelection.stopped,key_resp.keys,key_resp.rt,key_resp.duration,Introduction.started,text_2.started,image.started,sound_7.started,text_4.started,text_2.stopped,sound_8.started,image.stopped,text_4.stopped,image_7.started,sound_9.started,text_5.started,sound_10.started,image_7.stopped,text_5.stopped,image_8.started,sound_11.started,text_6.started,sound_12.started,image_8.stopped,text_6.stopped,image_9.started,sound_13.started,text_7.started,sound_14.started,image_9.stopped,text_7.stopped,Introduction.stopped,Instructions.started,InstructionText.started,InstructionText.stopped,Instructions.stopped,InitializeExperiment.started,InitializeExperiment.stopped,CheckAccuracy1.started,CheckAccuracy1.stopped,participant,session,date,expName,psychopyVersion,frameRate,expStart,
,,,,,,,,,,,,,,,,,0.009409708000021055,0.009828791000472847,,,,,,,,,,,,,,,,,,,,,,,,,,,,,,,,,,,,,,,,,,,,086575,001,2024-07-01_23h27.44.647,5-28,2024.1.4,None,2024-07-01 23h27.50.282866 +0900,
,,,,,,,,,,,,,,,,,,,0.009845125001447741,0.015194791001704289,0.015194791001704289,1.1250127910025185,3,1.0734638329995505,None,,,,,,,,,,,,,,,,,,,,,,,,,,,,,,,,,,,,,086575,001,2024-07-01_23h27.44.647,5-28,2024.1.4,None,2024-07-01 23h27.50.282866 +0900,
,,,,,,,,,,,,,,,,,,,,,,,,,,1.1250454580003861,1.1777751660010836,6.121375416001683,6.130974166666662,6.121375416001683,6.176779208002699,11.127813291667069,16.11778545800189,16.11778545800189,16.11778545800189,16.129527457666214,16.11778545800189,21.124227624666915,26.110449708001397,26.110449708001397,26.115740708002704,26.127116374668063,26.115740708002704,31.124961082667383,36.10733095800242,36.10733095800242,36.12652116600293,36.1384580826673,36.12652116600293,41.125392999667625,46.12628437500098,46.12628437500098,46.1212920830003,,,,,,,,,086575,001,2024-07-01_23h27.44.647,5-28,2024.1.4,None,2024-07-01 23h27.50.282866 +0900,
,,,,,,,,,,,,,,,,,,,,,,,,,,,,,,,,,,,,,,,,,,,,,,,,,,,,,,46.1213867080005,46.12628437500098,72.38753945800272,47.11176562500259,,,,,086575,001,2024-07-01_23h27.44.647,5-28,2024.1.4,None,2024-07-01 23h27.50.282866 +0900,
,,,,,,,,,,,,,,,,,,,,,,,,,,,,,,,,,,,,,,,,,,,,,,,,,,,,,,,,,,47.11178250000012,47.11193558300147,,,086575,001,2024-07-01_23h27.44.647,5-28,2024.1.4,None,2024-07-01 23h27.50.282866 +0900,
Images/Speaker1.jpg,Images/Speaker2.jpg,Images/Speaker3.jpg,Images/Speaker4.jpg,Audio/Speaker3_Per/P3-15-Per.wav,Speaker3,گوینده۳,0,0,0,54,,,,,72.38753945800272,,,,,,,,,,,,,,,,,,,,,,,,,,,,,,,,,,,,,,,,,,,,,47.16201287500007,47.162413666002976,086575,001,2024-07-01_23h27.44.647,5-28,2024.1.4,None,2024-07-01 23h27.50.282866 +0900,
Images/Speaker1.jpg,Images/Speaker2.jpg,Images/Speaker3.jpg,Images/Speaker4.jpg,Audio/Speaker2_Per/P2-12-Per.wav,Speaker2,گوینده۲,0,1,1,31,,,,,72.38753945800272,,,,,,,,,,,,,,,,,,,,,,,,,,,,,,,,,,,,,,,,,,,,,47.1805002910005,47.18072191600004,086575,001,2024-07-01_23h27.44.647,5-28,2024.1.4,None,2024-07-01 23h27.50.282866 +0900,
Images/Speaker1.jpg,Images/Speaker2.jpg,Images/Speaker3.jpg,Images/Speaker4.jpg,Audio/Speaker1_Per/P1-20-Per.wav,Speaker1,گوینده ۱,0,2,2,19,,,,,72.38753945800272,,,,,,,,,,,,,,,,,,,,,,,,,,,,,,,,,,,,,,,,,,,,,47.198947458000475,47.199222875002306,086575,001,2024-07-01_23h27.44.647,5-28,2024.1.4,None,2024-07-01 23h27.50.282866 +0900,
Images/Speaker1.jpg,Images/Speaker2.jpg,Images/Speaker3.jpg,Images/Speaker4.jpg,Audio/Speaker4_Per/P4-19-Per.wav,Speaker4,گوینده۴,0,3,3,78,,,,,72.38753945800272,,,,,,,,,,,,,,,,,,,,,,,,,,,,,,,,,,,,,,,,,,,,,47.216144500001974,47.21635154100295,086575,001,2024-07-01_23h27.44.647,5-28,2024.1.4,None,2024-07-01 23h27.50.282866 +0900,
Images/Speaker1.jpg,Images/Speaker2.jpg,Images/Speaker3.jpg,Images/Speaker4.jpg,Audio/Speaker2_Per/P2-18-Per.wav,Speaker2,گوینده۲,0,4,4,37,,,,,72.38753945800272,,,,,,,,,,,,,,,,,,,,,,,,,,,,,,,,,,,,,,,,,,,,,47.23301737500151,47.23319495800024,086575,001,2024-07-01_23h27.44.647,5-28,2024.1.4,None,2024-07-01 23h27.50.282866 +0900,
Images/Speaker1.jpg,Images/Speaker2.jpg,Images/Speaker3.jpg,Images/Speaker4.jpg,Audio/Speaker3_Per/P3-8-Per.wav,Speaker3,گوینده۳,0,5,5,47,,,,,72.38753945800272,,,,,,,,,,,,,,,,,,,,,,,,,,,,,,,,,,,,,,,,,,,,,47.24915562500246,47.24934466600098,086575,001,2024-07-01_23h27.44.647,5-28,2024.1.4,None,2024-07-01 23h27.50.282866 +0900,
Images/Speaker1.jpg,Images/Speaker2.jpg,Images/Speaker3.jpg,Images/Speaker4.jpg,Audio/Speaker1_Per/P1-12-Per.wav,Speaker1,گوینده ۱,0,6,6,11,,,,,72.38753945800272,,,,,,,,,,,,,,,,,,,,,,,,,,,,,,,,,,,,,,,,,,,,,47.265978416002326,47.266144208002515,086575,001,2024-07-01_23h27.44.647,5-28,2024.1.4,None,2024-07-01 23h27.50.282866 +0900,
Images/Speaker1.jpg,Images/Speaker2.jpg,Images/Speaker3.jpg,Images/Speaker4.jpg,Audio/Speaker3_Per/P3-12-Per.wav,Speaker3,گوینده۳,0,7,7,51,,,,,72.38753945800272,,,,,,,,,,,,,,,,,,,,,,,,,,,,,,,,,,,,,,,,,,,,,47.28212266600167,47.28230379100205,086575,001,2024-07-01_23h27.44.647,5-28,2024.1.4,None,2024-07-01 23h27.50.282866 +0900,
Images/Speaker1.jpg,Images/Speaker2.jpg,Images/Speaker3.jpg,Images/Speaker4.jpg,Audio/Speaker3_Per/P3-7-Per.wav,Speaker3,گوینده۳,0,8,8,46,,,,,72.38753945800272,,,,,,,,,,,,,,,,,,,,,,,,,,,,,,,,,,,,,,,,,,,,,47.298415041001135,47.29859279100128,086575,001,2024-07-01_23h27.44.647,5-28,2024.1.4,None,2024-07-01 23h27.50.282866 +0900,
Images/Speaker1.jpg,Images/Speaker2.jpg,Images/Speaker3.jpg,Images/Speaker4.jpg,Audio/Speaker4_Per/P4-15-Per.wav,Speaker4,گوینده۴,0,9,9,74,,,,,72.38753945800272,,,,,,,,,,,,,,,,,,,,,,,,,,,,,,,,,,,,,,,,,,,,,47.314670875002776,47.314839833001315,086575,001,2024-07-01_23h27.44.647,5-28,2024.1.4,None,2024-07-01 23h27.50.282866 +0900,
Images/Speaker1.jpg,Images/Speaker2.jpg,Images/Speaker3.jpg,Images/Speaker4.jpg,Audio/Speaker3_Per/P3-9-Per.wav,Speaker3,گوینده۳,0,10,10,48,,,,,72.38753945800272,,,,,,,,,,,,,,,,,,,,,,,,,,,,,,,,,,,,,,,,,,,,,47.33118366599956,47.33135879100155,086575,001,2024-07-01_23h27.44.647,5-28,2024.1.4,None,2024-07-01 23h27.50.282866 +0900,
Images/Speaker1.jpg,Images/Speaker2.jpg,Images/Speaker3.jpg,Images/Speaker4.jpg,Audio/Speaker4_Per/P4-7-Per.wav,Speaker4,گوینده۴,0,11,11,66,,,,,72.38753945800272,,,,,,,,,,,,,,,,,,,,,,,,,,,,,,,,,,,,,,,,,,,,,47.34723329100234,47.347456375002366,086575,001,2024-07-01_23h27.44.647,5-28,2024.1.4,None,2024-07-01 23h27.50.282866 +0900,
Images/Speaker1.jpg,Images/Speaker2.jpg,Images/Speaker3.jpg,Images/Speaker4.jpg,Audio/Speaker1_Per/P1-9-Per.wav,Speaker1,گوینده ۱,0,12,12,8,,,,,72.38753945800272,,,,,,,,,,,,,,,,,,,,,,,,,,,,,,,,,,,,,,,,,,,,,47.36325808300171,47.36348670799998,086575,001,2024-07-01_23h27.44.647,5-28,2024.1.4,None,2024-07-01 23h27.50.282866 +0900,
Images/Speaker1.jpg,Images/Speaker2.jpg,Images/Speaker3.jpg,Images/Speaker4.jpg,Audio/Speaker4_Per/P4-11-Per.wav,Speaker4,گوینده۴,0,13,13,70,,,,,72.38753945800272,,,,,,,,,,,,,,,,,,,,,,,,,,,,,,,,,,,,,,,,,,,,,47.37928104100138,47.379457166000066,086575,001,2024-07-01_23h27.44.647,5-28,2024.1.4,None,2024-07-01 23h27.50.282866 +0900,
Images/Speaker1.jpg,Images/Speaker2.jpg,Images/Speaker3.jpg,Images/Speaker4.jpg,Audio/Speaker2_Per/P2-16-Per.wav,Speaker2,گوینده۲,0,14,14,35,,,,,72.38753945800272,,,,,,,,,,,,,,,,,,,,,,,,,,,,,,,,,,,,,,,,,,,,,47.395927166002366,47.3960897500001,086575,001,2024-07-01_23h27.44.647,5-28,2024.1.4,None,2024-07-01 23h27.50.282866 +0900,
Images/Speaker1.jpg,Images/Speaker2.jpg,Images/Speaker3.jpg,Images/Speaker4.jpg,Audio/Speaker4_Per/P4-17-Per.wav,Speaker4,گوینده۴,0,15,15,76,,,,,72.38753945800272,,,,,,,,,,,,,,,,,,,,,,,,,,,,,,,,,,,,,,,,,,,,,47.41196416599996,47.41213429100026,086575,001,2024-07-01_23h27.44.647,5-28,2024.1.4,None,2024-07-01 23h27.50.282866 +0900,
Images/Speaker1.jpg,Images/Speaker2.jpg,Images/Speaker3.jpg,Images/Speaker4.jpg,Audio/Speaker1_Per/P1-2-Per.wav,Speaker1,گوینده ۱,0,16,16,1,,,,,72.38753945800272,,,,,,,,,,,,,,,,,,,,,,,,,,,,,,,,,,,,,,,,,,,,,47.42789787500078,47.42806325000129,086575,001,2024-07-01_23h27.44.647,5-28,2024.1.4,None,2024-07-01 23h27.50.282866 +0900,
Images/Speaker1.jpg,Images/Speaker2.jpg,Images/Speaker3.jpg,Images/Speaker4.jpg,Audio/Speaker4_Per/P4-5-Per.wav,Speaker4,گوینده۴,0,17,17,64,,,,,72.38753945800272,,,,,,,,,,,,,,,,,,,,,,,,,,,,,,,,,,,,,,,,,,,,,47.44389895800123,47.44406608300051,086575,001,2024-07-01_23h27.44.647,5-28,2024.1.4,None,2024-07-01 23h27.50.282866 +0900,
Images/Speaker1.jpg,Images/Speaker2.jpg,Images/Speaker3.jpg,Images/Speaker4.jpg,Audio/Speaker1_Per/P1-5-Per.wav,Speaker1,گوینده ۱,0,18,18,4,,,,,72.38753945800272,,,,,,,,,,,,,,,,,,,,,,,,,,,,,,,,,,,,,,,,,,,,,47.46038916600082,47.46055204100048,086575,001,2024-07-01_23h27.44.647,5-28,2024.1.4,None,2024-07-01 23h27.50.282866 +0900,
Images/Speaker1.jpg,Images/Speaker2.jpg,Images/Speaker3.jpg,Images/Speaker4.jpg,Audio/Speaker3_Per/P3-14-Per.wav,Speaker3,گوینده۳,0,19,19,53,,,,,72.38753945800272,,,,,,,,,,,,,,,,,,,,,,,,,,,,,,,,,,,,,,,,,,,,,47.47630408300029,47.47651187500014,086575,001,2024-07-01_23h27.44.647,5-28,2024.1.4,None,2024-07-01 23h27.50.282866 +0900,
Images/Speaker1.jpg,Images/Speaker2.jpg,Images/Speaker3.jpg,Images/Speaker4.jpg,Audio/Speaker3_Per/P3-11-Per.wav,Speaker3,گوینده۳,0,20,20,50,,,,,72.38753945800272,,,,,,,,,,,,,,,,,,,,,,,,,,,,,,,,,,,,,,,,,,,,,47.49230187500143,47.492531666001014,086575,001,2024-07-01_23h27.44.647,5-28,2024.1.4,None,2024-07-01 23h27.50.282866 +0900,
Images/Speaker1.jpg,Images/Speaker2.jpg,Images/Speaker3.jpg,Images/Speaker4.jpg,Audio/Speaker2_Per/P2-9-Per.wav,Speaker2,گوینده۲,0,21,21,28,,,,,72.38753945800272,,,,,,,,,,,,,,,,,,,,,,,,,,,,,,,,,,,,,,,,,,,,,47.508465582999634,47.50864170800196,086575,001,2024-07-01_23h27.44.647,5-28,2024.1.4,None,2024-07-01 23h27.50.282866 +0900,
Images/Speaker1.jpg,Images/Speaker2.jpg,Images/Speaker3.jpg,Images/Speaker4.jpg,Audio/Speaker2_Per/P2-6-Per.wav,Speaker2,گوینده۲,0,22,22,25,,,,,72.38753945800272,,,,,,,,,,,,,,,,,,,,,,,,,,,,,,,,,,,,,,,,,,,,,47.5250444580015,47.52525237500231,086575,001,2024-07-01_23h27.44.647,5-28,2024.1.4,None,2024-07-01 23h27.50.282866 +0900,
Images/Speaker1.jpg,Images/Speaker2.jpg,Images/Speaker3.jpg,Images/Speaker4.jpg,Audio/Speaker4_Per/P4-13-Per.wav,Speaker4,گوینده۴,0,23,23,72,,,,,72.38753945800272,,,,,,,,,,,,,,,,,,,,,,,,,,,,,,,,,,,,,,,,,,,,,47.54106912499992,47.541288458000054,086575,001,2024-07-01_23h27.44.647,5-28,2024.1.4,None,2024-07-01 23h27.50.282866 +0900,
Images/Speaker1.jpg,Images/Speaker2.jpg,Images/Speaker3.jpg,Images/Speaker4.jpg,Audio/Speaker2_Per/P2-5-Per.wav,Speaker2,گوینده۲,0,24,24,24,,,,,72.38753945800272,,,,,,,,,,,,,,,,,,,,,,,,,,,,,,,,,,,,,,,,,,,,,47.55708337500255,47.557282791000034,086575,001,2024-07-01_23h27.44.647,5-28,2024.1.4,None,2024-07-01 23h27.50.282866 +0900,
Images/Speaker1.jpg,Images/Speaker2.jpg,Images/Speaker3.jpg,Images/Speaker4.jpg,Audio/Speaker1_Per/P1-4-Per.wav,Speaker1,گوینده ۱,0,25,25,13,,,,,72.38753945800272,,,,,,,,,,,,,,,,,,,,,,,,,,,,,,,,,,,,,,,,,,,,,47.573154166002496,47.573325041001226,086575,001,2024-07-01_23h27.44.647,5-28,2024.1.4,None,2024-07-01 23h27.50.282866 +0900,
Images/Speaker1.jpg,Images/Speaker2.jpg,Images/Speaker3.jpg,Images/Speaker4.jpg,Audio/Speaker3_Per/P3-2-Per.wav,Speaker3,گوینده۳,0,26,26,41,,,,,72.38753945800272,,,,,,,,,,,,,,,,,,,,,,,,,,,,,,,,,,,,,,,,,,,,,47.589679500000784,47.58985279100307,086575,001,2024-07-01_23h27.44.647,5-28,2024.1.4,None,2024-07-01 23h27.50.282866 +0900,
Images/Speaker1.jpg,Images/Speaker2.jpg,Images/Speaker3.jpg,Images/Speaker4.jpg,Audio/Speaker4_Per/P4-18-Per.wav,Speaker4,گوینده۴,0,27,27,77,,,,,72.38753945800272,,,,,,,,,,,,,,,,,,,,,,,,,,,,,,,,,,,,,,,,,,,,,47.605713625001954,47.605893333002314,086575,001,2024-07-01_23h27.44.647,5-28,2024.1.4,None,2024-07-01 23h27.50.282866 +0900,
Images/Speaker1.jpg,Images/Speaker2.jpg,Images/Speaker3.jpg,Images/Speaker4.jpg,Audio/Speaker2_Per/P2-13-Per.wav,Speaker2,گوینده۲,0,28,28,32,,,,,72.38753945800272,,,,,,,,,,,,,,,,,,,,,,,,,,,,,,,,,,,,,,,,,,,,,47.6218228329999,47.622041041002376,086575,001,2024-07-01_23h27.44.647,5-28,2024.1.4,None,2024-07-01 23h27.50.282866 +0900,
Images/Speaker1.jpg,Images/Speaker2.jpg,Images/Speaker3.jpg,Images/Speaker4.jpg,Audio/Speaker3_Per/P3-5-Per.wav,Speaker3,گوینده۳,0,29,29,44,,,,,72.38753945800272,,,,,,,,,,,,,,,,,,,,,,,,,,,,,,,,,,,,,,,,,,,,,47.63810316600211,47.6382730410005,086575,001,2024-07-01_23h27.44.647,5-28,2024.1.4,None,2024-07-01 23h27.50.282866 +0900,
Images/Speaker1.jpg,Images/Speaker2.jpg,Images/Speaker3.jpg,Images/Speaker4.jpg,Audio/Speaker3_Per/P3-10-Per.wav,Speaker3,گوینده۳,0,30,30,49,,,,,72.38753945800272,,,,,,,,,,,,,,,,,,,,,,,,,,,,,,,,,,,,,,,,,,,,,47.65459762500177,47.65478062500188,086575,001,2024-07-01_23h27.44.647,5-28,2024.1.4,None,2024-07-01 23h27.50.282866 +0900,
Images/Speaker1.jpg,Images/Speaker2.jpg,Images/Speaker3.jpg,Images/Speaker4.jpg,Audio/Speaker1_Per/P1-7-Per.wav,Speaker1,گوینده ۱,0,31,31,6,,,,,72.38753945800272,,,,,,,,,,,,,,,,,,,,,,,,,,,,,,,,,,,,,,,,,,,,,47.67086658300104,47.67104616600045,086575,001,2024-07-01_23h27.44.647,5-28,2024.1.4,None,2024-07-01 23h27.50.282866 +0900,
Images/Speaker1.jpg,Images/Speaker2.jpg,Images/Speaker3.jpg,Images/Speaker4.jpg,Audio/Speaker2_Per/P2-20-Per.wav,Speaker2,گوینده۲,0,32,32,39,,,,,72.38753945800272,,,,,,,,,,,,,,,,,,,,,,,,,,,,,,,,,,,,,,,,,,,,,47.68694158300059,47.687147583001206,086575,001,2024-07-01_23h27.44.647,5-28,2024.1.4,None,2024-07-01 23h27.50.282866 +0900,
Images/Speaker1.jpg,Images/Speaker2.jpg,Images/Speaker3.jpg,Images/Speaker4.jpg,Audio/Speaker1_Per/P1-4-Per.wav,Speaker1,گوینده ۱,0,33,33,3,,,,,72.38753945800272,,,,,,,,,,,,,,,,,,,,,,,,,,,,,,,,,,,,,,,,,,,,,47.70289179100291,47.70308683300027,086575,001,2024-07-01_23h27.44.647,5-28,2024.1.4,None,2024-07-01 23h27.50.282866 +0900,
Images/Speaker1.jpg,Images/Speaker2.jpg,Images/Speaker3.jpg,Images/Speaker4.jpg,Audio/Speaker2_Per/P2-2-Per.wav,Speaker2,گوینده۲,0,34,34,21,,,,,72.38753945800272,,,,,,,,,,,,,,,,,,,,,,,,,,,,,,,,,,,,,,,,,,,,,47.71941062500264,47.719581708002806,086575,001,2024-07-01_23h27.44.647,5-28,2024.1.4,None,2024-07-01 23h27.50.282866 +0900,
Images/Speaker1.jpg,Images/Speaker2.jpg,Images/Speaker3.jpg,Images/Speaker4.jpg,Audio/Speaker3_Per/P3-19-Per.wav,Speaker3,گوینده۳,0,35,35,58,,,,,72.38753945800272,,,,,,,,,,,,,,,,,,,,,,,,,,,,,,,,,,,,,,,,,,,,,47.735368458001176,47.73553837500003,086575,001,2024-07-01_23h27.44.647,5-28,2024.1.4,None,2024-07-01 23h27.50.282866 +0900,
Images/Speaker1.jpg,Images/Speaker2.jpg,Images/Speaker3.jpg,Images/Speaker4.jpg,Audio/Speaker1_Per/P1-6-Per.wav,Speaker1,گوینده ۱,0,36,36,5,,,,,72.38753945800272,,,,,,,,,,,,,,,,,,,,,,,,,,,,,,,,,,,,,,,,,,,,,47.75132958299946,47.75150491600289,086575,001,2024-07-01_23h27.44.647,5-28,2024.1.4,None,2024-07-01 23h27.50.282866 +0900,
Images/Speaker1.jpg,Images/Speaker2.jpg,Images/Speaker3.jpg,Images/Speaker4.jpg,Audio/Speaker1_Per/P1-3-Per.wav,Speaker1,گوینده ۱,0,37,37,2,,,,,72.38753945800272,,,,,,,,,,,,,,,,,,,,,,,,,,,,,,,,,,,,,,,,,,,,,47.767412790999515,47.76759691600091,086575,001,2024-07-01_23h27.44.647,5-28,2024.1.4,None,2024-07-01 23h27.50.282866 +0900,
Images/Speaker1.jpg,Images/Speaker2.jpg,Images/Speaker3.jpg,Images/Speaker4.jpg,Audio/Speaker2_Per/P2-14-Per.wav,Speaker2,گوینده۲,0,38,38,33,,,,,72.38753945800272,,,,,,,,,,,,,,,,,,,,,,,,,,,,,,,,,,,,,,,,,,,,,47.78390945800129,47.78408933300307,086575,001,2024-07-01_23h27.44.647,5-28,2024.1.4,None,2024-07-01 23h27.50.282866 +0900,
Images/Speaker1.jpg,Images/Speaker2.jpg,Images/Speaker3.jpg,Images/Speaker4.jpg,Audio/Speaker1_Per/P1-8-Per.wav,Speaker1,گوینده ۱,0,39,39,7,,,,,72.38753945800272,,,,,,,,,,,,,,,,,,,,,,,,,,,,,,,,,,,,,,,,,,,,,47.79991483300182,47.80014041600225,086575,001,2024-07-01_23h27.44.647,5-28,2024.1.4,None,2024-07-01 23h27.50.282866 +0900,
Images/Speaker1.jpg,Images/Speaker2.jpg,Images/Speaker3.jpg,Images/Speaker4.jpg,Audio/Speaker3_Per/P3-1-Per.wav,Speaker3,گوینده۳,0,40,40,40,,,,,72.38753945800272,,,,,,,,,,,,,,,,,,,,,,,,,,,,,,,,,,,,,,,,,,,,,47.81585808300224,47.816038125001796,086575,001,2024-07-01_23h27.44.647,5-28,2024.1.4,None,2024-07-01 23h27.50.282866 +0900,
Images/Speaker1.jpg,Images/Speaker2.jpg,Images/Speaker3.jpg,Images/Speaker4.jpg,Audio/Speaker2_Per/P2-10-Per.wav,Speaker2,گوینده۲,0,41,41,29,,,,,72.38753945800272,,,,,,,,,,,,,,,,,,,,,,,,,,,,,,,,,,,,,,,,,,,,,47.83189066600244,47.832057166000595,086575,001,2024-07-01_23h27.44.647,5-28,2024.1.4,None,2024-07-01 23h27.50.282866 +0900,
Images/Speaker1.jpg,Images/Speaker2.jpg,Images/Speaker3.jpg,Images/Speaker4.jpg,Audio/Speaker2_Per/P2-15-Per.wav,Speaker2,گوینده۲,0,42,42,34,,,,,72.38753945800272,,,,,,,,,,,,,,,,,,,,,,,,,,,,,,,,,,,,,,,,,,,,,47.848360916003,47.848544791002496,086575,001,2024-07-01_23h27.44.647,5-28,2024.1.4,None,2024-07-01 23h27.50.282866 +0900,
Images/Speaker1.jpg,Images/Speaker2.jpg,Images/Speaker3.jpg,Images/Speaker4.jpg,Audio/Speaker3_Per/P3-17-Per.wav,Speaker3,گوینده۳,0,43,43,56,,,,,72.38753945800272,,,,,,,,,,,,,,,,,,,,,,,,,,,,,,,,,,,,,,,,,,,,,47.864264457999525,47.86443425000107,086575,001,2024-07-01_23h27.44.647,5-28,2024.1.4,None,2024-07-01 23h27.50.282866 +0900,
Images/Speaker1.jpg,Images/Speaker2.jpg,Images/Speaker3.jpg,Images/Speaker4.jpg,Audio/Speaker4_Per/P4-20-Per.wav,Speaker4,گوینده۴,0,44,44,79,,,,,72.38753945800272,,,,,,,,,,,,,,,,,,,,,,,,,,,,,,,,,,,,,,,,,,,,,47.880173416000616,47.88037191600233,086575,001,2024-07-01_23h27.44.647,5-28,2024.1.4,None,2024-07-01 23h27.50.282866 +0900,
Images/Speaker1.jpg,Images/Speaker2.jpg,Images/Speaker3.jpg,Images/Speaker4.jpg,Audio/Speaker3_Per/P3-6-Per.wav,Speaker3,گوینده۳,0,45,45,45,,,,,72.38753945800272,,,,,,,,,,,,,,,,,,,,,,,,,,,,,,,,,,,,,,,,,,,,,47.89622683299967,47.89642470800027,086575,001,2024-07-01_23h27.44.647,5-28,2024.1.4,None,2024-07-01 23h27.50.282866 +0900,
Images/Speaker1.jpg,Images/Speaker2.jpg,Images/Speaker3.jpg,Images/Speaker4.jpg,Audio/Speaker2_Per/P2-7-Per.wav,Speaker2,گوینده۲,0,46,46,26,,,,,72.38753945800272,,,,,,,,,,,,,,,,,,,,,,,,,,,,,,,,,,,,,,,,,,,,,47.913027165999665,47.91321004100246,086575,001,2024-07-01_23h27.44.647,5-28,2024.1.4,None,2024-07-01 23h27.50.282866 +0900,
Images/Speaker1.jpg,Images/Speaker2.jpg,Images/Speaker3.jpg,Images/Speaker4.jpg,Audio/Speaker3_Per/P3-18-Per.wav,Speaker3,گوینده۳,0,47,47,57,,,,,72.38753945800272,,,,,,,,,,,,,,,,,,,,,,,,,,,,,,,,,,,,,,,,,,,,,47.92910825000217,47.92931541600046,086575,001,2024-07-01_23h27.44.647,5-28,2024.1.4,None,2024-07-01 23h27.50.282866 +0900,
Images/Speaker1.jpg,Images/Speaker2.jpg,Images/Speaker3.jpg,Images/Speaker4.jpg,Audio/Speaker1_Per/P1-15-Per.wav,Speaker1,گوینده ۱,0,48,48,14,,,,,72.38753945800272,,,,,,,,,,,,,,,,,,,,,,,,,,,,,,,,,,,,,,,,,,,,,47.94516304100034,47.94531941600144,086575,001,2024-07-01_23h27.44.647,5-28,2024.1.4,None,2024-07-01 23h27.50.282866 +0900,
Images/Speaker1.jpg,Images/Speaker2.jpg,Images/Speaker3.jpg,Images/Speaker4.jpg,Audio/Speaker3_Per/P3-16-Per.wav,Speaker3,گوینده۳,0,49,49,55,,,,,72.38753945800272,,,,,,,,,,,,,,,,,,,,,,,,,,,,,,,,,,,,,,,,,,,,,47.9610422500009,47.96122633300183,086575,001,2024-07-01_23h27.44.647,5-28,2024.1.4,None,2024-07-01 23h27.50.282866 +0900,
Images/Speaker1.jpg,Images/Speaker2.jpg,Images/Speaker3.jpg,Images/Speaker4.jpg,Audio/Speaker2_Per/P2-8-Per.wav,Speaker2,گوینده۲,0,50,50,27,,,,,72.38753945800272,,,,,,,,,,,,,,,,,,,,,,,,,,,,,,,,,,,,,,,,,,,,,47.97788745800062,47.978052916001616,086575,001,2024-07-01_23h27.44.647,5-28,2024.1.4,None,2024-07-01 23h27.50.282866 +0900,
Images/Speaker1.jpg,Images/Speaker2.jpg,Images/Speaker3.jpg,Images/Speaker4.jpg,Audio/Speaker1_Per/P1-1-Per.wav,Speaker1,گوینده ۱,0,51,51,0,,,,,72.38753945800272,,,,,,,,,,,,,,,,,,,,,,,,,,,,,,,,,,,,,,,,,,,,,47.99408362500253,47.9942868750004,086575,001,2024-07-01_23h27.44.647,5-28,2024.1.4,None,2024-07-01 23h27.50.282866 +0900,
Images/Speaker1.jpg,Images/Speaker2.jpg,Images/Speaker3.jpg,Images/Speaker4.jpg,Audio/Speaker4_Per/P4-16-Per.wav,Speaker4,گوینده۴,0,52,52,75,,,,,72.38753945800272,,,,,,,,,,,,,,,,,,,,,,,,,,,,,,,,,,,,,,,,,,,,,48.01005816600082,48.01028475000203,086575,001,2024-07-01_23h27.44.647,5-28,2024.1.4,None,2024-07-01 23h27.50.282866 +0900,
Images/Speaker1.jpg,Images/Speaker2.jpg,Images/Speaker3.jpg,Images/Speaker4.jpg,Audio/Speaker1_Per/P1-13-Per.wav,Speaker1,گوینده ۱,0,53,53,12,,,,,72.38753945800272,,,,,,,,,,,,,,,,,,,,,,,,,,,,,,,,,,,,,,,,,,,,,48.02602566600035,48.026251875002345,086575,001,2024-07-01_23h27.44.647,5-28,2024.1.4,None,2024-07-01 23h27.50.282866 +0900,
Images/Speaker1.jpg,Images/Speaker2.jpg,Images/Speaker3.jpg,Images/Speaker4.jpg,Audio/Speaker2_Per/P2-19-Per.wav,Speaker2,گوینده۲,0,54,54,38,,,,,72.38753945800272,,,,,,,,,,,,,,,,,,,,,,,,,,,,,,,,,,,,,,,,,,,,,48.042625833000784,48.04280325000218,086575,001,2024-07-01_23h27.44.647,5-28,2024.1.4,None,2024-07-01 23h27.50.282866 +0900,
Images/Speaker1.jpg,Images/Speaker2.jpg,Images/Speaker3.jpg,Images/Speaker4.jpg,Audio/Speaker4_Per/P4-2-Per.wav,Speaker4,گوینده۴,0,55,55,61,,,,,72.38753945800272,,,,,,,,,,,,,,,,,,,,,,,,,,,,,,,,,,,,,,,,,,,,,48.05865454100058,48.05882329100132,086575,001,2024-07-01_23h27.44.647,5-28,2024.1.4,None,2024-07-01 23h27.50.282866 +0900,
Images/Speaker1.jpg,Images/Speaker2.jpg,Images/Speaker3.jpg,Images/Speaker4.jpg,Audio/Speaker4_Per/P4-4-Per.wav,Speaker4,گوینده۴,0,56,56,63,,,,,72.38753945800272,,,,,,,,,,,,,,,,,,,,,,,,,,,,,,,,,,,,,,,,,,,,,48.07454579100158,48.0747207500026,086575,001,2024-07-01_23h27.44.647,5-28,2024.1.4,None,2024-07-01 23h27.50.282866 +0900,
Images/Speaker1.jpg,Images/Speaker2.jpg,Images/Speaker3.jpg,Images/Speaker4.jpg,Audio/Speaker4_Per/P4-12-Per.wav,Speaker4,گوینده۴,0,57,57,71,,,,,72.38753945800272,,,,,,,,,,,,,,,,,,,,,,,,,,,,,,,,,,,,,,,,,,,,,48.090460916002485,48.09063412500109,086575,001,2024-07-01_23h27.44.647,5-28,2024.1.4,None,2024-07-01 23h27.50.282866 +0900,
Images/Speaker1.jpg,Images/Speaker2.jpg,Images/Speaker3.jpg,Images/Speaker4.jpg,Audio/Speaker1_Per/P1-10-Per.wav,Speaker1,گوینده ۱,0,58,58,9,,,,,72.38753945800272,,,,,,,,,,,,,,,,,,,,,,,,,,,,,,,,,,,,,,,,,,,,,48.106980208001914,48.1071625830009,086575,001,2024-07-01_23h27.44.647,5-28,2024.1.4,None,2024-07-01 23h27.50.282866 +0900,
Images/Speaker1.jpg,Images/Speaker2.jpg,Images/Speaker3.jpg,Images/Speaker4.jpg,Audio/Speaker1_Per/P1-19-Per.wav,Speaker1,گوینده ۱,0,59,59,18,,,,,72.38753945800272,,,,,,,,,,,,,,,,,,,,,,,,,,,,,,,,,,,,,,,,,,,,,48.123013000000356,48.123185333002766,086575,001,2024-07-01_23h27.44.647,5-28,2024.1.4,None,2024-07-01 23h27.50.282866 +0900,
Images/Speaker1.jpg,Images/Speaker2.jpg,Images/Speaker3.jpg,Images/Speaker4.jpg,Audio/Speaker2_Per/P2-11-Per.wav,Speaker2,گوینده۲,0,60,60,30,,,,,72.38753945800272,,,,,,,,,,,,,,,,,,,,,,,,,,,,,,,,,,,,,,,,,,,,,48.13880754099955,48.139022833001945,086575,001,2024-07-01_23h27.44.647,5-28,2024.1.4,None,2024-07-01 23h27.50.282866 +0900,
Images/Speaker1.jpg,Images/Speaker2.jpg,Images/Speaker3.jpg,Images/Speaker4.jpg,Audio/Speaker4_Per/P4-6-Per.wav,Speaker4,گوینده۴,0,61,61,65,,,,,72.38753945800272,,,,,,,,,,,,,,,,,,,,,,,,,,,,,,,,,,,,,,,,,,,,,48.15471179100132,48.15485358300066,086575,001,2024-07-01_23h27.44.647,5-28,2024.1.4,None,2024-07-01 23h27.50.282866 +0900,
Images/Speaker1.jpg,Images/Speaker2.jpg,Images/Speaker3.jpg,Images/Speaker4.jpg,Audio/Speaker4_Per/P4-14-Per.wav,Speaker4,گوینده۴,0,62,62,73,,,,,72.38753945800272,,,,,,,,,,,,,,,,,,,,,,,,,,,,,,,,,,,,,,,,,,,,,48.17122612499952,48.17140208300043,086575,001,2024-07-01_23h27.44.647,5-28,2024.1.4,None,2024-07-01 23h27.50.282866 +0900,
Images/Speaker1.jpg,Images/Speaker2.jpg,Images/Speaker3.jpg,Images/Speaker4.jpg,Audio/Speaker4_Per/P4-3-Per.wav,Speaker4,گوینده۴,0,63,63,62,,,,,72.38753945800272,,,,,,,,,,,,,,,,,,,,,,,,,,,,,,,,,,,,,,,,,,,,,48.187300000001414,48.18747966600131,086575,001,2024-07-01_23h27.44.647,5-28,2024.1.4,None,2024-07-01 23h27.50.282866 +0900,
Images/Speaker1.jpg,Images/Speaker2.jpg,Images/Speaker3.jpg,Images/Speaker4.jpg,Audio/Speaker3_Per/P3-13-Per.wav,Speaker3,گوینده۳,0,64,64,52,,,,,72.38753945800272,,,,,,,,,,,,,,,,,,,,,,,,,,,,,,,,,,,,,,,,,,,,,48.203326750001,48.20349270800216,086575,001,2024-07-01_23h27.44.647,5-28,2024.1.4,None,2024-07-01 23h27.50.282866 +0900,
Images/Speaker1.jpg,Images/Speaker2.jpg,Images/Speaker3.jpg,Images/Speaker4.jpg,Audio/Speaker1_Per/P1-17-Per.wav,Speaker1,گوینده ۱,0,65,65,16,,,,,72.38753945800272,,,,,,,,,,,,,,,,,,,,,,,,,,,,,,,,,,,,,,,,,,,,,48.21930600000269,48.21948983300172,086575,001,2024-07-01_23h27.44.647,5-28,2024.1.4,None,2024-07-01 23h27.50.282866 +0900,
Images/Speaker1.jpg,Images/Speaker2.jpg,Images/Speaker3.jpg,Images/Speaker4.jpg,Audio/Speaker4_Per/P4-10-Per.wav,Speaker4,گوینده۴,0,66,66,69,,,,,72.38753945800272,,,,,,,,,,,,,,,,,,,,,,,,,,,,,,,,,,,,,,,,,,,,,48.235848291002185,48.23607512500166,086575,001,2024-07-01_23h27.44.647,5-28,2024.1.4,None,2024-07-01 23h27.50.282866 +0900,
Images/Speaker1.jpg,Images/Speaker2.jpg,Images/Speaker3.jpg,Images/Speaker4.jpg,Audio/Speaker4_Per/P4-9-Per.wav,Speaker4,گوینده۴,0,67,67,68,,,,,72.38753945800272,,,,,,,,,,,,,,,,,,,,,,,,,,,,,,,,,,,,,,,,,,,,,48.25187029100198,48.2520368330006,086575,001,2024-07-01_23h27.44.647,5-28,2024.1.4,None,2024-07-01 23h27.50.282866 +0900,
Images/Speaker1.jpg,Images/Speaker2.jpg,Images/Speaker3.jpg,Images/Speaker4.jpg,Audio/Speaker3_Per/P3-3-Per.wav,Speaker3,گوینده۳,0,68,68,42,,,,,72.38753945800272,,,,,,,,,,,,,,,,,,,,,,,,,,,,,,,,,,,,,,,,,,,,,48.26786916600031,48.2680414580027,086575,001,2024-07-01_23h27.44.647,5-28,2024.1.4,None,2024-07-01 23h27.50.282866 +0900,
Images/Speaker1.jpg,Images/Speaker2.jpg,Images/Speaker3.jpg,Images/Speaker4.jpg,Audio/Speaker2_Per/P2-1-Per.wav,Speaker2,گوینده۲,0,69,69,20,,,,,72.38753945800272,,,,,,,,,,,,,,,,,,,,,,,,,,,,,,,,,,,,,,,,,,,,,48.28384929100139,48.28407750000042,086575,001,2024-07-01_23h27.44.647,5-28,2024.1.4,None,2024-07-01 23h27.50.282866 +0900,
Images/Speaker1.jpg,Images/Speaker2.jpg,Images/Speaker3.jpg,Images/Speaker4.jpg,Audio/Speaker1_Per/P1-11-Per.wav,Speaker1,گوینده ۱,0,70,70,10,,,,,72.38753945800272,,,,,,,,,,,,,,,,,,,,,,,,,,,,,,,,,,,,,,,,,,,,,48.300378416002786,48.30055120800171,086575,001,2024-07-01_23h27.44.647,5-28,2024.1.4,None,2024-07-01 23h27.50.282866 +0900,
Images/Speaker1.jpg,Images/Speaker2.jpg,Images/Speaker3.jpg,Images/Speaker4.jpg,Audio/Speaker3_Per/P3-4-Per.wav,Speaker3,گوینده۳,0,71,71,43,,,,,72.38753945800272,,,,,,,,,,,,,,,,,,,,,,,,,,,,,,,,,,,,,,,,,,,,,48.316381874999934,48.31654100000014,086575,001,2024-07-01_23h27.44.647,5-28,2024.1.4,None,2024-07-01 23h27.50.282866 +0900,
Images/Speaker1.jpg,Images/Speaker2.jpg,Images/Speaker3.jpg,Images/Speaker4.jpg,Audio/Speaker4_Per/P4-1-Per.wav,Speaker4,گوینده۴,0,72,72,60,,,,,72.38753945800272,,,,,,,,,,,,,,,,,,,,,,,,,,,,,,,,,,,,,,,,,,,,,48.33224733300085,48.33241166600055,086575,001,2024-07-01_23h27.44.647,5-28,2024.1.4,None,2024-07-01 23h27.50.282866 +0900,
Images/Speaker1.jpg,Images/Speaker2.jpg,Images/Speaker3.jpg,Images/Speaker4.jpg,Audio/Speaker2_Per/P2-4-Per.wav,Speaker2,گوینده۲,0,73,73,23,,,,,72.38753945800272,,,,,,,,,,,,,,,,,,,,,,,,,,,,,,,,,,,,,,,,,,,,,48.34824345800007,48.34840225000153,086575,001,2024-07-01_23h27.44.647,5-28,2024.1.4,None,2024-07-01 23h27.50.282866 +0900,
Images/Speaker1.jpg,Images/Speaker2.jpg,Images/Speaker3.jpg,Images/Speaker4.jpg,Audio/Speaker4_Per/P4-8-Per.wav,Speaker4,گوینده۴,0,74,74,67,,,,,72.38753945800272,,,,,,,,,,,,,,,,,,,,,,,,,,,,,,,,,,,,,,,,,,,,,48.36473329100045,48.36490979100199,086575,001,2024-07-01_23h27.44.647,5-28,2024.1.4,None,2024-07-01 23h27.50.282866 +0900,
Images/Speaker1.jpg,Images/Speaker2.jpg,Images/Speaker3.jpg,Images/Speaker4.jpg,Audio/Speaker1_Per/P1-16-Per.wav,Speaker1,گوینده ۱,0,75,75,15,,,,,72.38753945800272,,,,,,,,,,,,,,,,,,,,,,,,,,,,,,,,,,,,,,,,,,,,,48.38064429100268,48.38084300000264,086575,001,2024-07-01_23h27.44.647,5-28,2024.1.4,None,2024-07-01 23h27.50.282866 +0900,
Images/Speaker1.jpg,Images/Speaker2.jpg,Images/Speaker3.jpg,Images/Speaker4.jpg,Audio/Speaker1_Per/P1-18-Per.wav,Speaker1,گوینده ۱,0,76,76,17,,,,,72.38753945800272,,,,,,,,,,,,,,,,,,,,,,,,,,,,,,,,,,,,,,,,,,,,,48.396611791002215,48.39682020799955,086575,001,2024-07-01_23h27.44.647,5-28,2024.1.4,None,2024-07-01 23h27.50.282866 +0900,
Images/Speaker1.jpg,Images/Speaker2.jpg,Images/Speaker3.jpg,Images/Speaker4.jpg,Audio/Speaker2_Per/P2-3-Per.wav,Speaker2,گوینده۲,0,77,77,22,,,,,72.38753945800272,,,,,,,,,,,,,,,,,,,,,,,,,,,,,,,,,,,,,,,,,,,,,48.41292633299963,48.413093208000646,086575,001,2024-07-01_23h27.44.647,5-28,2024.1.4,None,2024-07-01 23h27.50.282866 +0900,
Images/Speaker1.jpg,Images/Speaker2.jpg,Images/Speaker3.jpg,Images/Speaker4.jpg,Audio/Speaker3_Per/P3-20-Per.wav,Speaker3,گوینده۳,0,78,78,59,,,,,72.38753945800272,,,,,,,,,,,,,,,,,,,,,,,,,,,,,,,,,,,,,,,,,,,,,48.42943370800276,48.42963200000304,086575,001,2024-07-01_23h27.44.647,5-28,2024.1.4,None,2024-07-01 23h27.50.282866 +0900,
Images/Speaker1.jpg,Images/Speaker2.jpg,Images/Speaker3.jpg,Images/Speaker4.jpg,Audio/Speaker2_Per/P2-17-Per.wav,Speaker2,گوینده۲,0,79,79,36,,,,,72.38753945800272,,,,,,,,,,,,,,,,,,,,,,,,,,,,,,,,,,,,,,,,,,,,,48.44538266600284,48.44557754100242,086575,001,2024-07-01_23h27.44.647,5-28,2024.1.4,None,2024-07-01 23h27.50.282866 +0900,
Images/Speaker1.jpg,Images/Speaker2.jpg,Images/Speaker3.jpg,Images/Speaker4.jpg,Audio/Speaker4_Per/P4-12-Per.wav,Speaker4,گوینده۴,1,0,80,71,,,,,72.38753945800272,,,,,,,,,,,,,,,,,,,,,,,,,,,,,,,,,,,,,,,,,,,,,48.46136345800187,48.4615799580024,086575,001,2024-07-01_23h27.44.647,5-28,2024.1.4,None,2024-07-01 23h27.50.282866 +0900,
Images/Speaker1.jpg,Images/Speaker2.jpg,Images/Speaker3.jpg,Images/Speaker4.jpg,Audio/Speaker1_Per/P1-5-Per.wav,Speaker1,گوینده ۱,1,1,81,4,,,,,72.38753945800272,,,,,,,,,,,,,,,,,,,,,,,,,,,,,,,,,,,,,,,,,,,,,48.47724158300116,48.47744475000218,086575,001,2024-07-01_23h27.44.647,5-28,2024.1.4,None,2024-07-01 23h27.50.282866 +0900,
Images/Speaker1.jpg,Images/Speaker2.jpg,Images/Speaker3.jpg,Images/Speaker4.jpg,Audio/Speaker2_Per/P2-5-Per.wav,Speaker2,گوینده۲,1,2,82,24,,,,,72.38753945800272,,,,,,,,,,,,,,,,,,,,,,,,,,,,,,,,,,,,,,,,,,,,,48.49381245800032,48.493971625000995,086575,001,2024-07-01_23h27.44.647,5-28,2024.1.4,None,2024-07-01 23h27.50.282866 +0900,
Images/Speaker1.jpg,Images/Speaker2.jpg,Images/Speaker3.jpg,Images/Speaker4.jpg,Audio/Speaker3_Per/P3-5-Per.wav,Speaker3,گوینده۳,1,3,83,44,,,,,72.38753945800272,,,,,,,,,,,,,,,,,,,,,,,,,,,,,,,,,,,,,,,,,,,,,48.50963899999988,48.509814000000915,086575,001,2024-07-01_23h27.44.647,5-28,2024.1.4,None,2024-07-01 23h27.50.282866 +0900,
Images/Speaker1.jpg,Images/Speaker2.jpg,Images/Speaker3.jpg,Images/Speaker4.jpg,Audio/Speaker1_Per/P1-6-Per.wav,Speaker1,گوینده ۱,1,4,84,5,,,,,72.38753945800272,,,,,,,,,,,,,,,,,,,,,,,,,,,,,,,,,,,,,,,,,,,,,48.52580837500136,48.52600195800187,086575,001,2024-07-01_23h27.44.647,5-28,2024.1.4,None,2024-07-01 23h27.50.282866 +0900,
Images/Speaker1.jpg,Images/Speaker2.jpg,Images/Speaker3.jpg,Images/Speaker4.jpg,Audio/Speaker3_Per/P3-6-Per.wav,Speaker3,گوینده۳,1,5,85,45,,,,,72.38753945800272,,,,,,,,,,,,,,,,,,,,,,,,,,,,,,,,,,,,,,,,,,,,,48.541872041001625,48.54204066600141,086575,001,2024-07-01_23h27.44.647,5-28,2024.1.4,None,2024-07-01 23h27.50.282866 +0900,
Images/Speaker1.jpg,Images/Speaker2.jpg,Images/Speaker3.jpg,Images/Speaker4.jpg,Audio/Speaker1_Per/P1-20-Per.wav,Speaker1,گوینده ۱,1,6,86,19,,,,,72.38753945800272,,,,,,,,,,,,,,,,,,,,,,,,,,,,,,,,,,,,,,,,,,,,,48.55845045800015,48.55862225000237,086575,001,2024-07-01_23h27.44.647,5-28,2024.1.4,None,2024-07-01 23h27.50.282866 +0900,
Images/Speaker1.jpg,Images/Speaker2.jpg,Images/Speaker3.jpg,Images/Speaker4.jpg,Audio/Speaker4_Per/P4-4-Per.wav,Speaker4,گوینده۴,1,7,87,63,,,,,72.38753945800272,,,,,,,,,,,,,,,,,,,,,,,,,,,,,,,,,,,,,,,,,,,,,48.574586041002476,48.57477674999973,086575,001,2024-07-01_23h27.44.647,5-28,2024.1.4,None,2024-07-01 23h27.50.282866 +0900,
Images/Speaker1.jpg,Images/Speaker2.jpg,Images/Speaker3.jpg,Images/Speaker4.jpg,Audio/Speaker2_Per/P2-13-Per.wav,Speaker2,گوینده۲,1,8,88,32,,,,,72.38753945800272,,,,,,,,,,,,,,,,,,,,,,,,,,,,,,,,,,,,,,,,,,,,,48.59055512499981,48.59072370800277,086575,001,2024-07-01_23h27.44.647,5-28,2024.1.4,None,2024-07-01 23h27.50.282866 +0900,
Images/Speaker1.jpg,Images/Speaker2.jpg,Images/Speaker3.jpg,Images/Speaker4.jpg,Audio/Speaker3_Per/P3-3-Per.wav,Speaker3,گوینده۳,1,9,89,42,,,,,72.38753945800272,,,,,,,,,,,,,,,,,,,,,,,,,,,,,,,,,,,,,,,,,,,,,48.60649970800296,48.606716624999535,086575,001,2024-07-01_23h27.44.647,5-28,2024.1.4,None,2024-07-01 23h27.50.282866 +0900,
Images/Speaker1.jpg,Images/Speaker2.jpg,Images/Speaker3.jpg,Images/Speaker4.jpg,Audio/Speaker3_Per/P3-19-Per.wav,Speaker3,گوینده۳,1,10,90,58,,,,,72.38753945800272,,,,,,,,,,,,,,,,,,,,,,,,,,,,,,,,,,,,,,,,,,,,,48.62309158300195,48.62326275000305,086575,001,2024-07-01_23h27.44.647,5-28,2024.1.4,None,2024-07-01 23h27.50.282866 +0900,
Images/Speaker1.jpg,Images/Speaker2.jpg,Images/Speaker3.jpg,Images/Speaker4.jpg,Audio/Speaker4_Per/P4-20-Per.wav,Speaker4,گوینده۴,1,11,91,79,,,,,72.38753945800272,,,,,,,,,,,,,,,,,,,,,,,,,,,,,,,,,,,,,,,,,,,,,48.63901854100186,48.63919516600072,086575,001,2024-07-01_23h27.44.647,5-28,2024.1.4,None,2024-07-01 23h27.50.282866 +0900,
Images/Speaker1.jpg,Images/Speaker2.jpg,Images/Speaker3.jpg,Images/Speaker4.jpg,Audio/Speaker4_Per/P4-2-Per.wav,Speaker4,گوینده۴,1,12,92,61,,,,,72.38753945800272,,,,,,,,,,,,,,,,,,,,,,,,,,,,,,,,,,,,,,,,,,,,,48.65498000000298,48.655147290999594,086575,001,2024-07-01_23h27.44.647,5-28,2024.1.4,None,2024-07-01 23h27.50.282866 +0900,
Images/Speaker1.jpg,Images/Speaker2.jpg,Images/Speaker3.jpg,Images/Speaker4.jpg,Audio/Speaker3_Per/P3-12-Per.wav,Speaker3,گوینده۳,1,13,93,51,,,,,72.38753945800272,,,,,,,,,,,,,,,,,,,,,,,,,,,,,,,,,,,,,,,,,,,,,48.67092899999989,48.671129458001815,086575,001,2024-07-01_23h27.44.647,5-28,2024.1.4,None,2024-07-01 23h27.50.282866 +0900,
Images/Speaker1.jpg,Images/Speaker2.jpg,Images/Speaker3.jpg,Images/Speaker4.jpg,Audio/Speaker4_Per/P4-16-Per.wav,Speaker4,گوینده۴,1,14,94,75,,,,,72.38753945800272,,,,,,,,,,,,,,,,,,,,,,,,,,,,,,,,,,,,,,,,,,,,,48.68756037500134,48.68772766600159,086575,001,2024-07-01_23h27.44.647,5-28,2024.1.4,None,2024-07-01 23h27.50.282866 +0900,
Images/Speaker1.jpg,Images/Speaker2.jpg,Images/Speaker3.jpg,Images/Speaker4.jpg,Audio/Speaker3_Per/P3-17-Per.wav,Speaker3,گوینده۳,1,15,95,56,,,,,72.38753945800272,,,,,,,,,,,,,,,,,,,,,,,,,,,,,,,,,,,,,,,,,,,,,48.70344233300057,48.70359779100181,086575,001,2024-07-01_23h27.44.647,5-28,2024.1.4,None,2024-07-01 23h27.50.282866 +0900,
Images/Speaker1.jpg,Images/Speaker2.jpg,Images/Speaker3.jpg,Images/Speaker4.jpg,Audio/Speaker1_Per/P1-2-Per.wav,Speaker1,گوینده ۱,1,16,96,1,,,,,72.38753945800272,,,,,,,,,,,,,,,,,,,,,,,,,,,,,,,,,,,,,,,,,,,,,48.71940720800194,48.71957612500046,086575,001,2024-07-01_23h27.44.647,5-28,2024.1.4,None,2024-07-01 23h27.50.282866 +0900,
Images/Speaker1.jpg,Images/Speaker2.jpg,Images/Speaker3.jpg,Images/Speaker4.jpg,Audio/Speaker2_Per/P2-18-Per.wav,Speaker2,گوینده۲,1,17,97,37,,,,,72.38753945800272,,,,,,,,,,,,,,,,,,,,,,,,,,,,,,,,,,,,,,,,,,,,,48.73561441600032,48.73581266600013,086575,001,2024-07-01_23h27.44.647,5-28,2024.1.4,None,2024-07-01 23h27.50.282866 +0900,
Images/Speaker1.jpg,Images/Speaker2.jpg,Images/Speaker3.jpg,Images/Speaker4.jpg,Audio/Speaker4_Per/P4-18-Per.wav,Speaker4,گوینده۴,1,18,98,77,,,,,72.38753945800272,,,,,,,,,,,,,,,,,,,,,,,,,,,,,,,,,,,,,,,,,,,,,48.75217487500049,48.75234258300043,086575,001,2024-07-01_23h27.44.647,5-28,2024.1.4,None,2024-07-01 23h27.50.282866 +0900,
Images/Speaker1.jpg,Images/Speaker2.jpg,Images/Speaker3.jpg,Images/Speaker4.jpg,Audio/Speaker4_Per/P4-11-Per.wav,Speaker4,گوینده۴,1,19,99,70,,,,,72.38753945800272,,,,,,,,,,,,,,,,,,,,,,,,,,,,,,,,,,,,,,,,,,,,,48.768057416000374,48.768234250001115,086575,001,2024-07-01_23h27.44.647,5-28,2024.1.4,None,2024-07-01 23h27.50.282866 +0900,
Images/Speaker1.jpg,Images/Speaker2.jpg,Images/Speaker3.jpg,Images/Speaker4.jpg,Audio/Speaker3_Per/P3-1-Per.wav,Speaker3,گوینده۳,1,20,100,40,,,,,72.38753945800272,,,,,,,,,,,,,,,,,,,,,,,,,,,,,,,,,,,,,,,,,,,,,48.78426287500042,48.78444370800207,086575,001,2024-07-01_23h27.44.647,5-28,2024.1.4,None,2024-07-01 23h27.50.282866 +0900,
Images/Speaker1.jpg,Images/Speaker2.jpg,Images/Speaker3.jpg,Images/Speaker4.jpg,Audio/Speaker4_Per/P4-19-Per.wav,Speaker4,گوینده۴,1,21,101,78,,,,,72.38753945800272,,,,,,,,,,,,,,,,,,,,,,,,,,,,,,,,,,,,,,,,,,,,,48.80026279100275,48.8004350830015,086575,001,2024-07-01_23h27.44.647,5-28,2024.1.4,None,2024-07-01 23h27.50.282866 +0900,
Images/Speaker1.jpg,Images/Speaker2.jpg,Images/Speaker3.jpg,Images/Speaker4.jpg,Audio/Speaker1_Per/P1-7-Per.wav,Speaker1,گوینده ۱,1,22,102,6,,,,,72.38753945800272,,,,,,,,,,,,,,,,,,,,,,,,,,,,,,,,,,,,,,,,,,,,,48.81717333300185,48.817342250000365,086575,001,2024-07-01_23h27.44.647,5-28,2024.1.4,None,2024-07-01 23h27.50.282866 +0900,
Images/Speaker1.jpg,Images/Speaker2.jpg,Images/Speaker3.jpg,Images/Speaker4.jpg,Audio/Speaker2_Per/P2-10-Per.wav,Speaker2,گوینده۲,1,23,103,29,,,,,72.38753945800272,,,,,,,,,,,,,,,,,,,,,,,,,,,,,,,,,,,,,,,,,,,,,48.833406583002215,48.83357525000247,086575,001,2024-07-01_23h27.44.647,5-28,2024.1.4,None,2024-07-01 23h27.50.282866 +0900,
Images/Speaker1.jpg,Images/Speaker2.jpg,Images/Speaker3.jpg,Images/Speaker4.jpg,Audio/Speaker2_Per/P2-1-Per.wav,Speaker2,گوینده۲,1,24,104,20,,,,,72.38753945800272,,,,,,,,,,,,,,,,,,,,,,,,,,,,,,,,,,,,,,,,,,,,,48.84940154099968,48.849612583002454,086575,001,2024-07-01_23h27.44.647,5-28,2024.1.4,None,2024-07-01 23h27.50.282866 +0900,
Images/Speaker1.jpg,Images/Speaker2.jpg,Images/Speaker3.jpg,Images/Speaker4.jpg,Audio/Speaker4_Per/P4-15-Per.wav,Speaker4,گوینده۴,1,25,105,74,,,,,72.38753945800272,,,,,,,,,,,,,,,,,,,,,,,,,,,,,,,,,,,,,,,,,,,,,48.865406041000824,48.86559816600129,086575,001,2024-07-01_23h27.44.647,5-28,2024.1.4,None,2024-07-01 23h27.50.282866 +0900,
Images/Speaker1.jpg,Images/Speaker2.jpg,Images/Speaker3.jpg,Images/Speaker4.jpg,Audio/Speaker2_Per/P2-17-Per.wav,Speaker2,گوینده۲,1,26,106,36,,,,,72.38753945800272,,,,,,,,,,,,,,,,,,,,,,,,,,,,,,,,,,,,,,,,,,,,,48.88196458300081,48.88212595799996,086575,001,2024-07-01_23h27.44.647,5-28,2024.1.4,None,2024-07-01 23h27.50.282866 +0900,
Images/Speaker1.jpg,Images/Speaker2.jpg,Images/Speaker3.jpg,Images/Speaker4.jpg,Audio/Speaker1_Per/P1-16-Per.wav,Speaker1,گوینده ۱,1,27,107,15,,,,,72.38753945800272,,,,,,,,,,,,,,,,,,,,,,,,,,,,,,,,,,,,,,,,,,,,,48.89794362500106,48.89810295800271,086575,001,2024-07-01_23h27.44.647,5-28,2024.1.4,None,2024-07-01 23h27.50.282866 +0900,
Images/Speaker1.jpg,Images/Speaker2.jpg,Images/Speaker3.jpg,Images/Speaker4.jpg,Audio/Speaker3_Per/P3-14-Per.wav,Speaker3,گوینده۳,1,28,108,53,,,,,72.38753945800272,,,,,,,,,,,,,,,,,,,,,,,,,,,,,,,,,,,,,,,,,,,,,48.91380675000255,48.913966625001194,086575,001,2024-07-01_23h27.44.647,5-28,2024.1.4,None,2024-07-01 23h27.50.282866 +0900,
Images/Speaker1.jpg,Images/Speaker2.jpg,Images/Speaker3.jpg,Images/Speaker4.jpg,Audio/Speaker4_Per/P4-9-Per.wav,Speaker4,گوینده۴,1,29,109,68,,,,,72.38753945800272,,,,,,,,,,,,,,,,,,,,,,,,,,,,,,,,,,,,,,,,,,,,,48.92973845800225,48.92991179100136,086575,001,2024-07-01_23h27.44.647,5-28,2024.1.4,None,2024-07-01 23h27.50.282866 +0900,
Images/Speaker1.jpg,Images/Speaker2.jpg,Images/Speaker3.jpg,Images/Speaker4.jpg,Audio/Speaker4_Per/P4-5-Per.wav,Speaker4,گوینده۴,1,30,110,64,,,,,72.38753945800272,,,,,,,,,,,,,,,,,,,,,,,,,,,,,,,,,,,,,,,,,,,,,48.94629858299959,48.946458875001554,086575,001,2024-07-01_23h27.44.647,5-28,2024.1.4,None,2024-07-01 23h27.50.282866 +0900,
Images/Speaker1.jpg,Images/Speaker2.jpg,Images/Speaker3.jpg,Images/Speaker4.jpg,Audio/Speaker1_Per/P1-8-Per.wav,Speaker1,گوینده ۱,1,31,111,7,,,,,72.38753945800272,,,,,,,,,,,,,,,,,,,,,,,,,,,,,,,,,,,,,,,,,,,,,48.96223087500039,48.9624395000028,086575,001,2024-07-01_23h27.44.647,5-28,2024.1.4,None,2024-07-01 23h27.50.282866 +0900,
Images/Speaker1.jpg,Images/Speaker2.jpg,Images/Speaker3.jpg,Images/Speaker4.jpg,Audio/Speaker3_Per/P3-7-Per.wav,Speaker3,گوینده۳,1,32,112,46,,,,,72.38753945800272,,,,,,,,,,,,,,,,,,,,,,,,,,,,,,,,,,,,,,,,,,,,,48.978261166001175,48.97849654099991,086575,001,2024-07-01_23h27.44.647,5-28,2024.1.4,None,2024-07-01 23h27.50.282866 +0900,
Images/Speaker1.jpg,Images/Speaker2.jpg,Images/Speaker3.jpg,Images/Speaker4.jpg,Audio/Speaker2_Per/P2-15-Per.wav,Speaker2,گوینده۲,1,33,113,34,,,,,72.38753945800272,,,,,,,,,,,,,,,,,,,,,,,,,,,,,,,,,,,,,,,,,,,,,48.99438525000005,48.99456000000282,086575,001,2024-07-01_23h27.44.647,5-28,2024.1.4,None,2024-07-01 23h27.50.282866 +0900,
Images/Speaker1.jpg,Images/Speaker2.jpg,Images/Speaker3.jpg,Images/Speaker4.jpg,Audio/Speaker2_Per/P2-19-Per.wav,Speaker2,گوینده۲,1,34,114,38,,,,,72.38753945800272,,,,,,,,,,,,,,,,,,,,,,,,,,,,,,,,,,,,,,,,,,,,,49.0109807910012,49.011150458001794,086575,001,2024-07-01_23h27.44.647,5-28,2024.1.4,None,2024-07-01 23h27.50.282866 +0900,
Images/Speaker1.jpg,Images/Speaker2.jpg,Images/Speaker3.jpg,Images/Speaker4.jpg,Audio/Speaker1_Per/P1-1-Per.wav,Speaker1,گوینده ۱,1,35,115,0,,,,,72.38753945800272,,,,,,,,,,,,,,,,,,,,,,,,,,,,,,,,,,,,,,,,,,,,,49.02734025000245,49.02751729100055,086575,001,2024-07-01_23h27.44.647,5-28,2024.1.4,None,2024-07-01 23h27.50.282866 +0900,
Images/Speaker1.jpg,Images/Speaker2.jpg,Images/Speaker3.jpg,Images/Speaker4.jpg,Audio/Speaker4_Per/P4-17-Per.wav,Speaker4,گوینده۴,1,36,116,76,,,,,72.38753945800272,,,,,,,,,,,,,,,,,,,,,,,,,,,,,,,,,,,,,,,,,,,,,49.04321754100238,49.0434149160028,086575,001,2024-07-01_23h27.44.647,5-28,2024.1.4,None,2024-07-01 23h27.50.282866 +0900,
Images/Speaker1.jpg,Images/Speaker2.jpg,Images/Speaker3.jpg,Images/Speaker4.jpg,Audio/Speaker4_Per/P4-10-Per.wav,Speaker4,گوینده۴,1,37,117,69,,,,,72.38753945800272,,,,,,,,,,,,,,,,,,,,,,,,,,,,,,,,,,,,,,,,,,,,,49.05918108300102,49.059396250002465,086575,001,2024-07-01_23h27.44.647,5-28,2024.1.4,None,2024-07-01 23h27.50.282866 +0900,
Images/Speaker1.jpg,Images/Speaker2.jpg,Images/Speaker3.jpg,Images/Speaker4.jpg,Audio/Speaker4_Per/P4-14-Per.wav,Speaker4,گوینده۴,1,38,118,73,,,,,72.38753945800272,,,,,,,,,,,,,,,,,,,,,,,,,,,,,,,,,,,,,,,,,,,,,49.07580483300262,49.075974041003064,086575,001,2024-07-01_23h27.44.647,5-28,2024.1.4,None,2024-07-01 23h27.50.282866 +0900,
Images/Speaker1.jpg,Images/Speaker2.jpg,Images/Speaker3.jpg,Images/Speaker4.jpg,Audio/Speaker2_Per/P2-4-Per.wav,Speaker2,گوینده۲,1,39,119,23,,,,,72.38753945800272,,,,,,,,,,,,,,,,,,,,,,,,,,,,,,,,,,,,,,,,,,,,,49.091715541002486,49.09189466600219,086575,001,2024-07-01_23h27.44.647,5-28,2024.1.4,None,2024-07-01 23h27.50.282866 +0900,
Images/Speaker1.jpg,Images/Speaker2.jpg,Images/Speaker3.jpg,Images/Speaker4.jpg,Audio/Speaker2_Per/P2-20-Per.wav,Speaker2,گوینده۲,1,40,120,39,,,,,72.38753945800272,,,,,,,,,,,,,,,,,,,,,,,,,,,,,,,,,,,,,,,,,,,,,49.10770945799959,49.10786579100022,086575,001,2024-07-01_23h27.44.647,5-28,2024.1.4,None,2024-07-01 23h27.50.282866 +0900,
Images/Speaker1.jpg,Images/Speaker2.jpg,Images/Speaker3.jpg,Images/Speaker4.jpg,Audio/Speaker3_Per/P3-20-Per.wav,Speaker3,گوینده۳,1,41,121,59,,,,,72.38753945800272,,,,,,,,,,,,,,,,,,,,,,,,,,,,,,,,,,,,,,,,,,,,,49.123744958000316,49.12392966600237,086575,001,2024-07-01_23h27.44.647,5-28,2024.1.4,None,2024-07-01 23h27.50.282866 +0900,
Images/Speaker1.jpg,Images/Speaker2.jpg,Images/Speaker3.jpg,Images/Speaker4.jpg,Audio/Speaker3_Per/P3-2-Per.wav,Speaker3,گوینده۳,1,42,122,41,,,,,72.38753945800272,,,,,,,,,,,,,,,,,,,,,,,,,,,,,,,,,,,,,,,,,,,,,49.14049870800227,49.14067720800085,086575,001,2024-07-01_23h27.44.647,5-28,2024.1.4,None,2024-07-01 23h27.50.282866 +0900,
Images/Speaker1.jpg,Images/Speaker2.jpg,Images/Speaker3.jpg,Images/Speaker4.jpg,Audio/Speaker2_Per/P2-12-Per.wav,Speaker2,گوینده۲,1,43,123,31,,,,,72.38753945800272,,,,,,,,,,,,,,,,,,,,,,,,,,,,,,,,,,,,,,,,,,,,,49.156531250002445,49.15667745800238,086575,001,2024-07-01_23h27.44.647,5-28,2024.1.4,None,2024-07-01 23h27.50.282866 +0900,
Images/Speaker1.jpg,Images/Speaker2.jpg,Images/Speaker3.jpg,Images/Speaker4.jpg,Audio/Speaker1_Per/P1-9-Per.wav,Speaker1,گوینده ۱,1,44,124,8,,,,,72.38753945800272,,,,,,,,,,,,,,,,,,,,,,,,,,,,,,,,,,,,,,,,,,,,,49.17247625000164,49.1726497080017,086575,001,2024-07-01_23h27.44.647,5-28,2024.1.4,None,2024-07-01 23h27.50.282866 +0900,
Images/Speaker1.jpg,Images/Speaker2.jpg,Images/Speaker3.jpg,Images/Speaker4.jpg,Audio/Speaker2_Per/P2-9-Per.wav,Speaker2,گوینده۲,1,45,125,28,,,,,72.38753945800272,,,,,,,,,,,,,,,,,,,,,,,,,,,,,,,,,,,,,,,,,,,,,49.18844683300267,49.1886174579995,086575,001,2024-07-01_23h27.44.647,5-28,2024.1.4,None,2024-07-01 23h27.50.282866 +0900,
Images/Speaker1.jpg,Images/Speaker2.jpg,Images/Speaker3.jpg,Images/Speaker4.jpg,Audio/Speaker2_Per/P2-3-Per.wav,Speaker2,گوینده۲,1,46,126,22,,,,,72.38753945800272,,,,,,,,,,,,,,,,,,,,,,,,,,,,,,,,,,,,,,,,,,,,,49.20505725000112,49.205209875002765,086575,001,2024-07-01_23h27.44.647,5-28,2024.1.4,None,2024-07-01 23h27.50.282866 +0900,
Images/Speaker1.jpg,Images/Speaker2.jpg,Images/Speaker3.jpg,Images/Speaker4.jpg,Audio/Speaker1_Per/P1-18-Per.wav,Speaker1,گوینده ۱,1,47,127,17,,,,,72.38753945800272,,,,,,,,,,,,,,,,,,,,,,,,,,,,,,,,,,,,,,,,,,,,,49.221047875002114,49.221231333001924,086575,001,2024-07-01_23h27.44.647,5-28,2024.1.4,None,2024-07-01 23h27.50.282866 +0900,
Images/Speaker1.jpg,Images/Speaker2.jpg,Images/Speaker3.jpg,Images/Speaker4.jpg,Audio/Speaker2_Per/P2-11-Per.wav,Speaker2,گوینده۲,1,48,128,30,,,,,72.38753945800272,,,,,,,,,,,,,,,,,,,,,,,,,,,,,,,,,,,,,,,,,,,,,49.23716762500044,49.23737800000163,086575,001,2024-07-01_23h27.44.647,5-28,2024.1.4,None,2024-07-01 23h27.50.282866 +0900,
Images/Speaker1.jpg,Images/Speaker2.jpg,Images/Speaker3.jpg,Images/Speaker4.jpg,Audio/Speaker3_Per/P3-11-Per.wav,Speaker3,گوینده۳,1,49,129,50,,,,,72.38753945800272,,,,,,,,,,,,,,,,,,,,,,,,,,,,,,,,,,,,,,,,,,,,,49.253238916000555,49.25346270800219,086575,001,2024-07-01_23h27.44.647,5-28,2024.1.4,None,2024-07-01 23h27.50.282866 +0900,
Images/Speaker1.jpg,Images/Speaker2.jpg,Images/Speaker3.jpg,Images/Speaker4.jpg,Audio/Speaker3_Per/P3-13-Per.wav,Speaker3,گوینده۳,1,50,130,52,,,,,72.38753945800272,,,,,,,,,,,,,,,,,,,,,,,,,,,,,,,,,,,,,,,,,,,,,49.26983216600274,49.27001233299961,086575,001,2024-07-01_23h27.44.647,5-28,2024.1.4,None,2024-07-01 23h27.50.282866 +0900,
Images/Speaker1.jpg,Images/Speaker2.jpg,Images/Speaker3.jpg,Images/Speaker4.jpg,Audio/Speaker3_Per/P3-16-Per.wav,Speaker3,گوینده۳,1,51,131,55,,,,,72.38753945800272,,,,,,,,,,,,,,,,,,,,,,,,,,,,,,,,,,,,,,,,,,,,,49.285743000000366,49.28590716600229,086575,001,2024-07-01_23h27.44.647,5-28,2024.1.4,None,2024-07-01 23h27.50.282866 +0900,
Images/Speaker1.jpg,Images/Speaker2.jpg,Images/Speaker3.jpg,Images/Speaker4.jpg,Audio/Speaker1_Per/P1-13-Per.wav,Speaker1,گوینده ۱,1,52,132,12,,,,,72.38753945800272,,,,,,,,,,,,,,,,,,,,,,,,,,,,,,,,,,,,,,,,,,,,,49.30211691600198,49.302277000002505,086575,001,2024-07-01_23h27.44.647,5-28,2024.1.4,None,2024-07-01 23h27.50.282866 +0900,
Images/Speaker1.jpg,Images/Speaker2.jpg,Images/Speaker3.jpg,Images/Speaker4.jpg,Audio/Speaker4_Per/P4-7-Per.wav,Speaker4,گوینده۴,1,53,133,66,,,,,72.38753945800272,,,,,,,,,,,,,,,,,,,,,,,,,,,,,,,,,,,,,,,,,,,,,49.318302208001114,49.31846737500018,086575,001,2024-07-01_23h27.44.647,5-28,2024.1.4,None,2024-07-01 23h27.50.282866 +0900,
Images/Speaker1.jpg,Images/Speaker2.jpg,Images/Speaker3.jpg,Images/Speaker4.jpg,Audio/Speaker3_Per/P3-8-Per.wav,Speaker3,گوینده۳,1,54,134,47,,,,,72.38753945800272,,,,,,,,,,,,,,,,,,,,,,,,,,,,,,,,,,,,,,,,,,,,,49.33484866599974,49.33507291600108,086575,001,2024-07-01_23h27.44.647,5-28,2024.1.4,None,2024-07-01 23h27.50.282866 +0900,
Images/Speaker1.jpg,Images/Speaker2.jpg,Images/Speaker3.jpg,Images/Speaker4.jpg,Audio/Speaker3_Per/P3-15-Per.wav,Speaker3,گوینده۳,1,55,135,54,,,,,72.38753945800272,,,,,,,,,,,,,,,,,,,,,,,,,,,,,,,,,,,,,,,,,,,,,49.350908333002735,49.351069791002374,086575,001,2024-07-01_23h27.44.647,5-28,2024.1.4,None,2024-07-01 23h27.50.282866 +0900,
Images/Speaker1.jpg,Images/Speaker2.jpg,Images/Speaker3.jpg,Images/Speaker4.jpg,Audio/Speaker1_Per/P1-11-Per.wav,Speaker1,گوینده ۱,1,56,136,10,,,,,72.38753945800272,,,,,,,,,,,,,,,,,,,,,,,,,,,,,,,,,,,,,,,,,,,,,49.36694712499957,49.3671182500002,086575,001,2024-07-01_23h27.44.647,5-28,2024.1.4,None,2024-07-01 23h27.50.282866 +0900,
Images/Speaker1.jpg,Images/Speaker2.jpg,Images/Speaker3.jpg,Images/Speaker4.jpg,Audio/Speaker4_Per/P4-1-Per.wav,Speaker4,گوینده۴,1,57,137,60,,,,,72.38753945800272,,,,,,,,,,,,,,,,,,,,,,,,,,,,,,,,,,,,,,,,,,,,,49.383024791000935,49.38320358300189,086575,001,2024-07-01_23h27.44.647,5-28,2024.1.4,None,2024-07-01 23h27.50.282866 +0900,
Images/Speaker1.jpg,Images/Speaker2.jpg,Images/Speaker3.jpg,Images/Speaker4.jpg,Audio/Speaker4_Per/P4-8-Per.wav,Speaker4,گوینده۴,1,58,138,67,,,,,72.38753945800272,,,,,,,,,,,,,,,,,,,,,,,,,,,,,,,,,,,,,,,,,,,,,49.39959166600238,49.399755291000474,086575,001,2024-07-01_23h27.44.647,5-28,2024.1.4,None,2024-07-01 23h27.50.282866 +0900,
Images/Speaker1.jpg,Images/Speaker2.jpg,Images/Speaker3.jpg,Images/Speaker4.jpg,Audio/Speaker1_Per/P1-12-Per.wav,Speaker1,گوینده ۱,1,59,139,11,,,,,72.38753945800272,,,,,,,,,,,,,,,,,,,,,,,,,,,,,,,,,,,,,,,,,,,,,49.415592083001684,49.415775833000225,086575,001,2024-07-01_23h27.44.647,5-28,2024.1.4,None,2024-07-01 23h27.50.282866 +0900,
Images/Speaker1.jpg,Images/Speaker2.jpg,Images/Speaker3.jpg,Images/Speaker4.jpg,Audio/Speaker3_Per/P3-4-Per.wav,Speaker3,گوینده۳,1,60,140,43,,,,,72.38753945800272,,,,,,,,,,,,,,,,,,,,,,,,,,,,,,,,,,,,,,,,,,,,,49.43141308300255,49.431586541002616,086575,001,2024-07-01_23h27.44.647,5-28,2024.1.4,None,2024-07-01 23h27.50.282866 +0900,
Images/Speaker1.jpg,Images/Speaker2.jpg,Images/Speaker3.jpg,Images/Speaker4.jpg,Audio/Speaker2_Per/P2-16-Per.wav,Speaker2,گوینده۲,1,61,141,35,,,,,72.38753945800272,,,,,,,,,,,,,,,,,,,,,,,,,,,,,,,,,,,,,,,,,,,,,49.44744858299964,49.44767329100068,086575,001,2024-07-01_23h27.44.647,5-28,2024.1.4,None,2024-07-01 23h27.50.282866 +0900,
Images/Speaker1.jpg,Images/Speaker2.jpg,Images/Speaker3.jpg,Images/Speaker4.jpg,Audio/Speaker1_Per/P1-10-Per.wav,Speaker1,گوینده ۱,1,62,142,9,,,,,72.38753945800272,,,,,,,,,,,,,,,,,,,,,,,,,,,,,,,,,,,,,,,,,,,,,49.464113500001986,49.46428025000205,086575,001,2024-07-01_23h27.44.647,5-28,2024.1.4,None,2024-07-01 23h27.50.282866 +0900,
Images/Speaker1.jpg,Images/Speaker2.jpg,Images/Speaker3.jpg,Images/Speaker4.jpg,Audio/Speaker4_Per/P4-13-Per.wav,Speaker4,گوینده۴,1,63,143,72,,,,,72.38753945800272,,,,,,,,,,,,,,,,,,,,,,,,,,,,,,,,,,,,,,,,,,,,,49.47999729100047,49.48015674999988,086575,001,2024-07-01_23h27.44.647,5-28,2024.1.4,None,2024-07-01 23h27.50.282866 +0900,
Images/Speaker1.jpg,Images/Speaker2.jpg,Images/Speaker3.jpg,Images/Speaker4.jpg,Audio/Speaker4_Per/P4-3-Per.wav,Speaker4,گوینده۴,1,64,144,62,,,,,72.38753945800272,,,,,,,,,,,,,,,,,,,,,,,,,,,,,,,,,,,,,,,,,,,,,49.49596554100208,49.49613020800098,086575,001,2024-07-01_23h27.44.647,5-28,2024.1.4,None,2024-07-01 23h27.50.282866 +0900,
Images/Speaker1.jpg,Images/Speaker2.jpg,Images/Speaker3.jpg,Images/Speaker4.jpg,Audio/Speaker3_Per/P3-18-Per.wav,Speaker3,گوینده۳,1,65,145,57,,,,,72.38753945800272,,,,,,,,,,,,,,,,,,,,,,,,,,,,,,,,,,,,,,,,,,,,,49.51191804100017,49.51208579100057,086575,001,2024-07-01_23h27.44.647,5-28,2024.1.4,None,2024-07-01 23h27.50.282866 +0900,
Images/Speaker1.jpg,Images/Speaker2.jpg,Images/Speaker3.jpg,Images/Speaker4.jpg,Audio/Speaker2_Per/P2-6-Per.wav,Speaker2,گوینده۲,1,66,146,25,,,,,72.38753945800272,,,,,,,,,,,,,,,,,,,,,,,,,,,,,,,,,,,,,,,,,,,,,49.52840691600068,49.52861066600235,086575,001,2024-07-01_23h27.44.647,5-28,2024.1.4,None,2024-07-01 23h27.50.282866 +0900,
Images/Speaker1.jpg,Images/Speaker2.jpg,Images/Speaker3.jpg,Images/Speaker4.jpg,Audio/Speaker1_Per/P1-15-Per.wav,Speaker1,گوینده ۱,1,67,147,14,,,,,72.38753945800272,,,,,,,,,,,,,,,,,,,,,,,,,,,,,,,,,,,,,,,,,,,,,49.5444032910018,49.544602416001,086575,001,2024-07-01_23h27.44.647,5-28,2024.1.4,None,2024-07-01 23h27.50.282866 +0900,
Images/Speaker1.jpg,Images/Speaker2.jpg,Images/Speaker3.jpg,Images/Speaker4.jpg,Audio/Speaker2_Per/P2-7-Per.wav,Speaker2,گوینده۲,1,68,148,26,,,,,72.38753945800272,,,,,,,,,,,,,,,,,,,,,,,,,,,,,,,,,,,,,,,,,,,,,49.560484125002404,49.56069716600177,086575,001,2024-07-01_23h27.44.647,5-28,2024.1.4,None,2024-07-01 23h27.50.282866 +0900,
Images/Speaker1.jpg,Images/Speaker2.jpg,Images/Speaker3.jpg,Images/Speaker4.jpg,Audio/Speaker2_Per/P2-2-Per.wav,Speaker2,گوینده۲,1,69,149,21,,,,,72.38753945800272,,,,,,,,,,,,,,,,,,,,,,,,,,,,,,,,,,,,,,,,,,,,,49.576516041001014,49.57669595799962,086575,001,2024-07-01_23h27.44.647,5-28,2024.1.4,None,2024-07-01 23h27.50.282866 +0900,
Images/Speaker1.jpg,Images/Speaker2.jpg,Images/Speaker3.jpg,Images/Speaker4.jpg,Audio/Speaker3_Per/P3-9-Per.wav,Speaker3,گوینده۳,1,70,150,48,,,,,72.38753945800272,,,,,,,,,,,,,,,,,,,,,,,,,,,,,,,,,,,,,,,,,,,,,49.59311566600081,49.59328387500136,086575,001,2024-07-01_23h27.44.647,5-28,2024.1.4,None,2024-07-01 23h27.50.282866 +0900,
Images/Speaker1.jpg,Images/Speaker2.jpg,Images/Speaker3.jpg,Images/Speaker4.jpg,Audio/Speaker3_Per/P3-10-Per.wav,Speaker3,گوینده۳,1,71,151,49,,,,,72.38753945800272,,,,,,,,,,,,,,,,,,,,,,,,,,,,,,,,,,,,,,,,,,,,,49.609071416001825,49.60923250000269,086575,001,2024-07-01_23h27.44.647,5-28,2024.1.4,None,2024-07-01 23h27.50.282866 +0900,
Images/Speaker1.jpg,Images/Speaker2.jpg,Images/Speaker3.jpg,Images/Speaker4.jpg,Audio/Speaker1_Per/P1-4-Per.wav,Speaker1,گوینده ۱,1,72,152,13,,,,,72.38753945800272,,,,,,,,,,,,,,,,,,,,,,,,,,,,,,,,,,,,,,,,,,,,,49.62530666600287,49.62546345800001,086575,001,2024-07-01_23h27.44.647,5-28,2024.1.4,None,2024-07-01 23h27.50.282866 +0900,
Images/Speaker1.jpg,Images/Speaker2.jpg,Images/Speaker3.jpg,Images/Speaker4.jpg,Audio/Speaker2_Per/P2-8-Per.wav,Speaker2,گوینده۲,1,73,153,27,,,,,72.38753945800272,,,,,,,,,,,,,,,,,,,,,,,,,,,,,,,,,,,,,,,,,,,,,49.64127883300171,49.64148266600023,086575,001,2024-07-01_23h27.44.647,5-28,2024.1.4,None,2024-07-01 23h27.50.282866 +0900,
Images/Speaker1.jpg,Images/Speaker2.jpg,Images/Speaker3.jpg,Images/Speaker4.jpg,Audio/Speaker1_Per/P1-17-Per.wav,Speaker1,گوینده ۱,1,74,154,16,,,,,72.38753945800272,,,,,,,,,,,,,,,,,,,,,,,,,,,,,,,,,,,,,,,,,,,,,49.65792816600151,49.65809912500117,086575,001,2024-07-01_23h27.44.647,5-28,2024.1.4,None,2024-07-01 23h27.50.282866 +0900,
Images/Speaker1.jpg,Images/Speaker2.jpg,Images/Speaker3.jpg,Images/Speaker4.jpg,Audio/Speaker1_Per/P1-4-Per.wav,Speaker1,گوینده ۱,1,75,155,3,,,,,72.38753945800272,,,,,,,,,,,,,,,,,,,,,,,,,,,,,,,,,,,,,,,,,,,,,49.673844375000044,49.67401120800059,086575,001,2024-07-01_23h27.44.647,5-28,2024.1.4,None,2024-07-01 23h27.50.282866 +0900,
Images/Speaker1.jpg,Images/Speaker2.jpg,Images/Speaker3.jpg,Images/Speaker4.jpg,Audio/Speaker4_Per/P4-6-Per.wav,Speaker4,گوینده۴,1,76,156,65,,,,,72.38753945800272,,,,,,,,,,,,,,,,,,,,,,,,,,,,,,,,,,,,,,,,,,,,,49.689795250000316,49.689964541001245,086575,001,2024-07-01_23h27.44.647,5-28,2024.1.4,None,2024-07-01 23h27.50.282866 +0900,
Images/Speaker1.jpg,Images/Speaker2.jpg,Images/Speaker3.jpg,Images/Speaker4.jpg,Audio/Speaker1_Per/P1-3-Per.wav,Speaker1,گوینده ۱,1,77,157,2,,,,,72.38753945800272,,,,,,,,,,,,,,,,,,,,,,,,,,,,,,,,,,,,,,,,,,,,,49.7057794579996,49.705955916000676,086575,001,2024-07-01_23h27.44.647,5-28,2024.1.4,None,2024-07-01 23h27.50.282866 +0900,
Images/Speaker1.jpg,Images/Speaker2.jpg,Images/Speaker3.jpg,Images/Speaker4.jpg,Audio/Speaker1_Per/P1-19-Per.wav,Speaker1,گوینده ۱,1,78,158,18,,,,,72.38753945800272,,,,,,,,,,,,,,,,,,,,,,,,,,,,,,,,,,,,,,,,,,,,,49.722252166000544,49.722452207999595,086575,001,2024-07-01_23h27.44.647,5-28,2024.1.4,None,2024-07-01 23h27.50.282866 +0900,
Images/Speaker1.jpg,Images/Speaker2.jpg,Images/Speaker3.jpg,Images/Speaker4.jpg,Audio/Speaker2_Per/P2-14-Per.wav,Speaker2,گوینده۲,1,79,159,33,,,,,72.38753945800272,,,,,,,,,,,,,,,,,,,,,,,,,,,,,,,,,,,,,,,,,,,,,49.73839879099978,49.73857649999991,086575,001,2024-07-01_23h27.44.647,5-28,2024.1.4,None,2024-07-01 23h27.50.282866 +0900,
Images/Speaker1.jpg,Images/Speaker2.jpg,Images/Speaker3.jpg,Images/Speaker4.jpg,Audio/Speaker3_Per/P3-17-Per.wav,Speaker3,گوینده۳,2,0,160,56,,,,,72.38753945800272,,,,,,,,,,,,,,,,,,,,,,,,,,,,,,,,,,,,,,,,,,,,,49.754357750000054,49.75452349999978,086575,001,2024-07-01_23h27.44.647,5-28,2024.1.4,None,2024-07-01 23h27.50.282866 +0900,
Images/Speaker1.jpg,Images/Speaker2.jpg,Images/Speaker3.jpg,Images/Speaker4.jpg,Audio/Speaker2_Per/P2-16-Per.wav,Speaker2,گوینده۲,2,1,161,35,,,,,72.38753945800272,,,,,,,,,,,,,,,,,,,,,,,,,,,,,,,,,,,,,,,,,,,,,49.77042170800269,49.77062333300273,086575,001,2024-07-01_23h27.44.647,5-28,2024.1.4,None,2024-07-01 23h27.50.282866 +0900,
Images/Speaker1.jpg,Images/Speaker2.jpg,Images/Speaker3.jpg,Images/Speaker4.jpg,Audio/Speaker3_Per/P3-10-Per.wav,Speaker3,گوینده۳,2,2,162,49,,,,,72.38753945800272,,,,,,,,,,,,,,,,,,,,,,,,,,,,,,,,,,,,,,,,,,,,,49.78712733300199,49.787313125001674,086575,001,2024-07-01_23h27.44.647,5-28,2024.1.4,None,2024-07-01 23h27.50.282866 +0900,
Images/Speaker1.jpg,Images/Speaker2.jpg,Images/Speaker3.jpg,Images/Speaker4.jpg,Audio/Speaker2_Per/P2-4-Per.wav,Speaker2,گوینده۲,2,3,163,23,,,,,72.38753945800272,,,,,,,,,,,,,,,,,,,,,,,,,,,,,,,,,,,,,,,,,,,,,49.80312833300195,49.80329795800208,086575,001,2024-07-01_23h27.44.647,5-28,2024.1.4,None,2024-07-01 23h27.50.282866 +0900,
Images/Speaker1.jpg,Images/Speaker2.jpg,Images/Speaker3.jpg,Images/Speaker4.jpg,Audio/Speaker4_Per/P4-10-Per.wav,Speaker4,گوینده۴,2,4,164,69,,,,,72.38753945800272,,,,,,,,,,,,,,,,,,,,,,,,,,,,,,,,,,,,,,,,,,,,,49.81914604100166,49.81930775000001,086575,001,2024-07-01_23h27.44.647,5-28,2024.1.4,None,2024-07-01 23h27.50.282866 +0900,
Images/Speaker1.jpg,Images/Speaker2.jpg,Images/Speaker3.jpg,Images/Speaker4.jpg,Audio/Speaker1_Per/P1-13-Per.wav,Speaker1,گوینده ۱,2,5,165,12,,,,,72.38753945800272,,,,,,,,,,,,,,,,,,,,,,,,,,,,,,,,,,,,,,,,,,,,,49.83506166600273,49.83523029100252,086575,001,2024-07-01_23h27.44.647,5-28,2024.1.4,None,2024-07-01 23h27.50.282866 +0900,
Images/Speaker1.jpg,Images/Speaker2.jpg,Images/Speaker3.jpg,Images/Speaker4.jpg,Audio/Speaker4_Per/P4-4-Per.wav,Speaker4,گوینده۴,2,6,166,63,,,,,72.38753945800272,,,,,,,,,,,,,,,,,,,,,,,,,,,,,,,,,,,,,,,,,,,,,49.85168258300109,49.851842666001176,086575,001,2024-07-01_23h27.44.647,5-28,2024.1.4,None,2024-07-01 23h27.50.282866 +0900,
Images/Speaker1.jpg,Images/Speaker2.jpg,Images/Speaker3.jpg,Images/Speaker4.jpg,Audio/Speaker4_Per/P4-13-Per.wav,Speaker4,گوینده۴,2,7,167,72,,,,,72.38753945800272,,,,,,,,,,,,,,,,,,,,,,,,,,,,,,,,,,,,,,,,,,,,,49.86750941600258,49.86767212500126,086575,001,2024-07-01_23h27.44.647,5-28,2024.1.4,None,2024-07-01 23h27.50.282866 +0900,
Images/Speaker1.jpg,Images/Speaker2.jpg,Images/Speaker3.jpg,Images/Speaker4.jpg,Audio/Speaker4_Per/P4-6-Per.wav,Speaker4,گوینده۴,2,8,168,65,,,,,72.38753945800272,,,,,,,,,,,,,,,,,,,,,,,,,,,,,,,,,,,,,,,,,,,,,49.88368170800095,49.88385383300192,086575,001,2024-07-01_23h27.44.647,5-28,2024.1.4,None,2024-07-01 23h27.50.282866 +0900,
Images/Speaker1.jpg,Images/Speaker2.jpg,Images/Speaker3.jpg,Images/Speaker4.jpg,Audio/Speaker1_Per/P1-3-Per.wav,Speaker1,گوینده ۱,2,9,169,2,,,,,72.38753945800272,,,,,,,,,,,,,,,,,,,,,,,,,,,,,,,,,,,,,,,,,,,,,49.89958729100181,49.899775666002824,086575,001,2024-07-01_23h27.44.647,5-28,2024.1.4,None,2024-07-01 23h27.50.282866 +0900,
Images/Speaker1.jpg,Images/Speaker2.jpg,Images/Speaker3.jpg,Images/Speaker4.jpg,Audio/Speaker3_Per/P3-5-Per.wav,Speaker3,گوینده۳,2,10,170,44,,,,,72.38753945800272,,,,,,,,,,,,,,,,,,,,,,,,,,,,,,,,,,,,,,,,,,,,,49.91617833300188,49.91640358299992,086575,001,2024-07-01_23h27.44.647,5-28,2024.1.4,None,2024-07-01 23h27.50.282866 +0900,
Images/Speaker1.jpg,Images/Speaker2.jpg,Images/Speaker3.jpg,Images/Speaker4.jpg,Audio/Speaker2_Per/P2-2-Per.wav,Speaker2,گوینده۲,2,11,171,21,,,,,72.38753945800272,,,,,,,,,,,,,,,,,,,,,,,,,,,,,,,,,,,,,,,,,,,,,49.93226499999946,49.93244962500103,086575,001,2024-07-01_23h27.44.647,5-28,2024.1.4,None,2024-07-01 23h27.50.282866 +0900,
Images/Speaker1.jpg,Images/Speaker2.jpg,Images/Speaker3.jpg,Images/Speaker4.jpg,Audio/Speaker4_Per/P4-15-Per.wav,Speaker4,گوینده۴,2,12,172,74,,,,,72.38753945800272,,,,,,,,,,,,,,,,,,,,,,,,,,,,,,,,,,,,,,,,,,,,,49.94820612500189,49.94840941599978,086575,001,2024-07-01_23h27.44.647,5-28,2024.1.4,None,2024-07-01 23h27.50.282866 +0900,
Images/Speaker1.jpg,Images/Speaker2.jpg,Images/Speaker3.jpg,Images/Speaker4.jpg,Audio/Speaker4_Per/P4-20-Per.wav,Speaker4,گوینده۴,2,13,173,79,,,,,72.38753945800272,,,,,,,,,,,,,,,,,,,,,,,,,,,,,,,,,,,,,,,,,,,,,49.964174875000026,49.96433704100127,086575,001,2024-07-01_23h27.44.647,5-28,2024.1.4,None,2024-07-01 23h27.50.282866 +0900,
Images/Speaker1.jpg,Images/Speaker2.jpg,Images/Speaker3.jpg,Images/Speaker4.jpg,Audio/Speaker3_Per/P3-16-Per.wav,Speaker3,گوینده۳,2,14,174,55,,,,,72.38753945800272,,,,,,,,,,,,,,,,,,,,,,,,,,,,,,,,,,,,,,,,,,,,,49.980682833000174,49.98083020800186,086575,001,2024-07-01_23h27.44.647,5-28,2024.1.4,None,2024-07-01 23h27.50.282866 +0900,
Images/Speaker1.jpg,Images/Speaker2.jpg,Images/Speaker3.jpg,Images/Speaker4.jpg,Audio/Speaker1_Per/P1-10-Per.wav,Speaker1,گوینده ۱,2,15,175,9,,,,,72.38753945800272,,,,,,,,,,,,,,,,,,,,,,,,,,,,,,,,,,,,,,,,,,,,,49.996654583002965,49.99681529100053,086575,001,2024-07-01_23h27.44.647,5-28,2024.1.4,None,2024-07-01 23h27.50.282866 +0900,
Images/Speaker1.jpg,Images/Speaker2.jpg,Images/Speaker3.jpg,Images/Speaker4.jpg,Audio/Speaker3_Per/P3-9-Per.wav,Speaker3,گوینده۳,2,16,176,48,,,,,72.38753945800272,,,,,,,,,,,,,,,,,,,,,,,,,,,,,,,,,,,,,,,,,,,,,50.0129002499998,50.013093958001264,086575,001,2024-07-01_23h27.44.647,5-28,2024.1.4,None,2024-07-01 23h27.50.282866 +0900,
Images/Speaker1.jpg,Images/Speaker2.jpg,Images/Speaker3.jpg,Images/Speaker4.jpg,Audio/Speaker3_Per/P3-4-Per.wav,Speaker3,گوینده۳,2,17,177,43,,,,,72.38753945800272,,,,,,,,,,,,,,,,,,,,,,,,,,,,,,,,,,,,,,,,,,,,,50.02892333300042,50.02914416600106,086575,001,2024-07-01_23h27.44.647,5-28,2024.1.4,None,2024-07-01 23h27.50.282866 +0900,
Images/Speaker1.jpg,Images/Speaker2.jpg,Images/Speaker3.jpg,Images/Speaker4.jpg,Audio/Speaker3_Per/P3-3-Per.wav,Speaker3,گوینده۳,2,18,178,42,,,,,72.38753945800272,,,,,,,,,,,,,,,,,,,,,,,,,,,,,,,,,,,,,,,,,,,,,50.04574775000219,50.045934458001284,086575,001,2024-07-01_23h27.44.647,5-28,2024.1.4,None,2024-07-01 23h27.50.282866 +0900,
Images/Speaker1.jpg,Images/Speaker2.jpg,Images/Speaker3.jpg,Images/Speaker4.jpg,Audio/Speaker4_Per/P4-1-Per.wav,Speaker4,گوینده۴,2,19,179,60,,,,,72.38753945800272,,,,,,,,,,,,,,,,,,,,,,,,,,,,,,,,,,,,,,,,,,,,,50.06165608300216,50.06182033300138,086575,001,2024-07-01_23h27.44.647,5-28,2024.1.4,None,2024-07-01 23h27.50.282866 +0900,
Images/Speaker1.jpg,Images/Speaker2.jpg,Images/Speaker3.jpg,Images/Speaker4.jpg,Audio/Speaker3_Per/P3-20-Per.wav,Speaker3,گوینده۳,2,20,180,59,,,,,72.38753945800272,,,,,,,,,,,,,,,,,,,,,,,,,,,,,,,,,,,,,,,,,,,,,50.07761025000218,50.077823333002016,086575,001,2024-07-01_23h27.44.647,5-28,2024.1.4,None,2024-07-01 23h27.50.282866 +0900,
Images/Speaker1.jpg,Images/Speaker2.jpg,Images/Speaker3.jpg,Images/Speaker4.jpg,Audio/Speaker2_Per/P2-3-Per.wav,Speaker2,گوینده۲,2,21,181,22,,,,,72.38753945800272,,,,,,,,,,,,,,,,,,,,,,,,,,,,,,,,,,,,,,,,,,,,,50.09358158300165,50.09378070800085,086575,001,2024-07-01_23h27.44.647,5-28,2024.1.4,None,2024-07-01 23h27.50.282866 +0900,
Images/Speaker1.jpg,Images/Speaker2.jpg,Images/Speaker3.jpg,Images/Speaker4.jpg,Audio/Speaker4_Per/P4-18-Per.wav,Speaker4,گوینده۴,2,22,182,77,,,,,72.38753945800272,,,,,,,,,,,,,,,,,,,,,,,,,,,,,,,,,,,,,,,,,,,,,50.11014562499986,50.1103215410003,086575,001,2024-07-01_23h27.44.647,5-28,2024.1.4,None,2024-07-01 23h27.50.282866 +0900,
Images/Speaker1.jpg,Images/Speaker2.jpg,Images/Speaker3.jpg,Images/Speaker4.jpg,Audio/Speaker1_Per/P1-20-Per.wav,Speaker1,گوینده ۱,2,23,183,19,,,,,72.38753945800272,,,,,,,,,,,,,,,,,,,,,,,,,,,,,,,,,,,,,,,,,,,,,50.126055832999555,50.12621787500029,086575,001,2024-07-01_23h27.44.647,5-28,2024.1.4,None,2024-07-01 23h27.50.282866 +0900,
Images/Speaker1.jpg,Images/Speaker2.jpg,Images/Speaker3.jpg,Images/Speaker4.jpg,Audio/Speaker2_Per/P2-18-Per.wav,Speaker2,گوینده۲,2,24,184,37,,,,,72.38753945800272,,,,,,,,,,,,,,,,,,,,,,,,,,,,,,,,,,,,,,,,,,,,,50.14197366600274,50.142130416003056,086575,001,2024-07-01_23h27.44.647,5-28,2024.1.4,None,2024-07-01 23h27.50.282866 +0900,
Images/Speaker1.jpg,Images/Speaker2.jpg,Images/Speaker3.jpg,Images/Speaker4.jpg,Audio/Speaker1_Per/P1-4-Per.wav,Speaker1,گوینده ۱,2,25,185,13,,,,,72.38753945800272,,,,,,,,,,,,,,,,,,,,,,,,,,,,,,,,,,,,,,,,,,,,,50.15781987500304,50.15798279100272,086575,001,2024-07-01_23h27.44.647,5-28,2024.1.4,None,2024-07-01 23h27.50.282866 +0900,
Images/Speaker1.jpg,Images/Speaker2.jpg,Images/Speaker3.jpg,Images/Speaker4.jpg,Audio/Speaker3_Per/P3-7-Per.wav,Speaker3,گوینده۳,2,26,186,46,,,,,72.38753945800272,,,,,,,,,,,,,,,,,,,,,,,,,,,,,,,,,,,,,,,,,,,,,50.17449512500025,50.17465500000253,086575,001,2024-07-01_23h27.44.647,5-28,2024.1.4,None,2024-07-01 23h27.50.282866 +0900,
Images/Speaker1.jpg,Images/Speaker2.jpg,Images/Speaker3.jpg,Images/Speaker4.jpg,Audio/Speaker1_Per/P1-16-Per.wav,Speaker1,گوینده ۱,2,27,187,15,,,,,72.38753945800272,,,,,,,,,,,,,,,,,,,,,,,,,,,,,,,,,,,,,,,,,,,,,50.190301333001116,50.19046800000069,086575,001,2024-07-01_23h27.44.647,5-28,2024.1.4,None,2024-07-01 23h27.50.282866 +0900,
Images/Speaker1.jpg,Images/Speaker2.jpg,Images/Speaker3.jpg,Images/Speaker4.jpg,Audio/Speaker2_Per/P2-14-Per.wav,Speaker2,گوینده۲,2,28,188,33,,,,,72.38753945800272,,,,,,,,,,,,,,,,,,,,,,,,,,,,,,,,,,,,,,,,,,,,,50.20618037500026,50.206352291002986,086575,001,2024-07-01_23h27.44.647,5-28,2024.1.4,None,2024-07-01 23h27.50.282866 +0900,
Images/Speaker1.jpg,Images/Speaker2.jpg,Images/Speaker3.jpg,Images/Speaker4.jpg,Audio/Speaker2_Per/P2-1-Per.wav,Speaker2,گوینده۲,2,29,189,20,,,,,72.38753945800272,,,,,,,,,,,,,,,,,,,,,,,,,,,,,,,,,,,,,,,,,,,,,50.22209208300046,50.22226862500247,086575,001,2024-07-01_23h27.44.647,5-28,2024.1.4,None,2024-07-01 23h27.50.282866 +0900,
Images/Speaker1.jpg,Images/Speaker2.jpg,Images/Speaker3.jpg,Images/Speaker4.jpg,Audio/Speaker4_Per/P4-9-Per.wav,Speaker4,گوینده۴,2,30,190,68,,,,,72.38753945800272,,,,,,,,,,,,,,,,,,,,,,,,,,,,,,,,,,,,,,,,,,,,,50.23862791600186,50.23880304100021,086575,001,2024-07-01_23h27.44.647,5-28,2024.1.4,None,2024-07-01 23h27.50.282866 +0900,
Images/Speaker1.jpg,Images/Speaker2.jpg,Images/Speaker3.jpg,Images/Speaker4.jpg,Audio/Speaker4_Per/P4-16-Per.wav,Speaker4,گوینده۴,2,31,191,75,,,,,72.38753945800272,,,,,,,,,,,,,,,,,,,,,,,,,,,,,,,,,,,,,,,,,,,,,50.25445870800104,50.25462562500252,086575,001,2024-07-01_23h27.44.647,5-28,2024.1.4,None,2024-07-01 23h27.50.282866 +0900,
Images/Speaker1.jpg,Images/Speaker2.jpg,Images/Speaker3.jpg,Images/Speaker4.jpg,Audio/Speaker2_Per/P2-12-Per.wav,Speaker2,گوینده۲,2,32,192,31,,,,,72.38753945800272,,,,,,,,,,,,,,,,,,,,,,,,,,,,,,,,,,,,,,,,,,,,,50.270474332999584,50.27065137500176,086575,001,2024-07-01_23h27.44.647,5-28,2024.1.4,None,2024-07-01 23h27.50.282866 +0900,
Images/Speaker1.jpg,Images/Speaker2.jpg,Images/Speaker3.jpg,Images/Speaker4.jpg,Audio/Speaker1_Per/P1-15-Per.wav,Speaker1,گوینده ۱,2,33,193,14,,,,,72.38753945800272,,,,,,,,,,,,,,,,,,,,,,,,,,,,,,,,,,,,,,,,,,,,,50.28644404100123,50.28660616600246,086575,001,2024-07-01_23h27.44.647,5-28,2024.1.4,None,2024-07-01 23h27.50.282866 +0900,
Images/Speaker1.jpg,Images/Speaker2.jpg,Images/Speaker3.jpg,Images/Speaker4.jpg,Audio/Speaker2_Per/P2-9-Per.wav,Speaker2,گوینده۲,2,34,194,28,,,,,72.38753945800272,,,,,,,,,,,,,,,,,,,,,,,,,,,,,,,,,,,,,,,,,,,,,50.30297858300037,50.303158958002314,086575,001,2024-07-01_23h27.44.647,5-28,2024.1.4,None,2024-07-01 23h27.50.282866 +0900,
Images/Speaker1.jpg,Images/Speaker2.jpg,Images/Speaker3.jpg,Images/Speaker4.jpg,Audio/Speaker1_Per/P1-19-Per.wav,Speaker1,گوینده ۱,2,35,195,18,,,,,72.38753945800272,,,,,,,,,,,,,,,,,,,,,,,,,,,,,,,,,,,,,,,,,,,,,50.318974875001004,50.3191555830017,086575,001,2024-07-01_23h27.44.647,5-28,2024.1.4,None,2024-07-01 23h27.50.282866 +0900,
Images/Speaker1.jpg,Images/Speaker2.jpg,Images/Speaker3.jpg,Images/Speaker4.jpg,Audio/Speaker1_Per/P1-5-Per.wav,Speaker1,گوینده ۱,2,36,196,4,,,,,72.38753945800272,,,,,,,,,,,,,,,,,,,,,,,,,,,,,,,,,,,,,,,,,,,,,50.334869041002094,50.33503641599964,086575,001,2024-07-01_23h27.44.647,5-28,2024.1.4,None,2024-07-01 23h27.50.282866 +0900,
Images/Speaker1.jpg,Images/Speaker2.jpg,Images/Speaker3.jpg,Images/Speaker4.jpg,Audio/Speaker1_Per/P1-6-Per.wav,Speaker1,گوینده ۱,2,37,197,5,,,,,72.38753945800272,,,,,,,,,,,,,,,,,,,,,,,,,,,,,,,,,,,,,,,,,,,,,50.35086141600186,50.35110266600168,086575,001,2024-07-01_23h27.44.647,5-28,2024.1.4,None,2024-07-01 23h27.50.282866 +0900,
Images/Speaker1.jpg,Images/Speaker2.jpg,Images/Speaker3.jpg,Images/Speaker4.jpg,Audio/Speaker4_Per/P4-7-Per.wav,Speaker4,گوینده۴,2,38,198,66,,,,,72.38753945800272,,,,,,,,,,,,,,,,,,,,,,,,,,,,,,,,,,,,,,,,,,,,,50.36747900000046,50.36765308300164,086575,001,2024-07-01_23h27.44.647,5-28,2024.1.4,None,2024-07-01 23h27.50.282866 +0900,
Images/Speaker1.jpg,Images/Speaker2.jpg,Images/Speaker3.jpg,Images/Speaker4.jpg,Audio/Speaker3_Per/P3-8-Per.wav,Speaker3,گوینده۳,2,39,199,47,,,,,72.38753945800272,,,,,,,,,,,,,,,,,,,,,,,,,,,,,,,,,,,,,,,,,,,,,50.38336345800053,50.38354804100163,086575,001,2024-07-01_23h27.44.647,5-28,2024.1.4,None,2024-07-01 23h27.50.282866 +0900,
Images/Speaker1.jpg,Images/Speaker2.jpg,Images/Speaker3.jpg,Images/Speaker4.jpg,Audio/Speaker1_Per/P1-7-Per.wav,Speaker1,گوینده ۱,2,40,200,6,,,,,72.38753945800272,,,,,,,,,,,,,,,,,,,,,,,,,,,,,,,,,,,,,,,,,,,,,50.39919704100248,50.39941187500153,086575,001,2024-07-01_23h27.44.647,5-28,2024.1.4,None,2024-07-01 23h27.50.282866 +0900,
Images/Speaker1.jpg,Images/Speaker2.jpg,Images/Speaker3.jpg,Images/Speaker4.jpg,Audio/Speaker3_Per/P3-2-Per.wav,Speaker3,گوینده۳,2,41,201,41,,,,,72.38753945800272,,,,,,,,,,,,,,,,,,,,,,,,,,,,,,,,,,,,,,,,,,,,,50.4151700830007,50.41538858300191,086575,001,2024-07-01_23h27.44.647,5-28,2024.1.4,None,2024-07-01 23h27.50.282866 +0900,
Images/Speaker1.jpg,Images/Speaker2.jpg,Images/Speaker3.jpg,Images/Speaker4.jpg,Audio/Speaker2_Per/P2-8-Per.wav,Speaker2,گوینده۲,2,42,202,27,,,,,72.38753945800272,,,,,,,,,,,,,,,,,,,,,,,,,,,,,,,,,,,,,,,,,,,,,50.431653250001546,50.4318122500008,086575,001,2024-07-01_23h27.44.647,5-28,2024.1.4,None,2024-07-01 23h27.50.282866 +0900,
Images/Speaker1.jpg,Images/Speaker2.jpg,Images/Speaker3.jpg,Images/Speaker4.jpg,Audio/Speaker1_Per/P1-8-Per.wav,Speaker1,گوینده ۱,2,43,203,7,,,,,72.38753945800272,,,,,,,,,,,,,,,,,,,,,,,,,,,,,,,,,,,,,,,,,,,,,50.44755679100126,50.447708625000814,086575,001,2024-07-01_23h27.44.647,5-28,2024.1.4,None,2024-07-01 23h27.50.282866 +0900,
Images/Speaker1.jpg,Images/Speaker2.jpg,Images/Speaker3.jpg,Images/Speaker4.jpg,Audio/Speaker3_Per/P3-19-Per.wav,Speaker3,گوینده۳,2,44,204,58,,,,,72.38753945800272,,,,,,,,,,,,,,,,,,,,,,,,,,,,,,,,,,,,,,,,,,,,,50.463429750001524,50.46357550000175,086575,001,2024-07-01_23h27.44.647,5-28,2024.1.4,None,2024-07-01 23h27.50.282866 +0900,
Images/Speaker1.jpg,Images/Speaker2.jpg,Images/Speaker3.jpg,Images/Speaker4.jpg,Audio/Speaker3_Per/P3-12-Per.wav,Speaker3,گوینده۳,2,45,205,51,,,,,72.38753945800272,,,,,,,,,,,,,,,,,,,,,,,,,,,,,,,,,,,,,,,,,,,,,50.47941758300294,50.47958883300089,086575,001,2024-07-01_23h27.44.647,5-28,2024.1.4,None,2024-07-01 23h27.50.282866 +0900,
Images/Speaker1.jpg,Images/Speaker2.jpg,Images/Speaker3.jpg,Images/Speaker4.jpg,Audio/Speaker3_Per/P3-18-Per.wav,Speaker3,گوینده۳,2,46,206,57,,,,,72.38753945800272,,,,,,,,,,,,,,,,,,,,,,,,,,,,,,,,,,,,,,,,,,,,,50.496005375000095,50.49618991600073,086575,001,2024-07-01_23h27.44.647,5-28,2024.1.4,None,2024-07-01 23h27.50.282866 +0900,
Images/Speaker1.jpg,Images/Speaker2.jpg,Images/Speaker3.jpg,Images/Speaker4.jpg,Audio/Speaker4_Per/P4-12-Per.wav,Speaker4,گوینده۴,2,47,207,71,,,,,72.38753945800272,,,,,,,,,,,,,,,,,,,,,,,,,,,,,,,,,,,,,,,,,,,,,50.51191408300292,50.51208637500167,086575,001,2024-07-01_23h27.44.647,5-28,2024.1.4,None,2024-07-01 23h27.50.282866 +0900,
Images/Speaker1.jpg,Images/Speaker2.jpg,Images/Speaker3.jpg,Images/Speaker4.jpg,Audio/Speaker2_Per/P2-13-Per.wav,Speaker2,گوینده۲,2,48,208,32,,,,,72.38753945800272,,,,,,,,,,,,,,,,,,,,,,,,,,,,,,,,,,,,,,,,,,,,,50.527809666000394,50.52797550000105,086575,001,2024-07-01_23h27.44.647,5-28,2024.1.4,None,2024-07-01 23h27.50.282866 +0900,
Images/Speaker1.jpg,Images/Speaker2.jpg,Images/Speaker3.jpg,Images/Speaker4.jpg,Audio/Speaker3_Per/P3-14-Per.wav,Speaker3,گوینده۳,2,49,209,53,,,,,72.38753945800272,,,,,,,,,,,,,,,,,,,,,,,,,,,,,,,,,,,,,,,,,,,,,50.54377616599959,50.54399737499989,086575,001,2024-07-01_23h27.44.647,5-28,2024.1.4,None,2024-07-01 23h27.50.282866 +0900,
Images/Speaker1.jpg,Images/Speaker2.jpg,Images/Speaker3.jpg,Images/Speaker4.jpg,Audio/Speaker3_Per/P3-1-Per.wav,Speaker3,گوینده۳,2,50,210,40,,,,,72.38753945800272,,,,,,,,,,,,,,,,,,,,,,,,,,,,,,,,,,,,,,,,,,,,,50.56034087500302,50.56050479100304,086575,001,2024-07-01_23h27.44.647,5-28,2024.1.4,None,2024-07-01 23h27.50.282866 +0900,
Images/Speaker1.jpg,Images/Speaker2.jpg,Images/Speaker3.jpg,Images/Speaker4.jpg,Audio/Speaker1_Per/P1-11-Per.wav,Speaker1,گوینده ۱,2,51,211,10,,,,,72.38753945800272,,,,,,,,,,,,,,,,,,,,,,,,,,,,,,,,,,,,,,,,,,,,,50.5763185830001,50.57648783300101,086575,001,2024-07-01_23h27.44.647,5-28,2024.1.4,None,2024-07-01 23h27.50.282866 +0900,
Images/Speaker1.jpg,Images/Speaker2.jpg,Images/Speaker3.jpg,Images/Speaker4.jpg,Audio/Speaker4_Per/P4-5-Per.wav,Speaker4,گوینده۴,2,52,212,64,,,,,72.38753945800272,,,,,,,,,,,,,,,,,,,,,,,,,,,,,,,,,,,,,,,,,,,,,50.59225270800016,50.59241649999967,086575,001,2024-07-01_23h27.44.647,5-28,2024.1.4,None,2024-07-01 23h27.50.282866 +0900,
Images/Speaker1.jpg,Images/Speaker2.jpg,Images/Speaker3.jpg,Images/Speaker4.jpg,Audio/Speaker2_Per/P2-5-Per.wav,Speaker2,گوینده۲,2,53,213,24,,,,,72.38753945800272,,,,,,,,,,,,,,,,,,,,,,,,,,,,,,,,,,,,,,,,,,,,,50.60823170799995,50.60840304100202,086575,001,2024-07-01_23h27.44.647,5-28,2024.1.4,None,2024-07-01 23h27.50.282866 +0900,
Images/Speaker1.jpg,Images/Speaker2.jpg,Images/Speaker3.jpg,Images/Speaker4.jpg,Audio/Speaker4_Per/P4-14-Per.wav,Speaker4,گوینده۴,2,54,214,73,,,,,72.38753945800272,,,,,,,,,,,,,,,,,,,,,,,,,,,,,,,,,,,,,,,,,,,,,50.624912666000455,50.62508825000259,086575,001,2024-07-01_23h27.44.647,5-28,2024.1.4,None,2024-07-01 23h27.50.282866 +0900,
Images/Speaker1.jpg,Images/Speaker2.jpg,Images/Speaker3.jpg,Images/Speaker4.jpg,Audio/Speaker4_Per/P4-3-Per.wav,Speaker4,گوینده۴,2,55,215,62,,,,,72.38753945800272,,,,,,,,,,,,,,,,,,,,,,,,,,,,,,,,,,,,,,,,,,,,,50.64090179100094,50.64111183299974,086575,001,2024-07-01_23h27.44.647,5-28,2024.1.4,None,2024-07-01 23h27.50.282866 +0900,
Images/Speaker1.jpg,Images/Speaker2.jpg,Images/Speaker3.jpg,Images/Speaker4.jpg,Audio/Speaker2_Per/P2-19-Per.wav,Speaker2,گوینده۲,2,56,216,38,,,,,72.38753945800272,,,,,,,,,,,,,,,,,,,,,,,,,,,,,,,,,,,,,,,,,,,,,50.65685212500102,50.657020416001615,086575,001,2024-07-01_23h27.44.647,5-28,2024.1.4,None,2024-07-01 23h27.50.282866 +0900,
Images/Speaker1.jpg,Images/Speaker2.jpg,Images/Speaker3.jpg,Images/Speaker4.jpg,Audio/Speaker4_Per/P4-19-Per.wav,Speaker4,گوینده۴,2,57,217,78,,,,,72.38753945800272,,,,,,,,,,,,,,,,,,,,,,,,,,,,,,,,,,,,,,,,,,,,,50.67275591600264,50.67291716600084,086575,001,2024-07-01_23h27.44.647,5-28,2024.1.4,None,2024-07-01 23h27.50.282866 +0900,
Images/Speaker1.jpg,Images/Speaker2.jpg,Images/Speaker3.jpg,Images/Speaker4.jpg,Audio/Speaker2_Per/P2-17-Per.wav,Speaker2,گوینده۲,2,58,218,36,,,,,72.38753945800272,,,,,,,,,,,,,,,,,,,,,,,,,,,,,,,,,,,,,,,,,,,,,50.68960783300281,50.68979379099983,086575,001,2024-07-01_23h27.44.647,5-28,2024.1.4,None,2024-07-01 23h27.50.282866 +0900,
Images/Speaker1.jpg,Images/Speaker2.jpg,Images/Speaker3.jpg,Images/Speaker4.jpg,Audio/Speaker2_Per/P2-6-Per.wav,Speaker2,گوینده۲,2,59,219,25,,,,,72.38753945800272,,,,,,,,,,,,,,,,,,,,,,,,,,,,,,,,,,,,,,,,,,,,,50.705538791000436,50.70571145800204,086575,001,2024-07-01_23h27.44.647,5-28,2024.1.4,None,2024-07-01 23h27.50.282866 +0900,
Images/Speaker1.jpg,Images/Speaker2.jpg,Images/Speaker3.jpg,Images/Speaker4.jpg,Audio/Speaker1_Per/P1-12-Per.wav,Speaker1,گوینده ۱,2,60,220,11,,,,,72.38753945800272,,,,,,,,,,,,,,,,,,,,,,,,,,,,,,,,,,,,,,,,,,,,,50.72147762500026,50.72164958299982,086575,001,2024-07-01_23h27.44.647,5-28,2024.1.4,None,2024-07-01 23h27.50.282866 +0900,
Images/Speaker1.jpg,Images/Speaker2.jpg,Images/Speaker3.jpg,Images/Speaker4.jpg,Audio/Speaker3_Per/P3-13-Per.wav,Speaker3,گوینده۳,2,61,221,52,,,,,72.38753945800272,,,,,,,,,,,,,,,,,,,,,,,,,,,,,,,,,,,,,,,,,,,,,50.737361291001434,50.7375361250015,086575,001,2024-07-01_23h27.44.647,5-28,2024.1.4,None,2024-07-01 23h27.50.282866 +0900,
Images/Speaker1.jpg,Images/Speaker2.jpg,Images/Speaker3.jpg,Images/Speaker4.jpg,Audio/Speaker2_Per/P2-20-Per.wav,Speaker2,گوینده۲,2,62,222,39,,,,,72.38753945800272,,,,,,,,,,,,,,,,,,,,,,,,,,,,,,,,,,,,,,,,,,,,,50.753962333001255,50.754132416001084,086575,001,2024-07-01_23h27.44.647,5-28,2024.1.4,None,2024-07-01 23h27.50.282866 +0900,
Images/Speaker1.jpg,Images/Speaker2.jpg,Images/Speaker3.jpg,Images/Speaker4.jpg,Audio/Speaker4_Per/P4-8-Per.wav,Speaker4,گوینده۴,2,63,223,67,,,,,72.38753945800272,,,,,,,,,,,,,,,,,,,,,,,,,,,,,,,,,,,,,,,,,,,,,50.769865166003,50.770037583002704,086575,001,2024-07-01_23h27.44.647,5-28,2024.1.4,None,2024-07-01 23h27.50.282866 +0900,
Images/Speaker1.jpg,Images/Speaker2.jpg,Images/Speaker3.jpg,Images/Speaker4.jpg,Audio/Speaker2_Per/P2-7-Per.wav,Speaker2,گوینده۲,2,64,224,26,,,,,72.38753945800272,,,,,,,,,,,,,,,,,,,,,,,,,,,,,,,,,,,,,,,,,,,,,50.785797374999675,50.78597795800306,086575,001,2024-07-01_23h27.44.647,5-28,2024.1.4,None,2024-07-01 23h27.50.282866 +0900,
Images/Speaker1.jpg,Images/Speaker2.jpg,Images/Speaker3.jpg,Images/Speaker4.jpg,Audio/Speaker1_Per/P1-4-Per.wav,Speaker1,گوینده ۱,2,65,225,3,,,,,72.38753945800272,,,,,,,,,,,,,,,,,,,,,,,,,,,,,,,,,,,,,,,,,,,,,50.801752041003056,50.801931916001195,086575,001,2024-07-01_23h27.44.647,5-28,2024.1.4,None,2024-07-01 23h27.50.282866 +0900,
Images/Speaker1.jpg,Images/Speaker2.jpg,Images/Speaker3.jpg,Images/Speaker4.jpg,Audio/Speaker2_Per/P2-10-Per.wav,Speaker2,گوینده۲,2,66,226,29,,,,,72.38753945800272,,,,,,,,,,,,,,,,,,,,,,,,,,,,,,,,,,,,,,,,,,,,,50.818274250003014,50.81843112500064,086575,001,2024-07-01_23h27.44.647,5-28,2024.1.4,None,2024-07-01 23h27.50.282866 +0900,
Images/Speaker1.jpg,Images/Speaker2.jpg,Images/Speaker3.jpg,Images/Speaker4.jpg,Audio/Speaker3_Per/P3-15-Per.wav,Speaker3,گوینده۳,2,67,227,54,,,,,72.38753945800272,,,,,,,,,,,,,,,,,,,,,,,,,,,,,,,,,,,,,,,,,,,,,50.834252250002464,50.83442595800079,086575,001,2024-07-01_23h27.44.647,5-28,2024.1.4,None,2024-07-01 23h27.50.282866 +0900,
Images/Speaker1.jpg,Images/Speaker2.jpg,Images/Speaker3.jpg,Images/Speaker4.jpg,Audio/Speaker1_Per/P1-1-Per.wav,Speaker1,گوینده ۱,2,68,228,0,,,,,72.38753945800272,,,,,,,,,,,,,,,,,,,,,,,,,,,,,,,,,,,,,,,,,,,,,50.85012641600042,50.85030141600146,086575,001,2024-07-01_23h27.44.647,5-28,2024.1.4,None,2024-07-01 23h27.50.282866 +0900,
Images/Speaker1.jpg,Images/Speaker2.jpg,Images/Speaker3.jpg,Images/Speaker4.jpg,Audio/Speaker2_Per/P2-11-Per.wav,Speaker2,گوینده۲,2,69,229,30,,,,,72.38753945800272,,,,,,,,,,,,,,,,,,,,,,,,,,,,,,,,,,,,,,,,,,,,,50.866117500001565,50.86628370800099,086575,001,2024-07-01_23h27.44.647,5-28,2024.1.4,None,2024-07-01 23h27.50.282866 +0900,
Images/Speaker1.jpg,Images/Speaker2.jpg,Images/Speaker3.jpg,Images/Speaker4.jpg,Audio/Speaker3_Per/P3-11-Per.wav,Speaker3,گوینده۳,2,70,230,50,,,,,72.38753945800272,,,,,,,,,,,,,,,,,,,,,,,,,,,,,,,,,,,,,,,,,,,,,50.88254437500291,50.882709458001045,086575,001,2024-07-01_23h27.44.647,5-28,2024.1.4,None,2024-07-01 23h27.50.282866 +0900,
Images/Speaker1.jpg,Images/Speaker2.jpg,Images/Speaker3.jpg,Images/Speaker4.jpg,Audio/Speaker3_Per/P3-6-Per.wav,Speaker3,گوینده۳,2,71,231,45,,,,,72.38753945800272,,,,,,,,,,,,,,,,,,,,,,,,,,,,,,,,,,,,,,,,,,,,,50.89838333300213,50.89856304100249,086575,001,2024-07-01_23h27.44.647,5-28,2024.1.4,None,2024-07-01 23h27.50.282866 +0900,
Images/Speaker1.jpg,Images/Speaker2.jpg,Images/Speaker3.jpg,Images/Speaker4.jpg,Audio/Speaker1_Per/P1-9-Per.wav,Speaker1,گوینده ۱,2,72,232,8,,,,,72.38753945800272,,,,,,,,,,,,,,,,,,,,,,,,,,,,,,,,,,,,,,,,,,,,,50.91429333300039,50.91447187500307,086575,001,2024-07-01_23h27.44.647,5-28,2024.1.4,None,2024-07-01 23h27.50.282866 +0900,
Images/Speaker1.jpg,Images/Speaker2.jpg,Images/Speaker3.jpg,Images/Speaker4.jpg,Audio/Speaker1_Per/P1-17-Per.wav,Speaker1,گوینده ۱,2,73,233,16,,,,,72.38753945800272,,,,,,,,,,,,,,,,,,,,,,,,,,,,,,,,,,,,,,,,,,,,,50.930249125001865,50.93046087500261,086575,001,2024-07-01_23h27.44.647,5-28,2024.1.4,None,2024-07-01 23h27.50.282866 +0900,
Images/Speaker1.jpg,Images/Speaker2.jpg,Images/Speaker3.jpg,Images/Speaker4.jpg,Audio/Speaker4_Per/P4-17-Per.wav,Speaker4,گوینده۴,2,74,234,76,,,,,72.38753945800272,,,,,,,,,,,,,,,,,,,,,,,,,,,,,,,,,,,,,,,,,,,,,50.94691837500068,50.947089958001015,086575,001,2024-07-01_23h27.44.647,5-28,2024.1.4,None,2024-07-01 23h27.50.282866 +0900,
Images/Speaker1.jpg,Images/Speaker2.jpg,Images/Speaker3.jpg,Images/Speaker4.jpg,Audio/Speaker1_Per/P1-18-Per.wav,Speaker1,گوینده ۱,2,75,235,17,,,,,72.38753945800272,,,,,,,,,,,,,,,,,,,,,,,,,,,,,,,,,,,,,,,,,,,,,50.96290087500165,50.96307187500133,086575,001,2024-07-01_23h27.44.647,5-28,2024.1.4,None,2024-07-01 23h27.50.282866 +0900,
Images/Speaker1.jpg,Images/Speaker2.jpg,Images/Speaker3.jpg,Images/Speaker4.jpg,Audio/Speaker2_Per/P2-15-Per.wav,Speaker2,گوینده۲,2,76,236,34,,,,,72.38753945800272,,,,,,,,,,,,,,,,,,,,,,,,,,,,,,,,,,,,,,,,,,,,,50.978888333000214,50.979050707999704,086575,001,2024-07-01_23h27.44.647,5-28,2024.1.4,None,2024-07-01 23h27.50.282866 +0900,
Images/Speaker1.jpg,Images/Speaker2.jpg,Images/Speaker3.jpg,Images/Speaker4.jpg,Audio/Speaker4_Per/P4-2-Per.wav,Speaker4,گوینده۴,2,77,237,61,,,,,72.38753945800272,,,,,,,,,,,,,,,,,,,,,,,,,,,,,,,,,,,,,,,,,,,,,50.99487991600108,50.99504983299994,086575,001,2024-07-01_23h27.44.647,5-28,2024.1.4,None,2024-07-01 23h27.50.282866 +0900,
Images/Speaker1.jpg,Images/Speaker2.jpg,Images/Speaker3.jpg,Images/Speaker4.jpg,Audio/Speaker4_Per/P4-11-Per.wav,Speaker4,گوینده۴,2,78,238,70,,,,,72.38753945800272,,,,,,,,,,,,,,,,,,,,,,,,,,,,,,,,,,,,,,,,,,,,,51.01137537500108,51.01158345800286,086575,001,2024-07-01_23h27.44.647,5-28,2024.1.4,None,2024-07-01 23h27.50.282866 +0900,
Images/Speaker1.jpg,Images/Speaker2.jpg,Images/Speaker3.jpg,Images/Speaker4.jpg,Audio/Speaker1_Per/P1-2-Per.wav,Speaker1,گوینده ۱,2,79,239,1,,,,,72.38753945800272,,,,,,,,,,,,,,,,,,,,,,,,,,,,,,,,,,,,,,,,,,,,,51.0273986659995,51.02755879100005,086575,001,2024-07-01_23h27.44.647,5-28,2024.1.4,None,2024-07-01 23h27.50.282866 +0900,
Images/Speaker1.jpg,Images/Speaker2.jpg,Images/Speaker3.jpg,Images/Speaker4.jpg,Audio/Speaker3_Per/P3-15-Per.wav,Speaker3,گوینده۳,3,0,240,54,,,,,72.38753945800272,,,,,,,,,,,,,,,,,,,,,,,,,,,,,,,,,,,,,,,,,,,,,51.04328570800135,51.04350108300059,086575,001,2024-07-01_23h27.44.647,5-28,2024.1.4,None,2024-07-01 23h27.50.282866 +0900,
Images/Speaker1.jpg,Images/Speaker2.jpg,Images/Speaker3.jpg,Images/Speaker4.jpg,Audio/Speaker1_Per/P1-7-Per.wav,Speaker1,گوینده ۱,3,1,241,6,,,,,72.38753945800272,,,,,,,,,,,,,,,,,,,,,,,,,,,,,,,,,,,,,,,,,,,,,51.059224458000244,51.05940137500147,086575,001,2024-07-01_23h27.44.647,5-28,2024.1.4,None,2024-07-01 23h27.50.282866 +0900,
Images/Speaker1.jpg,Images/Speaker2.jpg,Images/Speaker3.jpg,Images/Speaker4.jpg,Audio/Speaker4_Per/P4-20-Per.wav,Speaker4,گوینده۴,3,2,242,79,,,,,72.38753945800272,,,,,,,,,,,,,,,,,,,,,,,,,,,,,,,,,,,,,,,,,,,,,51.07577400000082,51.075950500002364,086575,001,2024-07-01_23h27.44.647,5-28,2024.1.4,None,2024-07-01 23h27.50.282866 +0900,
Images/Speaker1.jpg,Images/Speaker2.jpg,Images/Speaker3.jpg,Images/Speaker4.jpg,Audio/Speaker3_Per/P3-10-Per.wav,Speaker3,گوینده۳,3,3,243,49,,,,,72.38753945800272,,,,,,,,,,,,,,,,,,,,,,,,,,,,,,,,,,,,,,,,,,,,,51.09172408300219,51.091905625002255,086575,001,2024-07-01_23h27.44.647,5-28,2024.1.4,None,2024-07-01 23h27.50.282866 +0900,
Images/Speaker1.jpg,Images/Speaker2.jpg,Images/Speaker3.jpg,Images/Speaker4.jpg,Audio/Speaker1_Per/P1-2-Per.wav,Speaker1,گوینده ۱,3,4,244,1,,,,,72.38753945800272,,,,,,,,,,,,,,,,,,,,,,,,,,,,,,,,,,,,,,,,,,,,,51.10761862500294,51.10778833299992,086575,001,2024-07-01_23h27.44.647,5-28,2024.1.4,None,2024-07-01 23h27.50.282866 +0900,
Images/Speaker1.jpg,Images/Speaker2.jpg,Images/Speaker3.jpg,Images/Speaker4.jpg,Audio/Speaker2_Per/P2-17-Per.wav,Speaker2,گوینده۲,3,5,245,36,,,,,72.38753945800272,,,,,,,,,,,,,,,,,,,,,,,,,,,,,,,,,,,,,,,,,,,,,51.12355783300154,51.12371141600306,086575,001,2024-07-01_23h27.44.647,5-28,2024.1.4,None,2024-07-01 23h27.50.282866 +0900,
Images/Speaker1.jpg,Images/Speaker2.jpg,Images/Speaker3.jpg,Images/Speaker4.jpg,Audio/Speaker3_Per/P3-17-Per.wav,Speaker3,گوینده۳,3,6,246,56,,,,,72.38753945800272,,,,,,,,,,,,,,,,,,,,,,,,,,,,,,,,,,,,,,,,,,,,,51.140143500000704,51.140291208001145,086575,001,2024-07-01_23h27.44.647,5-28,2024.1.4,None,2024-07-01 23h27.50.282866 +0900,
Images/Speaker1.jpg,Images/Speaker2.jpg,Images/Speaker3.jpg,Images/Speaker4.jpg,Audio/Speaker4_Per/P4-1-Per.wav,Speaker4,گوینده۴,3,7,247,60,,,,,72.38753945800272,,,,,,,,,,,,,,,,,,,,,,,,,,,,,,,,,,,,,,,,,,,,,51.15601787500054,51.1561971250012,086575,001,2024-07-01_23h27.44.647,5-28,2024.1.4,None,2024-07-01 23h27.50.282866 +0900,
Images/Speaker1.jpg,Images/Speaker2.jpg,Images/Speaker3.jpg,Images/Speaker4.jpg,Audio/Speaker2_Per/P2-14-Per.wav,Speaker2,گوینده۲,3,8,248,33,,,,,72.38753945800272,,,,,,,,,,,,,,,,,,,,,,,,,,,,,,,,,,,,,,,,,,,,,51.17195941600221,51.17216745800033,086575,001,2024-07-01_23h27.44.647,5-28,2024.1.4,None,2024-07-01 23h27.50.282866 +0900,
Images/Speaker1.jpg,Images/Speaker2.jpg,Images/Speaker3.jpg,Images/Speaker4.jpg,Audio/Speaker3_Per/P3-20-Per.wav,Speaker3,گوینده۳,3,9,249,59,,,,,72.38753945800272,,,,,,,,,,,,,,,,,,,,,,,,,,,,,,,,,,,,,,,,,,,,,51.18796079100139,51.18817933300306,086575,001,2024-07-01_23h27.44.647,5-28,2024.1.4,None,2024-07-01 23h27.50.282866 +0900,
Images/Speaker1.jpg,Images/Speaker2.jpg,Images/Speaker3.jpg,Images/Speaker4.jpg,Audio/Speaker3_Per/P3-8-Per.wav,Speaker3,گوینده۳,3,10,250,47,,,,,72.38753945800272,,,,,,,,,,,,,,,,,,,,,,,,,,,,,,,,,,,,,,,,,,,,,51.20455520800169,51.204722958002094,086575,001,2024-07-01_23h27.44.647,5-28,2024.1.4,None,2024-07-01 23h27.50.282866 +0900,
Images/Speaker1.jpg,Images/Speaker2.jpg,Images/Speaker3.jpg,Images/Speaker4.jpg,Audio/Speaker1_Per/P1-13-Per.wav,Speaker1,گوینده ۱,3,11,251,12,,,,,72.38753945800272,,,,,,,,,,,,,,,,,,,,,,,,,,,,,,,,,,,,,,,,,,,,,51.2205040000008,51.2206678750008,086575,001,2024-07-01_23h27.44.647,5-28,2024.1.4,None,2024-07-01 23h27.50.282866 +0900,
Images/Speaker1.jpg,Images/Speaker2.jpg,Images/Speaker3.jpg,Images/Speaker4.jpg,Audio/Speaker4_Per/P4-12-Per.wav,Speaker4,گوینده۴,3,12,252,71,,,,,72.38753945800272,,,,,,,,,,,,,,,,,,,,,,,,,,,,,,,,,,,,,,,,,,,,,51.23642508299963,51.23659666599997,086575,001,2024-07-01_23h27.44.647,5-28,2024.1.4,None,2024-07-01 23h27.50.282866 +0900,
Images/Speaker1.jpg,Images/Speaker2.jpg,Images/Speaker3.jpg,Images/Speaker4.jpg,Audio/Speaker2_Per/P2-11-Per.wav,Speaker2,گوینده۲,3,13,253,30,,,,,72.38753945800272,,,,,,,,,,,,,,,,,,,,,,,,,,,,,,,,,,,,,,,,,,,,,51.25224637500287,51.252406875002634,086575,001,2024-07-01_23h27.44.647,5-28,2024.1.4,None,2024-07-01 23h27.50.282866 +0900,
Images/Speaker1.jpg,Images/Speaker2.jpg,Images/Speaker3.jpg,Images/Speaker4.jpg,Audio/Speaker3_Per/P3-4-Per.wav,Speaker3,گوینده۳,3,14,254,43,,,,,72.38753945800272,,,,,,,,,,,,,,,,,,,,,,,,,,,,,,,,,,,,,,,,,,,,,51.26877208299993,51.26893629100232,086575,001,2024-07-01_23h27.44.647,5-28,2024.1.4,None,2024-07-01 23h27.50.282866 +0900,
Images/Speaker1.jpg,Images/Speaker2.jpg,Images/Speaker3.jpg,Images/Speaker4.jpg,Audio/Speaker4_Per/P4-15-Per.wav,Speaker4,گوینده۴,3,15,255,74,,,,,72.38753945800272,,,,,,,,,,,,,,,,,,,,,,,,,,,,,,,,,,,,,,,,,,,,,51.28462500000023,51.284808583000995,086575,001,2024-07-01_23h27.44.647,5-28,2024.1.4,None,2024-07-01 23h27.50.282866 +0900,
Images/Speaker1.jpg,Images/Speaker2.jpg,Images/Speaker3.jpg,Images/Speaker4.jpg,Audio/Speaker2_Per/P2-13-Per.wav,Speaker2,گوینده۲,3,16,256,32,,,,,72.38753945800272,,,,,,,,,,,,,,,,,,,,,,,,,,,,,,,,,,,,,,,,,,,,,51.30051862500113,51.300684375000856,086575,001,2024-07-01_23h27.44.647,5-28,2024.1.4,None,2024-07-01 23h27.50.282866 +0900,
Images/Speaker1.jpg,Images/Speaker2.jpg,Images/Speaker3.jpg,Images/Speaker4.jpg,Audio/Speaker2_Per/P2-2-Per.wav,Speaker2,گوینده۲,3,17,257,21,,,,,72.38753945800272,,,,,,,,,,,,,,,,,,,,,,,,,,,,,,,,,,,,,,,,,,,,,51.316914708000695,51.317079208001815,086575,001,2024-07-01_23h27.44.647,5-28,2024.1.4,None,2024-07-01 23h27.50.282866 +0900,
Images/Speaker1.jpg,Images/Speaker2.jpg,Images/Speaker3.jpg,Images/Speaker4.jpg,Audio/Speaker2_Per/P2-20-Per.wav,Speaker2,گوینده۲,3,18,258,39,,,,,72.38753945800272,,,,,,,,,,,,,,,,,,,,,,,,,,,,,,,,,,,,,,,,,,,,,51.333477375002985,51.333628374999535,086575,001,2024-07-01_23h27.44.647,5-28,2024.1.4,None,2024-07-01 23h27.50.282866 +0900,
Images/Speaker1.jpg,Images/Speaker2.jpg,Images/Speaker3.jpg,Images/Speaker4.jpg,Audio/Speaker1_Per/P1-4-Per.wav,Speaker1,گوینده ۱,3,19,259,13,,,,,72.38753945800272,,,,,,,,,,,,,,,,,,,,,,,,,,,,,,,,,,,,,,,,,,,,,51.34951983300198,51.349743624999974,086575,001,2024-07-01_23h27.44.647,5-28,2024.1.4,None,2024-07-01 23h27.50.282866 +0900,
Images/Speaker1.jpg,Images/Speaker2.jpg,Images/Speaker3.jpg,Images/Speaker4.jpg,Audio/Speaker1_Per/P1-19-Per.wav,Speaker1,گوینده ۱,3,20,260,18,,,,,72.38753945800272,,,,,,,,,,,,,,,,,,,,,,,,,,,,,,,,,,,,,,,,,,,,,51.36553500000082,51.36578108300091,086575,001,2024-07-01_23h27.44.647,5-28,2024.1.4,None,2024-07-01 23h27.50.282866 +0900,
Images/Speaker1.jpg,Images/Speaker2.jpg,Images/Speaker3.jpg,Images/Speaker4.jpg,Audio/Speaker2_Per/P2-8-Per.wav,Speaker2,گوینده۲,3,21,261,27,,,,,72.38753945800272,,,,,,,,,,,,,,,,,,,,,,,,,,,,,,,,,,,,,,,,,,,,,51.38165724999999,51.38182600000073,086575,001,2024-07-01_23h27.44.647,5-28,2024.1.4,None,2024-07-01 23h27.50.282866 +0900,
Images/Speaker1.jpg,Images/Speaker2.jpg,Images/Speaker3.jpg,Images/Speaker4.jpg,Audio/Speaker3_Per/P3-11-Per.wav,Speaker3,گوینده۳,3,22,262,50,,,,,72.38753945800272,,,,,,,,,,,,,,,,,,,,,,,,,,,,,,,,,,,,,,,,,,,,,51.39818662499965,51.398350666000624,086575,001,2024-07-01_23h27.44.647,5-28,2024.1.4,None,2024-07-01 23h27.50.282866 +0900,
Images/Speaker1.jpg,Images/Speaker2.jpg,Images/Speaker3.jpg,Images/Speaker4.jpg,Audio/Speaker4_Per/P4-9-Per.wav,Speaker4,گوینده۴,3,23,263,68,,,,,72.38753945800272,,,,,,,,,,,,,,,,,,,,,,,,,,,,,,,,,,,,,,,,,,,,,51.41409950000161,51.41426195800159,086575,001,2024-07-01_23h27.44.647,5-28,2024.1.4,None,2024-07-01 23h27.50.282866 +0900,
Images/Speaker1.jpg,Images/Speaker2.jpg,Images/Speaker3.jpg,Images/Speaker4.jpg,Audio/Speaker4_Per/P4-10-Per.wav,Speaker4,گوینده۴,3,24,264,69,,,,,72.38753945800272,,,,,,,,,,,,,,,,,,,,,,,,,,,,,,,,,,,,,,,,,,,,,51.43001216600169,51.4301759580012,086575,001,2024-07-01_23h27.44.647,5-28,2024.1.4,None,2024-07-01 23h27.50.282866 +0900,
Images/Speaker1.jpg,Images/Speaker2.jpg,Images/Speaker3.jpg,Images/Speaker4.jpg,Audio/Speaker1_Per/P1-6-Per.wav,Speaker1,گوینده ۱,3,25,265,5,,,,,72.38753945800272,,,,,,,,,,,,,,,,,,,,,,,,,,,,,,,,,,,,,,,,,,,,,51.4459593749998,51.446136291000585,086575,001,2024-07-01_23h27.44.647,5-28,2024.1.4,None,2024-07-01 23h27.50.282866 +0900,
Images/Speaker1.jpg,Images/Speaker2.jpg,Images/Speaker3.jpg,Images/Speaker4.jpg,Audio/Speaker1_Per/P1-1-Per.wav,Speaker1,گوینده ۱,3,26,266,0,,,,,72.38753945800272,,,,,,,,,,,,,,,,,,,,,,,,,,,,,,,,,,,,,,,,,,,,,51.462680541000736,51.46286087500266,086575,001,2024-07-01_23h27.44.647,5-28,2024.1.4,None,2024-07-01 23h27.50.282866 +0900,
Images/Speaker1.jpg,Images/Speaker2.jpg,Images/Speaker3.jpg,Images/Speaker4.jpg,Audio/Speaker4_Per/P4-8-Per.wav,Speaker4,گوینده۴,3,27,267,67,,,,,72.38753945800272,,,,,,,,,,,,,,,,,,,,,,,,,,,,,,,,,,,,,,,,,,,,,51.47855900000286,51.47873737500049,086575,001,2024-07-01_23h27.44.647,5-28,2024.1.4,None,2024-07-01 23h27.50.282866 +0900,
Images/Speaker1.jpg,Images/Speaker2.jpg,Images/Speaker3.jpg,Images/Speaker4.jpg,Audio/Speaker4_Per/P4-5-Per.wav,Speaker4,گوینده۴,3,28,268,64,,,,,72.38753945800272,,,,,,,,,,,,,,,,,,,,,,,,,,,,,,,,,,,,,,,,,,,,,51.49449912500131,51.49466550000216,086575,001,2024-07-01_23h27.44.647,5-28,2024.1.4,None,2024-07-01 23h27.50.282866 +0900,
Images/Speaker1.jpg,Images/Speaker2.jpg,Images/Speaker3.jpg,Images/Speaker4.jpg,Audio/Speaker4_Per/P4-19-Per.wav,Speaker4,گوینده۴,3,29,269,78,,,,,72.38753945800272,,,,,,,,,,,,,,,,,,,,,,,,,,,,,,,,,,,,,,,,,,,,,51.51052516600248,51.51074775000234,086575,001,2024-07-01_23h27.44.647,5-28,2024.1.4,None,2024-07-01 23h27.50.282866 +0900,
Images/Speaker1.jpg,Images/Speaker2.jpg,Images/Speaker3.jpg,Images/Speaker4.jpg,Audio/Speaker1_Per/P1-4-Per.wav,Speaker1,گوینده ۱,3,30,270,3,,,,,72.38753945800272,,,,,,,,,,,,,,,,,,,,,,,,,,,,,,,,,,,,,,,,,,,,,51.527042583002185,51.527224083001784,086575,001,2024-07-01_23h27.44.647,5-28,2024.1.4,None,2024-07-01 23h27.50.282866 +0900,
Images/Speaker1.jpg,Images/Speaker2.jpg,Images/Speaker3.jpg,Images/Speaker4.jpg,Audio/Speaker1_Per/P1-3-Per.wav,Speaker1,گوینده ۱,3,31,271,2,,,,,72.38753945800272,,,,,,,,,,,,,,,,,,,,,,,,,,,,,,,,,,,,,,,,,,,,,51.543013416001486,51.54319516600299,086575,001,2024-07-01_23h27.44.647,5-28,2024.1.4,None,2024-07-01 23h27.50.282866 +0900,
Images/Speaker1.jpg,Images/Speaker2.jpg,Images/Speaker3.jpg,Images/Speaker4.jpg,Audio/Speaker4_Per/P4-11-Per.wav,Speaker4,گوینده۴,3,32,272,70,,,,,72.38753945800272,,,,,,,,,,,,,,,,,,,,,,,,,,,,,,,,,,,,,,,,,,,,,51.55924262500048,51.55941950000124,086575,001,2024-07-01_23h27.44.647,5-28,2024.1.4,None,2024-07-01 23h27.50.282866 +0900,
Images/Speaker1.jpg,Images/Speaker2.jpg,Images/Speaker3.jpg,Images/Speaker4.jpg,Audio/Speaker2_Per/P2-16-Per.wav,Speaker2,گوینده۲,3,33,273,35,,,,,72.38753945800272,,,,,,,,,,,,,,,,,,,,,,,,,,,,,,,,,,,,,,,,,,,,,51.57525283300129,51.57545316600226,086575,001,2024-07-01_23h27.44.647,5-28,2024.1.4,None,2024-07-01 23h27.50.282866 +0900,
Images/Speaker1.jpg,Images/Speaker2.jpg,Images/Speaker3.jpg,Images/Speaker4.jpg,Audio/Speaker2_Per/P2-10-Per.wav,Speaker2,گوینده۲,3,34,274,29,,,,,72.38753945800272,,,,,,,,,,,,,,,,,,,,,,,,,,,,,,,,,,,,,,,,,,,,,51.592314166002325,51.59250954100207,086575,001,2024-07-01_23h27.44.647,5-28,2024.1.4,None,2024-07-01 23h27.50.282866 +0900,
Images/Speaker1.jpg,Images/Speaker2.jpg,Images/Speaker3.jpg,Images/Speaker4.jpg,Audio/Speaker4_Per/P4-6-Per.wav,Speaker4,گوینده۴,3,35,275,65,,,,,72.38753945800272,,,,,,,,,,,,,,,,,,,,,,,,,,,,,,,,,,,,,,,,,,,,,51.60828462500285,51.608485333003046,086575,001,2024-07-01_23h27.44.647,5-28,2024.1.4,None,2024-07-01 23h27.50.282866 +0900,
Images/Speaker1.jpg,Images/Speaker2.jpg,Images/Speaker3.jpg,Images/Speaker4.jpg,Audio/Speaker3_Per/P3-1-Per.wav,Speaker3,گوینده۳,3,36,276,40,,,,,72.38753945800272,,,,,,,,,,,,,,,,,,,,,,,,,,,,,,,,,,,,,,,,,,,,,51.62424050000118,51.62446104099945,086575,001,2024-07-01_23h27.44.647,5-28,2024.1.4,None,2024-07-01 23h27.50.282866 +0900,
Images/Speaker1.jpg,Images/Speaker2.jpg,Images/Speaker3.jpg,Images/Speaker4.jpg,Audio/Speaker3_Per/P3-18-Per.wav,Speaker3,گوینده۳,3,37,277,57,,,,,72.38753945800272,,,,,,,,,,,,,,,,,,,,,,,,,,,,,,,,,,,,,,,,,,,,,51.640268333001586,51.64045025000087,086575,001,2024-07-01_23h27.44.647,5-28,2024.1.4,None,2024-07-01 23h27.50.282866 +0900,
Images/Speaker1.jpg,Images/Speaker2.jpg,Images/Speaker3.jpg,Images/Speaker4.jpg,Audio/Speaker1_Per/P1-9-Per.wav,Speaker1,گوینده ۱,3,38,278,8,,,,,72.38753945800272,,,,,,,,,,,,,,,,,,,,,,,,,,,,,,,,,,,,,,,,,,,,,51.65682300000117,51.65699970800051,086575,001,2024-07-01_23h27.44.647,5-28,2024.1.4,None,2024-07-01 23h27.50.282866 +0900,
Images/Speaker1.jpg,Images/Speaker2.jpg,Images/Speaker3.jpg,Images/Speaker4.jpg,Audio/Speaker2_Per/P2-1-Per.wav,Speaker2,گوینده۲,3,39,279,20,,,,,72.38753945800272,,,,,,,,,,,,,,,,,,,,,,,,,,,,,,,,,,,,,,,,,,,,,51.67283624999982,51.673002125000494,086575,001,2024-07-01_23h27.44.647,5-28,2024.1.4,None,2024-07-01 23h27.50.282866 +0900,
Images/Speaker1.jpg,Images/Speaker2.jpg,Images/Speaker3.jpg,Images/Speaker4.jpg,Audio/Speaker3_Per/P3-7-Per.wav,Speaker3,گوینده۳,3,40,280,46,,,,,72.38753945800272,,,,,,,,,,,,,,,,,,,,,,,,,,,,,,,,,,,,,,,,,,,,,51.68907374999981,51.68923850000283,086575,001,2024-07-01_23h27.44.647,5-28,2024.1.4,None,2024-07-01 23h27.50.282866 +0900,
Images/Speaker1.jpg,Images/Speaker2.jpg,Images/Speaker3.jpg,Images/Speaker4.jpg,Audio/Speaker1_Per/P1-20-Per.wav,Speaker1,گوینده ۱,3,41,281,19,,,,,72.38753945800272,,,,,,,,,,,,,,,,,,,,,,,,,,,,,,,,,,,,,,,,,,,,,51.705190125001536,51.70539120800095,086575,001,2024-07-01_23h27.44.647,5-28,2024.1.4,None,2024-07-01 23h27.50.282866 +0900,
Images/Speaker1.jpg,Images/Speaker2.jpg,Images/Speaker3.jpg,Images/Speaker4.jpg,Audio/Speaker1_Per/P1-18-Per.wav,Speaker1,گوینده ۱,3,42,282,17,,,,,72.38753945800272,,,,,,,,,,,,,,,,,,,,,,,,,,,,,,,,,,,,,,,,,,,,,51.721823583000514,51.721999666002375,086575,001,2024-07-01_23h27.44.647,5-28,2024.1.4,None,2024-07-01 23h27.50.282866 +0900,
Images/Speaker1.jpg,Images/Speaker2.jpg,Images/Speaker3.jpg,Images/Speaker4.jpg,Audio/Speaker4_Per/P4-4-Per.wav,Speaker4,گوینده۴,3,43,283,63,,,,,72.38753945800272,,,,,,,,,,,,,,,,,,,,,,,,,,,,,,,,,,,,,,,,,,,,,51.7377468750019,51.737932875003025,086575,001,2024-07-01_23h27.44.647,5-28,2024.1.4,None,2024-07-01 23h27.50.282866 +0900,
Images/Speaker1.jpg,Images/Speaker2.jpg,Images/Speaker3.jpg,Images/Speaker4.jpg,Audio/Speaker2_Per/P2-15-Per.wav,Speaker2,گوینده۲,3,44,284,34,,,,,72.38753945800272,,,,,,,,,,,,,,,,,,,,,,,,,,,,,,,,,,,,,,,,,,,,,51.753767624999455,51.75397658300062,086575,001,2024-07-01_23h27.44.647,5-28,2024.1.4,None,2024-07-01 23h27.50.282866 +0900,
Images/Speaker1.jpg,Images/Speaker2.jpg,Images/Speaker3.jpg,Images/Speaker4.jpg,Audio/Speaker1_Per/P1-11-Per.wav,Speaker1,گوینده ۱,3,45,285,10,,,,,72.38753945800272,,,,,,,,,,,,,,,,,,,,,,,,,,,,,,,,,,,,,,,,,,,,,51.76976700000159,51.76999358300236,086575,001,2024-07-01_23h27.44.647,5-28,2024.1.4,None,2024-07-01 23h27.50.282866 +0900,
Images/Speaker1.jpg,Images/Speaker2.jpg,Images/Speaker3.jpg,Images/Speaker4.jpg,Audio/Speaker2_Per/P2-3-Per.wav,Speaker2,گوینده۲,3,46,286,22,,,,,72.38753945800272,,,,,,,,,,,,,,,,,,,,,,,,,,,,,,,,,,,,,,,,,,,,,51.78663879099986,51.78681362499992,086575,001,2024-07-01_23h27.44.647,5-28,2024.1.4,None,2024-07-01 23h27.50.282866 +0900,
Images/Speaker1.jpg,Images/Speaker2.jpg,Images/Speaker3.jpg,Images/Speaker4.jpg,Audio/Speaker4_Per/P4-2-Per.wav,Speaker4,گوینده۴,3,47,287,61,,,,,72.38753945800272,,,,,,,,,,,,,,,,,,,,,,,,,,,,,,,,,,,,,,,,,,,,,51.802520250003,51.80268300000171,086575,001,2024-07-01_23h27.44.647,5-28,2024.1.4,None,2024-07-01 23h27.50.282866 +0900,
Images/Speaker1.jpg,Images/Speaker2.jpg,Images/Speaker3.jpg,Images/Speaker4.jpg,Audio/Speaker1_Per/P1-12-Per.wav,Speaker1,گوینده ۱,3,48,288,11,,,,,72.38753945800272,,,,,,,,,,,,,,,,,,,,,,,,,,,,,,,,,,,,,,,,,,,,,51.81844741600071,51.81859883300058,086575,001,2024-07-01_23h27.44.647,5-28,2024.1.4,None,2024-07-01 23h27.50.282866 +0900,
Images/Speaker1.jpg,Images/Speaker2.jpg,Images/Speaker3.jpg,Images/Speaker4.jpg,Audio/Speaker3_Per/P3-16-Per.wav,Speaker3,گوینده۳,3,49,289,55,,,,,72.38753945800272,,,,,,,,,,,,,,,,,,,,,,,,,,,,,,,,,,,,,,,,,,,,,51.834451416001684,51.83463041600044,086575,001,2024-07-01_23h27.44.647,5-28,2024.1.4,None,2024-07-01 23h27.50.282866 +0900,
Images/Speaker1.jpg,Images/Speaker2.jpg,Images/Speaker3.jpg,Images/Speaker4.jpg,Audio/Speaker3_Per/P3-19-Per.wav,Speaker3,گوینده۳,3,50,290,58,,,,,72.38753945800272,,,,,,,,,,,,,,,,,,,,,,,,,,,,,,,,,,,,,,,,,,,,,51.85097745800158,51.85112149999986,086575,001,2024-07-01_23h27.44.647,5-28,2024.1.4,None,2024-07-01 23h27.50.282866 +0900,
Images/Speaker1.jpg,Images/Speaker2.jpg,Images/Speaker3.jpg,Images/Speaker4.jpg,Audio/Speaker3_Per/P3-13-Per.wav,Speaker3,گوینده۳,3,51,291,52,,,,,72.38753945800272,,,,,,,,,,,,,,,,,,,,,,,,,,,,,,,,,,,,,,,,,,,,,51.86683095800254,51.86701887500021,086575,001,2024-07-01_23h27.44.647,5-28,2024.1.4,None,2024-07-01 23h27.50.282866 +0900,
Images/Speaker1.jpg,Images/Speaker2.jpg,Images/Speaker3.jpg,Images/Speaker4.jpg,Audio/Speaker3_Per/P3-6-Per.wav,Speaker3,گوینده۳,3,52,292,45,,,,,72.38753945800272,,,,,,,,,,,,,,,,,,,,,,,,,,,,,,,,,,,,,,,,,,,,,51.88269958300225,51.882873665999796,086575,001,2024-07-01_23h27.44.647,5-28,2024.1.4,None,2024-07-01 23h27.50.282866 +0900,
