SpeakerImage1,SpeakerImage2,SpeakerImage3,SpeakerImage4,TrainingSound,EnglishCorrectAnswer,PersianCorrectAnswer,repeated_TrainingLoopGroup1.thisRepN,repeated_TrainingLoopGroup1.thisTrialN,repeated_TrainingLoopGroup1.thisN,repeated_TrainingLoopGroup1.thisIndex,TrainingLoopGroup1.thisRepN,TrainingLoopGroup1.thisTrialN,TrainingLoopGroup1.thisN,TrainingLoopGroup1.thisIndex,thisRow.t,notes,trial.started,trial.stopped,GroupSelection.started,GroupInstructions.started,key_resp.started,GroupSelection.stopped,key_resp.keys,key_resp.rt,key_resp.duration,Introduction.started,text_2.started,image.started,sound_7.started,text_4.started,text_2.stopped,sound_8.started,image.stopped,text_4.stopped,image_7.started,sound_9.started,text_5.started,sound_10.started,image_7.stopped,text_5.stopped,image_8.started,sound_11.started,text_6.started,sound_12.started,image_8.stopped,text_6.stopped,image_9.started,sound_13.started,text_7.started,sound_14.started,image_9.stopped,text_7.stopped,Introduction.stopped,Instructions.started,InstructionText.started,InstructionText.stopped,Instructions.stopped,InitializeExperiment.started,InitializeExperiment.stopped,CheckAccuracy1.started,CheckAccuracy1.stopped,participant,session,date,expName,psychopyVersion,frameRate,expStart,
,,,,,,,,,,,,,,,,,0.009288374996685889,0.009591749996616272,,,,,,,,,,,,,,,,,,,,,,,,,,,,,,,,,,,,,,,,,,,,091864,001,2024-07-01_23h26.16.227,5-28,2024.1.4,None,2024-07-01 23h26.21.272468 +0900,
,,,,,,,,,,,,,,,,,,,0.009611040997697273,0.013874249998480082,0.013874249998480082,2.124130415999389,2,2.075392125003418,None,,,,,,,,,,,,,,,,,,,,,,,,,,,,,,,,,,,,,091864,001,2024-07-01_23h26.16.227,5-28,2024.1.4,None,2024-07-01 23h26.21.272468 +0900,
,,,,,,,,,,,,,,,,,,,,,,,,,,2.124161790998187,2.1763601249986095,7.127952499999083,7.1330159576648535,7.127952499999083,7.172911957997712,12.1261645416637,17.120088290997955,17.120088290997955,17.120088290997955,17.1302146666642,17.120088290997955,22.13018995766494,27.10980379099783,27.10980379099783,27.122836165999615,27.126470457664496,27.122836165999615,32.13207379166512,37.1182292079975,37.1182292079975,37.1182292079975,37.1296095416658,37.1182292079975,42.13055237466348,47.11444933299936,47.11444933299936,47.10882366599981,,,,,,,,,091864,001,2024-07-01_23h26.16.227,5-28,2024.1.4,None,2024-07-01 23h26.21.272468 +0900,
,,,,,,,,,,,,,,,,,,,,,,,,,,,,,,,,,,,,,,,,,,,,,,,,,,,,,,47.108886415997404,47.11444933299936,72.4561939999985,48.10813654099911,,,,,091864,001,2024-07-01_23h26.16.227,5-28,2024.1.4,None,2024-07-01 23h26.21.272468 +0900,
,,,,,,,,,,,,,,,,,,,,,,,,,,,,,,,,,,,,,,,,,,,,,,,,,,,,,,,,,,48.10817691599732,48.108327790996555,,,091864,001,2024-07-01_23h26.16.227,5-28,2024.1.4,None,2024-07-01 23h26.21.272468 +0900,
Images/Speaker1.jpg,Images/Speaker2.jpg,Images/Speaker3.jpg,Images/Speaker4.jpg,Audio/Speaker2_Per/P2-16-Per.wav,Speaker2,گوینده۲,0,0,0,35,,,,,72.4561939999985,,,,,,,,,,,,,,,,,,,,,,,,,,,,,,,,,,,,,,,,,,,,,48.15875154099922,48.15902779099997,091864,001,2024-07-01_23h26.16.227,5-28,2024.1.4,None,2024-07-01 23h26.21.272468 +0900,
Images/Speaker1.jpg,Images/Speaker2.jpg,Images/Speaker3.jpg,Images/Speaker4.jpg,Audio/Speaker2_Per/P2-11-Per.wav,Speaker2,گوینده۲,0,1,1,30,,,,,72.4561939999985,,,,,,,,,,,,,,,,,,,,,,,,,,,,,,,,,,,,,,,,,,,,,48.17735258299945,48.177618957997765,091864,001,2024-07-01_23h26.16.227,5-28,2024.1.4,None,2024-07-01 23h26.21.272468 +0900,
Images/Speaker1.jpg,Images/Speaker2.jpg,Images/Speaker3.jpg,Images/Speaker4.jpg,Audio/Speaker4_Per/P4-11-Per.wav,Speaker4,گوینده۴,0,2,2,70,,,,,72.4561939999985,,,,,,,,,,,,,,,,,,,,,,,,,,,,,,,,,,,,,,,,,,,,,48.19508270799997,48.19529112499731,091864,001,2024-07-01_23h26.16.227,5-28,2024.1.4,None,2024-07-01 23h26.21.272468 +0900,
Images/Speaker1.jpg,Images/Speaker2.jpg,Images/Speaker3.jpg,Images/Speaker4.jpg,Audio/Speaker3_Per/P3-8-Per.wav,Speaker3,گوینده۳,0,3,3,47,,,,,72.4561939999985,,,,,,,,,,,,,,,,,,,,,,,,,,,,,,,,,,,,,,,,,,,,,48.21233891599695,48.2125478329981,091864,001,2024-07-01_23h26.16.227,5-28,2024.1.4,None,2024-07-01 23h26.21.272468 +0900,
Images/Speaker1.jpg,Images/Speaker2.jpg,Images/Speaker3.jpg,Images/Speaker4.jpg,Audio/Speaker3_Per/P3-19-Per.wav,Speaker3,گوینده۳,0,4,4,58,,,,,72.4561939999985,,,,,,,,,,,,,,,,,,,,,,,,,,,,,,,,,,,,,,,,,,,,,48.22883012499733,48.229073999998946,091864,001,2024-07-01_23h26.16.227,5-28,2024.1.4,None,2024-07-01 23h26.21.272468 +0900,
Images/Speaker1.jpg,Images/Speaker2.jpg,Images/Speaker3.jpg,Images/Speaker4.jpg,Audio/Speaker1_Per/P1-12-Per.wav,Speaker1,گوینده ۱,0,5,5,11,,,,,72.4561939999985,,,,,,,,,,,,,,,,,,,,,,,,,,,,,,,,,,,,,,,,,,,,,48.245490874996904,48.245683790999465,091864,001,2024-07-01_23h26.16.227,5-28,2024.1.4,None,2024-07-01 23h26.21.272468 +0900,
Images/Speaker1.jpg,Images/Speaker2.jpg,Images/Speaker3.jpg,Images/Speaker4.jpg,Audio/Speaker4_Per/P4-16-Per.wav,Speaker4,گوینده۴,0,6,6,75,,,,,72.4561939999985,,,,,,,,,,,,,,,,,,,,,,,,,,,,,,,,,,,,,,,,,,,,,48.261796499999036,48.261986499997874,091864,001,2024-07-01_23h26.16.227,5-28,2024.1.4,None,2024-07-01 23h26.21.272468 +0900,
Images/Speaker1.jpg,Images/Speaker2.jpg,Images/Speaker3.jpg,Images/Speaker4.jpg,Audio/Speaker2_Per/P2-6-Per.wav,Speaker2,گوینده۲,0,7,7,25,,,,,72.4561939999985,,,,,,,,,,,,,,,,,,,,,,,,,,,,,,,,,,,,,,,,,,,,,48.27835166599834,48.27852733299733,091864,001,2024-07-01_23h26.16.227,5-28,2024.1.4,None,2024-07-01 23h26.21.272468 +0900,
Images/Speaker1.jpg,Images/Speaker2.jpg,Images/Speaker3.jpg,Images/Speaker4.jpg,Audio/Speaker1_Per/P1-8-Per.wav,Speaker1,گوینده ۱,0,8,8,7,,,,,72.4561939999985,,,,,,,,,,,,,,,,,,,,,,,,,,,,,,,,,,,,,,,,,,,,,48.294443832997786,48.29462424999656,091864,001,2024-07-01_23h26.16.227,5-28,2024.1.4,None,2024-07-01 23h26.21.272468 +0900,
Images/Speaker1.jpg,Images/Speaker2.jpg,Images/Speaker3.jpg,Images/Speaker4.jpg,Audio/Speaker4_Per/P4-20-Per.wav,Speaker4,گوینده۴,0,9,9,79,,,,,72.4561939999985,,,,,,,,,,,,,,,,,,,,,,,,,,,,,,,,,,,,,,,,,,,,,48.31060054099726,48.310789832998125,091864,001,2024-07-01_23h26.16.227,5-28,2024.1.4,None,2024-07-01 23h26.21.272468 +0900,
Images/Speaker1.jpg,Images/Speaker2.jpg,Images/Speaker3.jpg,Images/Speaker4.jpg,Audio/Speaker3_Per/P3-12-Per.wav,Speaker3,گوینده۳,0,10,10,51,,,,,72.4561939999985,,,,,,,,,,,,,,,,,,,,,,,,,,,,,,,,,,,,,,,,,,,,,48.32658216599884,48.326746957998694,091864,001,2024-07-01_23h26.16.227,5-28,2024.1.4,None,2024-07-01 23h26.21.272468 +0900,
Images/Speaker1.jpg,Images/Speaker2.jpg,Images/Speaker3.jpg,Images/Speaker4.jpg,Audio/Speaker1_Per/P1-18-Per.wav,Speaker1,گوینده ۱,0,11,11,17,,,,,72.4561939999985,,,,,,,,,,,,,,,,,,,,,,,,,,,,,,,,,,,,,,,,,,,,,48.34339395799907,48.34356370799651,091864,001,2024-07-01_23h26.16.227,5-28,2024.1.4,None,2024-07-01 23h26.21.272468 +0900,
Images/Speaker1.jpg,Images/Speaker2.jpg,Images/Speaker3.jpg,Images/Speaker4.jpg,Audio/Speaker2_Per/P2-19-Per.wav,Speaker2,گوینده۲,0,12,12,38,,,,,72.4561939999985,,,,,,,,,,,,,,,,,,,,,,,,,,,,,,,,,,,,,,,,,,,,,48.35979116599992,48.359933915999136,091864,001,2024-07-01_23h26.16.227,5-28,2024.1.4,None,2024-07-01 23h26.21.272468 +0900,
Images/Speaker1.jpg,Images/Speaker2.jpg,Images/Speaker3.jpg,Images/Speaker4.jpg,Audio/Speaker1_Per/P1-9-Per.wav,Speaker1,گوینده ۱,0,13,13,8,,,,,72.4561939999985,,,,,,,,,,,,,,,,,,,,,,,,,,,,,,,,,,,,,,,,,,,,,48.3759122909978,48.37611958299749,091864,001,2024-07-01_23h26.16.227,5-28,2024.1.4,None,2024-07-01 23h26.21.272468 +0900,
Images/Speaker1.jpg,Images/Speaker2.jpg,Images/Speaker3.jpg,Images/Speaker4.jpg,Audio/Speaker1_Per/P1-4-Per.wav,Speaker1,گوینده ۱,0,14,14,3,,,,,72.4561939999985,,,,,,,,,,,,,,,,,,,,,,,,,,,,,,,,,,,,,,,,,,,,,48.39210633299808,48.39228816600007,091864,001,2024-07-01_23h26.16.227,5-28,2024.1.4,None,2024-07-01 23h26.21.272468 +0900,
Images/Speaker1.jpg,Images/Speaker2.jpg,Images/Speaker3.jpg,Images/Speaker4.jpg,Audio/Speaker1_Per/P1-2-Per.wav,Speaker1,گوینده ۱,0,15,15,1,,,,,72.4561939999985,,,,,,,,,,,,,,,,,,,,,,,,,,,,,,,,,,,,,,,,,,,,,48.408678124997095,48.40886058299657,091864,001,2024-07-01_23h26.16.227,5-28,2024.1.4,None,2024-07-01 23h26.21.272468 +0900,
Images/Speaker1.jpg,Images/Speaker2.jpg,Images/Speaker3.jpg,Images/Speaker4.jpg,Audio/Speaker2_Per/P2-7-Per.wav,Speaker2,گوینده۲,0,16,16,26,,,,,72.4561939999985,,,,,,,,,,,,,,,,,,,,,,,,,,,,,,,,,,,,,,,,,,,,,48.424921665999136,48.42510283299998,091864,001,2024-07-01_23h26.16.227,5-28,2024.1.4,None,2024-07-01 23h26.21.272468 +0900,
Images/Speaker1.jpg,Images/Speaker2.jpg,Images/Speaker3.jpg,Images/Speaker4.jpg,Audio/Speaker4_Per/P4-15-Per.wav,Speaker4,گوینده۴,0,17,17,74,,,,,72.4561939999985,,,,,,,,,,,,,,,,,,,,,,,,,,,,,,,,,,,,,,,,,,,,,48.440966790996754,48.44113083299817,091864,001,2024-07-01_23h26.16.227,5-28,2024.1.4,None,2024-07-01 23h26.21.272468 +0900,
Images/Speaker1.jpg,Images/Speaker2.jpg,Images/Speaker3.jpg,Images/Speaker4.jpg,Audio/Speaker3_Per/P3-5-Per.wav,Speaker3,گوینده۳,0,18,18,44,,,,,72.4561939999985,,,,,,,,,,,,,,,,,,,,,,,,,,,,,,,,,,,,,,,,,,,,,48.45687129099679,48.45703241599767,091864,001,2024-07-01_23h26.16.227,5-28,2024.1.4,None,2024-07-01 23h26.21.272468 +0900,
Images/Speaker1.jpg,Images/Speaker2.jpg,Images/Speaker3.jpg,Images/Speaker4.jpg,Audio/Speaker2_Per/P2-5-Per.wav,Speaker2,گوینده۲,0,19,19,24,,,,,72.4561939999985,,,,,,,,,,,,,,,,,,,,,,,,,,,,,,,,,,,,,,,,,,,,,48.473370040999725,48.47354724999968,091864,001,2024-07-01_23h26.16.227,5-28,2024.1.4,None,2024-07-01 23h26.21.272468 +0900,
Images/Speaker1.jpg,Images/Speaker2.jpg,Images/Speaker3.jpg,Images/Speaker4.jpg,Audio/Speaker4_Per/P4-10-Per.wav,Speaker4,گوینده۴,0,20,20,69,,,,,72.4561939999985,,,,,,,,,,,,,,,,,,,,,,,,,,,,,,,,,,,,,,,,,,,,,48.4894718329997,48.489640624997264,091864,001,2024-07-01_23h26.16.227,5-28,2024.1.4,None,2024-07-01 23h26.21.272468 +0900,
Images/Speaker1.jpg,Images/Speaker2.jpg,Images/Speaker3.jpg,Images/Speaker4.jpg,Audio/Speaker1_Per/P1-5-Per.wav,Speaker1,گوینده ۱,0,21,21,4,,,,,72.4561939999985,,,,,,,,,,,,,,,,,,,,,,,,,,,,,,,,,,,,,,,,,,,,,48.505514832999324,48.50569520799763,091864,001,2024-07-01_23h26.16.227,5-28,2024.1.4,None,2024-07-01 23h26.21.272468 +0900,
Images/Speaker1.jpg,Images/Speaker2.jpg,Images/Speaker3.jpg,Images/Speaker4.jpg,Audio/Speaker3_Per/P3-4-Per.wav,Speaker3,گوینده۳,0,22,22,43,,,,,72.4561939999985,,,,,,,,,,,,,,,,,,,,,,,,,,,,,,,,,,,,,,,,,,,,,48.52147191599943,48.52164979099689,091864,001,2024-07-01_23h26.16.227,5-28,2024.1.4,None,2024-07-01 23h26.21.272468 +0900,
Images/Speaker1.jpg,Images/Speaker2.jpg,Images/Speaker3.jpg,Images/Speaker4.jpg,Audio/Speaker2_Per/P2-4-Per.wav,Speaker2,گوینده۲,0,23,23,23,,,,,72.4561939999985,,,,,,,,,,,,,,,,,,,,,,,,,,,,,,,,,,,,,,,,,,,,,48.537961415997415,48.53819879099683,091864,001,2024-07-01_23h26.16.227,5-28,2024.1.4,None,2024-07-01 23h26.21.272468 +0900,
Images/Speaker1.jpg,Images/Speaker2.jpg,Images/Speaker3.jpg,Images/Speaker4.jpg,Audio/Speaker3_Per/P3-7-Per.wav,Speaker3,گوینده۳,0,24,24,46,,,,,72.4561939999985,,,,,,,,,,,,,,,,,,,,,,,,,,,,,,,,,,,,,,,,,,,,,48.55428362499879,48.55445433299974,091864,001,2024-07-01_23h26.16.227,5-28,2024.1.4,None,2024-07-01 23h26.21.272468 +0900,
Images/Speaker1.jpg,Images/Speaker2.jpg,Images/Speaker3.jpg,Images/Speaker4.jpg,Audio/Speaker3_Per/P3-20-Per.wav,Speaker3,گوینده۳,0,25,25,59,,,,,72.4561939999985,,,,,,,,,,,,,,,,,,,,,,,,,,,,,,,,,,,,,,,,,,,,,48.57027604099858,48.57043804099885,091864,001,2024-07-01_23h26.16.227,5-28,2024.1.4,None,2024-07-01 23h26.21.272468 +0900,
Images/Speaker1.jpg,Images/Speaker2.jpg,Images/Speaker3.jpg,Images/Speaker4.jpg,Audio/Speaker2_Per/P2-1-Per.wav,Speaker2,گوینده۲,0,26,26,20,,,,,72.4561939999985,,,,,,,,,,,,,,,,,,,,,,,,,,,,,,,,,,,,,,,,,,,,,48.58665791599924,48.586818374998984,091864,001,2024-07-01_23h26.16.227,5-28,2024.1.4,None,2024-07-01 23h26.21.272468 +0900,
Images/Speaker1.jpg,Images/Speaker2.jpg,Images/Speaker3.jpg,Images/Speaker4.jpg,Audio/Speaker4_Per/P4-19-Per.wav,Speaker4,گوینده۴,0,27,27,78,,,,,72.4561939999985,,,,,,,,,,,,,,,,,,,,,,,,,,,,,,,,,,,,,,,,,,,,,48.60303337499863,48.60323354099819,091864,001,2024-07-01_23h26.16.227,5-28,2024.1.4,None,2024-07-01 23h26.21.272468 +0900,
Images/Speaker1.jpg,Images/Speaker2.jpg,Images/Speaker3.jpg,Images/Speaker4.jpg,Audio/Speaker1_Per/P1-11-Per.wav,Speaker1,گوینده ۱,0,28,28,10,,,,,72.4561939999985,,,,,,,,,,,,,,,,,,,,,,,,,,,,,,,,,,,,,,,,,,,,,48.61923141599982,48.61943683299978,091864,001,2024-07-01_23h26.16.227,5-28,2024.1.4,None,2024-07-01 23h26.21.272468 +0900,
Images/Speaker1.jpg,Images/Speaker2.jpg,Images/Speaker3.jpg,Images/Speaker4.jpg,Audio/Speaker3_Per/P3-11-Per.wav,Speaker3,گوینده۳,0,29,29,50,,,,,72.4561939999985,,,,,,,,,,,,,,,,,,,,,,,,,,,,,,,,,,,,,,,,,,,,,48.635271624996676,48.63548954099679,091864,001,2024-07-01_23h26.16.227,5-28,2024.1.4,None,2024-07-01 23h26.21.272468 +0900,
Images/Speaker1.jpg,Images/Speaker2.jpg,Images/Speaker3.jpg,Images/Speaker4.jpg,Audio/Speaker2_Per/P2-9-Per.wav,Speaker2,گوینده۲,0,30,30,28,,,,,72.4561939999985,,,,,,,,,,,,,,,,,,,,,,,,,,,,,,,,,,,,,,,,,,,,,48.65133491599772,48.65153899999859,091864,001,2024-07-01_23h26.16.227,5-28,2024.1.4,None,2024-07-01 23h26.21.272468 +0900,
Images/Speaker1.jpg,Images/Speaker2.jpg,Images/Speaker3.jpg,Images/Speaker4.jpg,Audio/Speaker4_Per/P4-2-Per.wav,Speaker4,گوینده۴,0,31,31,61,,,,,72.4561939999985,,,,,,,,,,,,,,,,,,,,,,,,,,,,,,,,,,,,,,,,,,,,,48.66783249999935,48.66801345799831,091864,001,2024-07-01_23h26.16.227,5-28,2024.1.4,None,2024-07-01 23h26.21.272468 +0900,
Images/Speaker1.jpg,Images/Speaker2.jpg,Images/Speaker3.jpg,Images/Speaker4.jpg,Audio/Speaker1_Per/P1-3-Per.wav,Speaker1,گوینده ۱,0,32,32,2,,,,,72.4561939999985,,,,,,,,,,,,,,,,,,,,,,,,,,,,,,,,,,,,,,,,,,,,,48.68405891599832,48.68424524999864,091864,001,2024-07-01_23h26.16.227,5-28,2024.1.4,None,2024-07-01 23h26.21.272468 +0900,
Images/Speaker1.jpg,Images/Speaker2.jpg,Images/Speaker3.jpg,Images/Speaker4.jpg,Audio/Speaker4_Per/P4-17-Per.wav,Speaker4,گوینده۴,0,33,33,76,,,,,72.4561939999985,,,,,,,,,,,,,,,,,,,,,,,,,,,,,,,,,,,,,,,,,,,,,48.700417582997034,48.70061724999687,091864,001,2024-07-01_23h26.16.227,5-28,2024.1.4,None,2024-07-01 23h26.21.272468 +0900,
Images/Speaker1.jpg,Images/Speaker2.jpg,Images/Speaker3.jpg,Images/Speaker4.jpg,Audio/Speaker3_Per/P3-10-Per.wav,Speaker3,گوینده۳,0,34,34,49,,,,,72.4561939999985,,,,,,,,,,,,,,,,,,,,,,,,,,,,,,,,,,,,,,,,,,,,,48.71655699999974,48.71671533299741,091864,001,2024-07-01_23h26.16.227,5-28,2024.1.4,None,2024-07-01 23h26.21.272468 +0900,
Images/Speaker1.jpg,Images/Speaker2.jpg,Images/Speaker3.jpg,Images/Speaker4.jpg,Audio/Speaker4_Per/P4-14-Per.wav,Speaker4,گوینده۴,0,35,35,73,,,,,72.4561939999985,,,,,,,,,,,,,,,,,,,,,,,,,,,,,,,,,,,,,,,,,,,,,48.73294937499668,48.733109999997396,091864,001,2024-07-01_23h26.16.227,5-28,2024.1.4,None,2024-07-01 23h26.21.272468 +0900,
Images/Speaker1.jpg,Images/Speaker2.jpg,Images/Speaker3.jpg,Images/Speaker4.jpg,Audio/Speaker1_Per/P1-6-Per.wav,Speaker1,گوینده ۱,0,36,36,5,,,,,72.4561939999985,,,,,,,,,,,,,,,,,,,,,,,,,,,,,,,,,,,,,,,,,,,,,48.74909904099695,48.74926779099769,091864,001,2024-07-01_23h26.16.227,5-28,2024.1.4,None,2024-07-01 23h26.21.272468 +0900,
Images/Speaker1.jpg,Images/Speaker2.jpg,Images/Speaker3.jpg,Images/Speaker4.jpg,Audio/Speaker1_Per/P1-1-Per.wav,Speaker1,گوینده ۱,0,37,37,0,,,,,72.4561939999985,,,,,,,,,,,,,,,,,,,,,,,,,,,,,,,,,,,,,,,,,,,,,48.765132957996684,48.7653517079998,091864,001,2024-07-01_23h26.16.227,5-28,2024.1.4,None,2024-07-01 23h26.21.272468 +0900,
Images/Speaker1.jpg,Images/Speaker2.jpg,Images/Speaker3.jpg,Images/Speaker4.jpg,Audio/Speaker3_Per/P3-1-Per.wav,Speaker3,گوینده۳,0,38,38,40,,,,,72.4561939999985,,,,,,,,,,,,,,,,,,,,,,,,,,,,,,,,,,,,,,,,,,,,,48.78116458299701,48.78131329099779,091864,001,2024-07-01_23h26.16.227,5-28,2024.1.4,None,2024-07-01 23h26.21.272468 +0900,
Images/Speaker1.jpg,Images/Speaker2.jpg,Images/Speaker3.jpg,Images/Speaker4.jpg,Audio/Speaker1_Per/P1-20-Per.wav,Speaker1,گوینده ۱,0,39,39,19,,,,,72.4561939999985,,,,,,,,,,,,,,,,,,,,,,,,,,,,,,,,,,,,,,,,,,,,,48.79755295799987,48.79771470799824,091864,001,2024-07-01_23h26.16.227,5-28,2024.1.4,None,2024-07-01 23h26.21.272468 +0900,
Images/Speaker1.jpg,Images/Speaker2.jpg,Images/Speaker3.jpg,Images/Speaker4.jpg,Audio/Speaker3_Per/P3-3-Per.wav,Speaker3,گوینده۳,0,40,40,42,,,,,72.4561939999985,,,,,,,,,,,,,,,,,,,,,,,,,,,,,,,,,,,,,,,,,,,,,48.813620124998124,48.813791832999414,091864,001,2024-07-01_23h26.16.227,5-28,2024.1.4,None,2024-07-01 23h26.21.272468 +0900,
Images/Speaker1.jpg,Images/Speaker2.jpg,Images/Speaker3.jpg,Images/Speaker4.jpg,Audio/Speaker1_Per/P1-7-Per.wav,Speaker1,گوینده ۱,0,41,41,6,,,,,72.4561939999985,,,,,,,,,,,,,,,,,,,,,,,,,,,,,,,,,,,,,,,,,,,,,48.829672500000015,48.829841165999824,091864,001,2024-07-01_23h26.16.227,5-28,2024.1.4,None,2024-07-01 23h26.21.272468 +0900,
Images/Speaker1.jpg,Images/Speaker2.jpg,Images/Speaker3.jpg,Images/Speaker4.jpg,Audio/Speaker3_Per/P3-6-Per.wav,Speaker3,گوینده۳,0,42,42,45,,,,,72.4561939999985,,,,,,,,,,,,,,,,,,,,,,,,,,,,,,,,,,,,,,,,,,,,,48.84573195799749,48.84587866599759,091864,001,2024-07-01_23h26.16.227,5-28,2024.1.4,None,2024-07-01 23h26.21.272468 +0900,
Images/Speaker1.jpg,Images/Speaker2.jpg,Images/Speaker3.jpg,Images/Speaker4.jpg,Audio/Speaker1_Per/P1-4-Per.wav,Speaker1,گوینده ۱,0,43,43,13,,,,,72.4561939999985,,,,,,,,,,,,,,,,,,,,,,,,,,,,,,,,,,,,,,,,,,,,,48.86216487499769,48.8623509579993,091864,001,2024-07-01_23h26.16.227,5-28,2024.1.4,None,2024-07-01 23h26.21.272468 +0900,
Images/Speaker1.jpg,Images/Speaker2.jpg,Images/Speaker3.jpg,Images/Speaker4.jpg,Audio/Speaker2_Per/P2-18-Per.wav,Speaker2,گوینده۲,0,44,44,37,,,,,72.4561939999985,,,,,,,,,,,,,,,,,,,,,,,,,,,,,,,,,,,,,,,,,,,,,48.87819833299727,48.87835924999672,091864,001,2024-07-01_23h26.16.227,5-28,2024.1.4,None,2024-07-01 23h26.21.272468 +0900,
Images/Speaker1.jpg,Images/Speaker2.jpg,Images/Speaker3.jpg,Images/Speaker4.jpg,Audio/Speaker2_Per/P2-17-Per.wav,Speaker2,گوینده۲,0,45,45,36,,,,,72.4561939999985,,,,,,,,,,,,,,,,,,,,,,,,,,,,,,,,,,,,,,,,,,,,,48.89415412499875,48.894309165996674,091864,001,2024-07-01_23h26.16.227,5-28,2024.1.4,None,2024-07-01 23h26.21.272468 +0900,
Images/Speaker1.jpg,Images/Speaker2.jpg,Images/Speaker3.jpg,Images/Speaker4.jpg,Audio/Speaker3_Per/P3-17-Per.wav,Speaker3,گوینده۳,0,46,46,56,,,,,72.4561939999985,,,,,,,,,,,,,,,,,,,,,,,,,,,,,,,,,,,,,,,,,,,,,48.91001675000007,48.91016570799911,091864,001,2024-07-01_23h26.16.227,5-28,2024.1.4,None,2024-07-01 23h26.21.272468 +0900,
Images/Speaker1.jpg,Images/Speaker2.jpg,Images/Speaker3.jpg,Images/Speaker4.jpg,Audio/Speaker3_Per/P3-18-Per.wav,Speaker3,گوینده۳,0,47,47,57,,,,,72.4561939999985,,,,,,,,,,,,,,,,,,,,,,,,,,,,,,,,,,,,,,,,,,,,,48.926391915996646,48.92655362499863,091864,001,2024-07-01_23h26.16.227,5-28,2024.1.4,None,2024-07-01 23h26.21.272468 +0900,
Images/Speaker1.jpg,Images/Speaker2.jpg,Images/Speaker3.jpg,Images/Speaker4.jpg,Audio/Speaker2_Per/P2-10-Per.wav,Speaker2,گوینده۲,0,48,48,29,,,,,72.4561939999985,,,,,,,,,,,,,,,,,,,,,,,,,,,,,,,,,,,,,,,,,,,,,48.942418207996525,48.94265929099856,091864,001,2024-07-01_23h26.16.227,5-28,2024.1.4,None,2024-07-01 23h26.21.272468 +0900,
Images/Speaker1.jpg,Images/Speaker2.jpg,Images/Speaker3.jpg,Images/Speaker4.jpg,Audio/Speaker2_Per/P2-13-Per.wav,Speaker2,گوینده۲,0,49,49,32,,,,,72.4561939999985,,,,,,,,,,,,,,,,,,,,,,,,,,,,,,,,,,,,,,,,,,,,,48.958760290999635,48.958920499997475,091864,001,2024-07-01_23h26.16.227,5-28,2024.1.4,None,2024-07-01 23h26.21.272468 +0900,
Images/Speaker1.jpg,Images/Speaker2.jpg,Images/Speaker3.jpg,Images/Speaker4.jpg,Audio/Speaker4_Per/P4-3-Per.wav,Speaker4,گوینده۴,0,50,50,62,,,,,72.4561939999985,,,,,,,,,,,,,,,,,,,,,,,,,,,,,,,,,,,,,,,,,,,,,48.97481916600009,48.97499079099725,091864,001,2024-07-01_23h26.16.227,5-28,2024.1.4,None,2024-07-01 23h26.21.272468 +0900,
Images/Speaker1.jpg,Images/Speaker2.jpg,Images/Speaker3.jpg,Images/Speaker4.jpg,Audio/Speaker3_Per/P3-14-Per.wav,Speaker3,گوینده۳,0,51,51,53,,,,,72.4561939999985,,,,,,,,,,,,,,,,,,,,,,,,,,,,,,,,,,,,,,,,,,,,,48.991205040998466,48.99139524999919,091864,001,2024-07-01_23h26.16.227,5-28,2024.1.4,None,2024-07-01 23h26.21.272468 +0900,
Images/Speaker1.jpg,Images/Speaker2.jpg,Images/Speaker3.jpg,Images/Speaker4.jpg,Audio/Speaker4_Per/P4-9-Per.wav,Speaker4,گوینده۴,0,52,52,68,,,,,72.4561939999985,,,,,,,,,,,,,,,,,,,,,,,,,,,,,,,,,,,,,,,,,,,,,49.00724479099881,49.0074207079997,091864,001,2024-07-01_23h26.16.227,5-28,2024.1.4,None,2024-07-01 23h26.21.272468 +0900,
Images/Speaker1.jpg,Images/Speaker2.jpg,Images/Speaker3.jpg,Images/Speaker4.jpg,Audio/Speaker2_Per/P2-8-Per.wav,Speaker2,گوینده۲,0,53,53,27,,,,,72.4561939999985,,,,,,,,,,,,,,,,,,,,,,,,,,,,,,,,,,,,,,,,,,,,,49.02335658299853,49.023583499998495,091864,001,2024-07-01_23h26.16.227,5-28,2024.1.4,None,2024-07-01 23h26.21.272468 +0900,
Images/Speaker1.jpg,Images/Speaker2.jpg,Images/Speaker3.jpg,Images/Speaker4.jpg,Audio/Speaker3_Per/P3-16-Per.wav,Speaker3,گوینده۳,0,54,54,55,,,,,72.4561939999985,,,,,,,,,,,,,,,,,,,,,,,,,,,,,,,,,,,,,,,,,,,,,49.03944520799996,49.039642457999435,091864,001,2024-07-01_23h26.16.227,5-28,2024.1.4,None,2024-07-01 23h26.21.272468 +0900,
Images/Speaker1.jpg,Images/Speaker2.jpg,Images/Speaker3.jpg,Images/Speaker4.jpg,Audio/Speaker4_Per/P4-18-Per.wav,Speaker4,گوینده۴,0,55,55,77,,,,,72.4561939999985,,,,,,,,,,,,,,,,,,,,,,,,,,,,,,,,,,,,,,,,,,,,,49.05589491599676,49.05608204099917,091864,001,2024-07-01_23h26.16.227,5-28,2024.1.4,None,2024-07-01 23h26.21.272468 +0900,
Images/Speaker1.jpg,Images/Speaker2.jpg,Images/Speaker3.jpg,Images/Speaker4.jpg,Audio/Speaker1_Per/P1-16-Per.wav,Speaker1,گوینده ۱,0,56,56,15,,,,,72.4561939999985,,,,,,,,,,,,,,,,,,,,,,,,,,,,,,,,,,,,,,,,,,,,,49.07193799999732,49.07209512499685,091864,001,2024-07-01_23h26.16.227,5-28,2024.1.4,None,2024-07-01 23h26.21.272468 +0900,
Images/Speaker1.jpg,Images/Speaker2.jpg,Images/Speaker3.jpg,Images/Speaker4.jpg,Audio/Speaker3_Per/P3-15-Per.wav,Speaker3,گوینده۳,0,57,57,54,,,,,72.4561939999985,,,,,,,,,,,,,,,,,,,,,,,,,,,,,,,,,,,,,,,,,,,,,49.08790937499725,49.0880754159989,091864,001,2024-07-01_23h26.16.227,5-28,2024.1.4,None,2024-07-01 23h26.21.272468 +0900,
Images/Speaker1.jpg,Images/Speaker2.jpg,Images/Speaker3.jpg,Images/Speaker4.jpg,Audio/Speaker1_Per/P1-10-Per.wav,Speaker1,گوینده ۱,0,58,58,9,,,,,72.4561939999985,,,,,,,,,,,,,,,,,,,,,,,,,,,,,,,,,,,,,,,,,,,,,49.10383274999913,49.104026415996486,091864,001,2024-07-01_23h26.16.227,5-28,2024.1.4,None,2024-07-01 23h26.21.272468 +0900,
Images/Speaker1.jpg,Images/Speaker2.jpg,Images/Speaker3.jpg,Images/Speaker4.jpg,Audio/Speaker2_Per/P2-3-Per.wav,Speaker2,گوینده۲,0,59,59,22,,,,,72.4561939999985,,,,,,,,,,,,,,,,,,,,,,,,,,,,,,,,,,,,,,,,,,,,,49.12025149999681,49.12042733299677,091864,001,2024-07-01_23h26.16.227,5-28,2024.1.4,None,2024-07-01 23h26.21.272468 +0900,
Images/Speaker1.jpg,Images/Speaker2.jpg,Images/Speaker3.jpg,Images/Speaker4.jpg,Audio/Speaker4_Per/P4-7-Per.wav,Speaker4,گوینده۴,0,60,60,66,,,,,72.4561939999985,,,,,,,,,,,,,,,,,,,,,,,,,,,,,,,,,,,,,,,,,,,,,49.1362439159966,49.136405707999074,091864,001,2024-07-01_23h26.16.227,5-28,2024.1.4,None,2024-07-01 23h26.21.272468 +0900,
Images/Speaker1.jpg,Images/Speaker2.jpg,Images/Speaker3.jpg,Images/Speaker4.jpg,Audio/Speaker2_Per/P2-15-Per.wav,Speaker2,گوینده۲,0,61,61,34,,,,,72.4561939999985,,,,,,,,,,,,,,,,,,,,,,,,,,,,,,,,,,,,,,,,,,,,,49.15231070799928,49.15250062499763,091864,001,2024-07-01_23h26.16.227,5-28,2024.1.4,None,2024-07-01 23h26.21.272468 +0900,
Images/Speaker1.jpg,Images/Speaker2.jpg,Images/Speaker3.jpg,Images/Speaker4.jpg,Audio/Speaker2_Per/P2-12-Per.wav,Speaker2,گوینده۲,0,62,62,31,,,,,72.4561939999985,,,,,,,,,,,,,,,,,,,,,,,,,,,,,,,,,,,,,,,,,,,,,49.16840724999929,49.16857945799711,091864,001,2024-07-01_23h26.16.227,5-28,2024.1.4,None,2024-07-01 23h26.21.272468 +0900,
Images/Speaker1.jpg,Images/Speaker2.jpg,Images/Speaker3.jpg,Images/Speaker4.jpg,Audio/Speaker3_Per/P3-13-Per.wav,Speaker3,گوینده۳,0,63,63,52,,,,,72.4561939999985,,,,,,,,,,,,,,,,,,,,,,,,,,,,,,,,,,,,,,,,,,,,,49.23505308299718,49.235339582999586,091864,001,2024-07-01_23h26.16.227,5-28,2024.1.4,None,2024-07-01 23h26.21.272468 +0900,
Images/Speaker1.jpg,Images/Speaker2.jpg,Images/Speaker3.jpg,Images/Speaker4.jpg,Audio/Speaker2_Per/P2-14-Per.wav,Speaker2,گوینده۲,0,64,64,33,,,,,72.4561939999985,,,,,,,,,,,,,,,,,,,,,,,,,,,,,,,,,,,,,,,,,,,,,49.25157420799951,49.251763165997545,091864,001,2024-07-01_23h26.16.227,5-28,2024.1.4,None,2024-07-01 23h26.21.272468 +0900,
Images/Speaker1.jpg,Images/Speaker2.jpg,Images/Speaker3.jpg,Images/Speaker4.jpg,Audio/Speaker3_Per/P3-2-Per.wav,Speaker3,گوینده۳,0,65,65,41,,,,,72.4561939999985,,,,,,,,,,,,,,,,,,,,,,,,,,,,,,,,,,,,,,,,,,,,,49.26758241599964,49.267767582998204,091864,001,2024-07-01_23h26.16.227,5-28,2024.1.4,None,2024-07-01 23h26.21.272468 +0900,
Images/Speaker1.jpg,Images/Speaker2.jpg,Images/Speaker3.jpg,Images/Speaker4.jpg,Audio/Speaker1_Per/P1-19-Per.wav,Speaker1,گوینده ۱,0,66,66,18,,,,,72.4561939999985,,,,,,,,,,,,,,,,,,,,,,,,,,,,,,,,,,,,,,,,,,,,,49.284052207996865,49.28422262499953,091864,001,2024-07-01_23h26.16.227,5-28,2024.1.4,None,2024-07-01 23h26.21.272468 +0900,
Images/Speaker1.jpg,Images/Speaker2.jpg,Images/Speaker3.jpg,Images/Speaker4.jpg,Audio/Speaker3_Per/P3-9-Per.wav,Speaker3,گوینده۳,0,67,67,48,,,,,72.4561939999985,,,,,,,,,,,,,,,,,,,,,,,,,,,,,,,,,,,,,,,,,,,,,49.300107999999454,49.30028616599884,091864,001,2024-07-01_23h26.16.227,5-28,2024.1.4,None,2024-07-01 23h26.21.272468 +0900,
Images/Speaker1.jpg,Images/Speaker2.jpg,Images/Speaker3.jpg,Images/Speaker4.jpg,Audio/Speaker1_Per/P1-17-Per.wav,Speaker1,گوینده ۱,0,68,68,16,,,,,72.4561939999985,,,,,,,,,,,,,,,,,,,,,,,,,,,,,,,,,,,,,,,,,,,,,49.31606066599852,49.31624420799926,091864,001,2024-07-01_23h26.16.227,5-28,2024.1.4,None,2024-07-01 23h26.21.272468 +0900,
Images/Speaker1.jpg,Images/Speaker2.jpg,Images/Speaker3.jpg,Images/Speaker4.jpg,Audio/Speaker4_Per/P4-8-Per.wav,Speaker4,گوینده۴,0,69,69,67,,,,,72.4561939999985,,,,,,,,,,,,,,,,,,,,,,,,,,,,,,,,,,,,,,,,,,,,,49.332019165998645,49.332237165999686,091864,001,2024-07-01_23h26.16.227,5-28,2024.1.4,None,2024-07-01 23h26.21.272468 +0900,
Images/Speaker1.jpg,Images/Speaker2.jpg,Images/Speaker3.jpg,Images/Speaker4.jpg,Audio/Speaker4_Per/P4-12-Per.wav,Speaker4,گوینده۴,0,70,70,71,,,,,72.4561939999985,,,,,,,,,,,,,,,,,,,,,,,,,,,,,,,,,,,,,,,,,,,,,49.34861212499891,49.3487913329991,091864,001,2024-07-01_23h26.16.227,5-28,2024.1.4,None,2024-07-01 23h26.21.272468 +0900,
Images/Speaker1.jpg,Images/Speaker2.jpg,Images/Speaker3.jpg,Images/Speaker4.jpg,Audio/Speaker2_Per/P2-20-Per.wav,Speaker2,گوینده۲,0,71,71,39,,,,,72.4561939999985,,,,,,,,,,,,,,,,,,,,,,,,,,,,,,,,,,,,,,,,,,,,,49.36457170799986,49.36474491599802,091864,001,2024-07-01_23h26.16.227,5-28,2024.1.4,None,2024-07-01 23h26.21.272468 +0900,
Images/Speaker1.jpg,Images/Speaker2.jpg,Images/Speaker3.jpg,Images/Speaker4.jpg,Audio/Speaker2_Per/P2-2-Per.wav,Speaker2,گوینده۲,0,72,72,21,,,,,72.4561939999985,,,,,,,,,,,,,,,,,,,,,,,,,,,,,,,,,,,,,,,,,,,,,49.380429624998214,49.38059691599847,091864,001,2024-07-01_23h26.16.227,5-28,2024.1.4,None,2024-07-01 23h26.21.272468 +0900,
Images/Speaker1.jpg,Images/Speaker2.jpg,Images/Speaker3.jpg,Images/Speaker4.jpg,Audio/Speaker4_Per/P4-4-Per.wav,Speaker4,گوینده۴,0,73,73,63,,,,,72.4561939999985,,,,,,,,,,,,,,,,,,,,,,,,,,,,,,,,,,,,,,,,,,,,,49.39635695799734,49.396515332999115,091864,001,2024-07-01_23h26.16.227,5-28,2024.1.4,None,2024-07-01 23h26.21.272468 +0900,
Images/Speaker1.jpg,Images/Speaker2.jpg,Images/Speaker3.jpg,Images/Speaker4.jpg,Audio/Speaker4_Per/P4-1-Per.wav,Speaker4,گوینده۴,0,74,74,60,,,,,72.4561939999985,,,,,,,,,,,,,,,,,,,,,,,,,,,,,,,,,,,,,,,,,,,,,49.41279258299983,49.41297433299769,091864,001,2024-07-01_23h26.16.227,5-28,2024.1.4,None,2024-07-01 23h26.21.272468 +0900,
Images/Speaker1.jpg,Images/Speaker2.jpg,Images/Speaker3.jpg,Images/Speaker4.jpg,Audio/Speaker1_Per/P1-15-Per.wav,Speaker1,گوینده ۱,0,75,75,14,,,,,72.4561939999985,,,,,,,,,,,,,,,,,,,,,,,,,,,,,,,,,,,,,,,,,,,,,49.4288979999983,49.429110874996695,091864,001,2024-07-01_23h26.16.227,5-28,2024.1.4,None,2024-07-01 23h26.21.272468 +0900,
Images/Speaker1.jpg,Images/Speaker2.jpg,Images/Speaker3.jpg,Images/Speaker4.jpg,Audio/Speaker1_Per/P1-13-Per.wav,Speaker1,گوینده ۱,0,76,76,12,,,,,72.4561939999985,,,,,,,,,,,,,,,,,,,,,,,,,,,,,,,,,,,,,,,,,,,,,49.4448546249987,49.4450059999981,091864,001,2024-07-01_23h26.16.227,5-28,2024.1.4,None,2024-07-01 23h26.21.272468 +0900,
Images/Speaker1.jpg,Images/Speaker2.jpg,Images/Speaker3.jpg,Images/Speaker4.jpg,Audio/Speaker4_Per/P4-13-Per.wav,Speaker4,گوینده۴,0,77,77,72,,,,,72.4561939999985,,,,,,,,,,,,,,,,,,,,,,,,,,,,,,,,,,,,,,,,,,,,,49.460736707998876,49.460889832997054,091864,001,2024-07-01_23h26.16.227,5-28,2024.1.4,None,2024-07-01 23h26.21.272468 +0900,
Images/Speaker1.jpg,Images/Speaker2.jpg,Images/Speaker3.jpg,Images/Speaker4.jpg,Audio/Speaker4_Per/P4-6-Per.wav,Speaker4,گوینده۴,0,78,78,65,,,,,72.4561939999985,,,,,,,,,,,,,,,,,,,,,,,,,,,,,,,,,,,,,,,,,,,,,49.477312125000026,49.477478040997084,091864,001,2024-07-01_23h26.16.227,5-28,2024.1.4,None,2024-07-01 23h26.21.272468 +0900,
Images/Speaker1.jpg,Images/Speaker2.jpg,Images/Speaker3.jpg,Images/Speaker4.jpg,Audio/Speaker4_Per/P4-5-Per.wav,Speaker4,گوینده۴,0,79,79,64,,,,,72.4561939999985,,,,,,,,,,,,,,,,,,,,,,,,,,,,,,,,,,,,,,,,,,,,,49.49337949999972,49.49360662499748,091864,001,2024-07-01_23h26.16.227,5-28,2024.1.4,None,2024-07-01 23h26.21.272468 +0900,
Images/Speaker1.jpg,Images/Speaker2.jpg,Images/Speaker3.jpg,Images/Speaker4.jpg,Audio/Speaker3_Per/P3-13-Per.wav,Speaker3,گوینده۳,1,0,80,52,,,,,72.4561939999985,,,,,,,,,,,,,,,,,,,,,,,,,,,,,,,,,,,,,,,,,,,,,49.509365457997774,49.50956995799788,091864,001,2024-07-01_23h26.16.227,5-28,2024.1.4,None,2024-07-01 23h26.21.272468 +0900,
Images/Speaker1.jpg,Images/Speaker2.jpg,Images/Speaker3.jpg,Images/Speaker4.jpg,Audio/Speaker2_Per/P2-7-Per.wav,Speaker2,گوینده۲,1,1,81,26,,,,,72.4561939999985,,,,,,,,,,,,,,,,,,,,,,,,,,,,,,,,,,,,,,,,,,,,,49.52538445799655,49.52559787499922,091864,001,2024-07-01_23h26.16.227,5-28,2024.1.4,None,2024-07-01 23h26.21.272468 +0900,
Images/Speaker1.jpg,Images/Speaker2.jpg,Images/Speaker3.jpg,Images/Speaker4.jpg,Audio/Speaker1_Per/P1-6-Per.wav,Speaker1,گوینده ۱,1,2,82,5,,,,,72.4561939999985,,,,,,,,,,,,,,,,,,,,,,,,,,,,,,,,,,,,,,,,,,,,,49.542009749999124,49.54218429100001,091864,001,2024-07-01_23h26.16.227,5-28,2024.1.4,None,2024-07-01 23h26.21.272468 +0900,
Images/Speaker1.jpg,Images/Speaker2.jpg,Images/Speaker3.jpg,Images/Speaker4.jpg,Audio/Speaker1_Per/P1-13-Per.wav,Speaker1,گوینده ۱,1,3,83,12,,,,,72.4561939999985,,,,,,,,,,,,,,,,,,,,,,,,,,,,,,,,,,,,,,,,,,,,,49.558016957998916,49.55819212499773,091864,001,2024-07-01_23h26.16.227,5-28,2024.1.4,None,2024-07-01 23h26.21.272468 +0900,
Images/Speaker1.jpg,Images/Speaker2.jpg,Images/Speaker3.jpg,Images/Speaker4.jpg,Audio/Speaker2_Per/P2-2-Per.wav,Speaker2,گوینده۲,1,4,84,21,,,,,72.4561939999985,,,,,,,,,,,,,,,,,,,,,,,,,,,,,,,,,,,,,,,,,,,,,49.573947540997324,49.57411724999838,091864,001,2024-07-01_23h26.16.227,5-28,2024.1.4,None,2024-07-01 23h26.21.272468 +0900,
Images/Speaker1.jpg,Images/Speaker2.jpg,Images/Speaker3.jpg,Images/Speaker4.jpg,Audio/Speaker4_Per/P4-20-Per.wav,Speaker4,گوینده۴,1,5,85,79,,,,,72.4561939999985,,,,,,,,,,,,,,,,,,,,,,,,,,,,,,,,,,,,,,,,,,,,,49.58986358299808,49.590038290996745,091864,001,2024-07-01_23h26.16.227,5-28,2024.1.4,None,2024-07-01 23h26.21.272468 +0900,
Images/Speaker1.jpg,Images/Speaker2.jpg,Images/Speaker3.jpg,Images/Speaker4.jpg,Audio/Speaker3_Per/P3-18-Per.wav,Speaker3,گوینده۳,1,6,86,57,,,,,72.4561939999985,,,,,,,,,,,,,,,,,,,,,,,,,,,,,,,,,,,,,,,,,,,,,49.606388958000025,49.60655762499664,091864,001,2024-07-01_23h26.16.227,5-28,2024.1.4,None,2024-07-01 23h26.21.272468 +0900,
Images/Speaker1.jpg,Images/Speaker2.jpg,Images/Speaker3.jpg,Images/Speaker4.jpg,Audio/Speaker1_Per/P1-10-Per.wav,Speaker1,گوینده ۱,1,7,87,9,,,,,72.4561939999985,,,,,,,,,,,,,,,,,,,,,,,,,,,,,,,,,,,,,,,,,,,,,49.622479915997246,49.62267466599951,091864,001,2024-07-01_23h26.16.227,5-28,2024.1.4,None,2024-07-01 23h26.21.272468 +0900,
Images/Speaker1.jpg,Images/Speaker2.jpg,Images/Speaker3.jpg,Images/Speaker4.jpg,Audio/Speaker1_Per/P1-16-Per.wav,Speaker1,گوینده ۱,1,8,88,15,,,,,72.4561939999985,,,,,,,,,,,,,,,,,,,,,,,,,,,,,,,,,,,,,,,,,,,,,49.63847791599983,49.63864058299805,091864,001,2024-07-01_23h26.16.227,5-28,2024.1.4,None,2024-07-01 23h26.21.272468 +0900,
Images/Speaker1.jpg,Images/Speaker2.jpg,Images/Speaker3.jpg,Images/Speaker4.jpg,Audio/Speaker2_Per/P2-20-Per.wav,Speaker2,گوینده۲,1,9,89,39,,,,,72.4561939999985,,,,,,,,,,,,,,,,,,,,,,,,,,,,,,,,,,,,,,,,,,,,,49.65440495799703,49.654579624999315,091864,001,2024-07-01_23h26.16.227,5-28,2024.1.4,None,2024-07-01 23h26.21.272468 +0900,
Images/Speaker1.jpg,Images/Speaker2.jpg,Images/Speaker3.jpg,Images/Speaker4.jpg,Audio/Speaker2_Per/P2-10-Per.wav,Speaker2,گوینده۲,1,10,90,29,,,,,72.4561939999985,,,,,,,,,,,,,,,,,,,,,,,,,,,,,,,,,,,,,,,,,,,,,49.67098679099945,49.671161957998265,091864,001,2024-07-01_23h26.16.227,5-28,2024.1.4,None,2024-07-01 23h26.21.272468 +0900,
Images/Speaker1.jpg,Images/Speaker2.jpg,Images/Speaker3.jpg,Images/Speaker4.jpg,Audio/Speaker2_Per/P2-5-Per.wav,Speaker2,گوینده۲,1,11,91,24,,,,,72.4561939999985,,,,,,,,,,,,,,,,,,,,,,,,,,,,,,,,,,,,,,,,,,,,,49.68694974999744,49.6871719999981,091864,001,2024-07-01_23h26.16.227,5-28,2024.1.4,None,2024-07-01 23h26.21.272468 +0900,
Images/Speaker1.jpg,Images/Speaker2.jpg,Images/Speaker3.jpg,Images/Speaker4.jpg,Audio/Speaker4_Per/P4-13-Per.wav,Speaker4,گوینده۴,1,12,92,72,,,,,72.4561939999985,,,,,,,,,,,,,,,,,,,,,,,,,,,,,,,,,,,,,,,,,,,,,49.70323387499957,49.70339241599868,091864,001,2024-07-01_23h26.16.227,5-28,2024.1.4,None,2024-07-01 23h26.21.272468 +0900,
Images/Speaker1.jpg,Images/Speaker2.jpg,Images/Speaker3.jpg,Images/Speaker4.jpg,Audio/Speaker2_Per/P2-17-Per.wav,Speaker2,گوینده۲,1,13,93,36,,,,,72.4561939999985,,,,,,,,,,,,,,,,,,,,,,,,,,,,,,,,,,,,,,,,,,,,,49.719311499997275,49.719495249999454,091864,001,2024-07-01_23h26.16.227,5-28,2024.1.4,None,2024-07-01 23h26.21.272468 +0900,
Images/Speaker1.jpg,Images/Speaker2.jpg,Images/Speaker3.jpg,Images/Speaker4.jpg,Audio/Speaker4_Per/P4-5-Per.wav,Speaker4,گوینده۴,1,14,94,64,,,,,72.4561939999985,,,,,,,,,,,,,,,,,,,,,,,,,,,,,,,,,,,,,,,,,,,,,49.7359039160001,49.7360905409987,091864,001,2024-07-01_23h26.16.227,5-28,2024.1.4,None,2024-07-01 23h26.21.272468 +0900,
Images/Speaker1.jpg,Images/Speaker2.jpg,Images/Speaker3.jpg,Images/Speaker4.jpg,Audio/Speaker1_Per/P1-8-Per.wav,Speaker1,گوینده ۱,1,15,95,7,,,,,72.4561939999985,,,,,,,,,,,,,,,,,,,,,,,,,,,,,,,,,,,,,,,,,,,,,49.75194829099928,49.75211029099955,091864,001,2024-07-01_23h26.16.227,5-28,2024.1.4,None,2024-07-01 23h26.21.272468 +0900,
Images/Speaker1.jpg,Images/Speaker2.jpg,Images/Speaker3.jpg,Images/Speaker4.jpg,Audio/Speaker4_Per/P4-16-Per.wav,Speaker4,گوینده۴,1,16,96,75,,,,,72.4561939999985,,,,,,,,,,,,,,,,,,,,,,,,,,,,,,,,,,,,,,,,,,,,,49.76789474999896,49.76806954099811,091864,001,2024-07-01_23h26.16.227,5-28,2024.1.4,None,2024-07-01 23h26.21.272468 +0900,
Images/Speaker1.jpg,Images/Speaker2.jpg,Images/Speaker3.jpg,Images/Speaker4.jpg,Audio/Speaker2_Per/P2-8-Per.wav,Speaker2,گوینده۲,1,17,97,27,,,,,72.4561939999985,,,,,,,,,,,,,,,,,,,,,,,,,,,,,,,,,,,,,,,,,,,,,49.78381312499914,49.78397674999724,091864,001,2024-07-01_23h26.16.227,5-28,2024.1.4,None,2024-07-01 23h26.21.272468 +0900,
Images/Speaker1.jpg,Images/Speaker2.jpg,Images/Speaker3.jpg,Images/Speaker4.jpg,Audio/Speaker4_Per/P4-3-Per.wav,Speaker4,گوینده۴,1,18,98,62,,,,,72.4561939999985,,,,,,,,,,,,,,,,,,,,,,,,,,,,,,,,,,,,,,,,,,,,,49.80040349999763,49.80056637499729,091864,001,2024-07-01_23h26.16.227,5-28,2024.1.4,None,2024-07-01 23h26.21.272468 +0900,
Images/Speaker1.jpg,Images/Speaker2.jpg,Images/Speaker3.jpg,Images/Speaker4.jpg,Audio/Speaker2_Per/P2-11-Per.wav,Speaker2,گوینده۲,1,19,99,30,,,,,72.4561939999985,,,,,,,,,,,,,,,,,,,,,,,,,,,,,,,,,,,,,,,,,,,,,49.81630562499777,49.8164787909991,091864,001,2024-07-01_23h26.16.227,5-28,2024.1.4,None,2024-07-01 23h26.21.272468 +0900,
Images/Speaker1.jpg,Images/Speaker2.jpg,Images/Speaker3.jpg,Images/Speaker4.jpg,Audio/Speaker4_Per/P4-15-Per.wav,Speaker4,گوینده۴,1,20,100,74,,,,,72.4561939999985,,,,,,,,,,,,,,,,,,,,,,,,,,,,,,,,,,,,,,,,,,,,,49.83215199999904,49.8323298749965,091864,001,2024-07-01_23h26.16.227,5-28,2024.1.4,None,2024-07-01 23h26.21.272468 +0900,
Images/Speaker1.jpg,Images/Speaker2.jpg,Images/Speaker3.jpg,Images/Speaker4.jpg,Audio/Speaker3_Per/P3-6-Per.wav,Speaker3,گوینده۳,1,21,101,45,,,,,72.4561939999985,,,,,,,,,,,,,,,,,,,,,,,,,,,,,,,,,,,,,,,,,,,,,49.84815920799883,49.84838070799742,091864,001,2024-07-01_23h26.16.227,5-28,2024.1.4,None,2024-07-01 23h26.21.272468 +0900,
Images/Speaker1.jpg,Images/Speaker2.jpg,Images/Speaker3.jpg,Images/Speaker4.jpg,Audio/Speaker2_Per/P2-16-Per.wav,Speaker2,گوینده۲,1,22,102,35,,,,,72.4561939999985,,,,,,,,,,,,,,,,,,,,,,,,,,,,,,,,,,,,,,,,,,,,,49.864800915998785,49.86496679099946,091864,001,2024-07-01_23h26.16.227,5-28,2024.1.4,None,2024-07-01 23h26.21.272468 +0900,
Images/Speaker1.jpg,Images/Speaker2.jpg,Images/Speaker3.jpg,Images/Speaker4.jpg,Audio/Speaker3_Per/P3-4-Per.wav,Speaker3,گوینده۳,1,23,103,43,,,,,72.4561939999985,,,,,,,,,,,,,,,,,,,,,,,,,,,,,,,,,,,,,,,,,,,,,49.880813624997245,49.88099479099765,091864,001,2024-07-01_23h26.16.227,5-28,2024.1.4,None,2024-07-01 23h26.21.272468 +0900,
Images/Speaker1.jpg,Images/Speaker2.jpg,Images/Speaker3.jpg,Images/Speaker4.jpg,Audio/Speaker4_Per/P4-10-Per.wav,Speaker4,گوینده۴,1,24,104,69,,,,,72.4561939999985,,,,,,,,,,,,,,,,,,,,,,,,,,,,,,,,,,,,,,,,,,,,,49.89681374999782,49.896981457997754,091864,001,2024-07-01_23h26.16.227,5-28,2024.1.4,None,2024-07-01 23h26.21.272468 +0900,
Images/Speaker1.jpg,Images/Speaker2.jpg,Images/Speaker3.jpg,Images/Speaker4.jpg,Audio/Speaker4_Per/P4-12-Per.wav,Speaker4,گوینده۴,1,25,105,71,,,,,72.4561939999985,,,,,,,,,,,,,,,,,,,,,,,,,,,,,,,,,,,,,,,,,,,,,49.91311874999883,49.91327416599961,091864,001,2024-07-01_23h26.16.227,5-28,2024.1.4,None,2024-07-01 23h26.21.272468 +0900,
Images/Speaker1.jpg,Images/Speaker2.jpg,Images/Speaker3.jpg,Images/Speaker4.jpg,Audio/Speaker3_Per/P3-2-Per.wav,Speaker3,گوینده۳,1,26,106,41,,,,,72.4561939999985,,,,,,,,,,,,,,,,,,,,,,,,,,,,,,,,,,,,,,,,,,,,,49.92966958299803,49.929838374999235,091864,001,2024-07-01_23h26.16.227,5-28,2024.1.4,None,2024-07-01 23h26.21.272468 +0900,
Images/Speaker1.jpg,Images/Speaker2.jpg,Images/Speaker3.jpg,Images/Speaker4.jpg,Audio/Speaker4_Per/P4-9-Per.wav,Speaker4,گوینده۴,1,27,107,68,,,,,72.4561939999985,,,,,,,,,,,,,,,,,,,,,,,,,,,,,,,,,,,,,,,,,,,,,49.94556987499891,49.94574595799713,091864,001,2024-07-01_23h26.16.227,5-28,2024.1.4,None,2024-07-01 23h26.21.272468 +0900,
Images/Speaker1.jpg,Images/Speaker2.jpg,Images/Speaker3.jpg,Images/Speaker4.jpg,Audio/Speaker3_Per/P3-3-Per.wav,Speaker3,گوینده۳,1,28,108,42,,,,,72.4561939999985,,,,,,,,,,,,,,,,,,,,,,,,,,,,,,,,,,,,,,,,,,,,,49.96155283299959,49.96173508299762,091864,001,2024-07-01_23h26.16.227,5-28,2024.1.4,None,2024-07-01 23h26.21.272468 +0900,
Images/Speaker1.jpg,Images/Speaker2.jpg,Images/Speaker3.jpg,Images/Speaker4.jpg,Audio/Speaker1_Per/P1-15-Per.wav,Speaker1,گوینده ۱,1,29,109,14,,,,,72.4561939999985,,,,,,,,,,,,,,,,,,,,,,,,,,,,,,,,,,,,,,,,,,,,,49.97750733299836,49.977688332997786,091864,001,2024-07-01_23h26.16.227,5-28,2024.1.4,None,2024-07-01 23h26.21.272468 +0900,
Images/Speaker1.jpg,Images/Speaker2.jpg,Images/Speaker3.jpg,Images/Speaker4.jpg,Audio/Speaker4_Per/P4-2-Per.wav,Speaker4,گوینده۴,1,30,110,61,,,,,72.4561939999985,,,,,,,,,,,,,,,,,,,,,,,,,,,,,,,,,,,,,,,,,,,,,49.99408774999756,49.994226582999545,091864,001,2024-07-01_23h26.16.227,5-28,2024.1.4,None,2024-07-01 23h26.21.272468 +0900,
Images/Speaker1.jpg,Images/Speaker2.jpg,Images/Speaker3.jpg,Images/Speaker4.jpg,Audio/Speaker2_Per/P2-3-Per.wav,Speaker2,گوینده۲,1,31,111,22,,,,,72.4561939999985,,,,,,,,,,,,,,,,,,,,,,,,,,,,,,,,,,,,,,,,,,,,,50.0099540409974,50.01013608299763,091864,001,2024-07-01_23h26.16.227,5-28,2024.1.4,None,2024-07-01 23h26.21.272468 +0900,
Images/Speaker1.jpg,Images/Speaker2.jpg,Images/Speaker3.jpg,Images/Speaker4.jpg,Audio/Speaker4_Per/P4-6-Per.wav,Speaker4,گوینده۴,1,32,112,65,,,,,72.4561939999985,,,,,,,,,,,,,,,,,,,,,,,,,,,,,,,,,,,,,,,,,,,,,50.02597749999768,50.026136207998206,091864,001,2024-07-01_23h26.16.227,5-28,2024.1.4,None,2024-07-01 23h26.21.272468 +0900,
Images/Speaker1.jpg,Images/Speaker2.jpg,Images/Speaker3.jpg,Images/Speaker4.jpg,Audio/Speaker1_Per/P1-9-Per.wav,Speaker1,گوینده ۱,1,33,113,8,,,,,72.4561939999985,,,,,,,,,,,,,,,,,,,,,,,,,,,,,,,,,,,,,,,,,,,,,50.04193333299918,50.04209749999791,091864,001,2024-07-01_23h26.16.227,5-28,2024.1.4,None,2024-07-01 23h26.21.272468 +0900,
Images/Speaker1.jpg,Images/Speaker2.jpg,Images/Speaker3.jpg,Images/Speaker4.jpg,Audio/Speaker4_Per/P4-19-Per.wav,Speaker4,گوینده۴,1,34,114,78,,,,,72.4561939999985,,,,,,,,,,,,,,,,,,,,,,,,,,,,,,,,,,,,,,,,,,,,,50.05863883299753,50.058851915997366,091864,001,2024-07-01_23h26.16.227,5-28,2024.1.4,None,2024-07-01 23h26.21.272468 +0900,
Images/Speaker1.jpg,Images/Speaker2.jpg,Images/Speaker3.jpg,Images/Speaker4.jpg,Audio/Speaker3_Per/P3-19-Per.wav,Speaker3,گوینده۳,1,35,115,58,,,,,72.4561939999985,,,,,,,,,,,,,,,,,,,,,,,,,,,,,,,,,,,,,,,,,,,,,50.07459304099757,50.0747677909967,091864,001,2024-07-01_23h26.16.227,5-28,2024.1.4,None,2024-07-01 23h26.21.272468 +0900,
Images/Speaker1.jpg,Images/Speaker2.jpg,Images/Speaker3.jpg,Images/Speaker4.jpg,Audio/Speaker3_Per/P3-16-Per.wav,Speaker3,گوینده۳,1,36,116,55,,,,,72.4561939999985,,,,,,,,,,,,,,,,,,,,,,,,,,,,,,,,,,,,,,,,,,,,,50.09050924999974,50.09072966599706,091864,001,2024-07-01_23h26.16.227,5-28,2024.1.4,None,2024-07-01 23h26.21.272468 +0900,
Images/Speaker1.jpg,Images/Speaker2.jpg,Images/Speaker3.jpg,Images/Speaker4.jpg,Audio/Speaker4_Per/P4-1-Per.wav,Speaker4,گوینده۴,1,37,117,60,,,,,72.4561939999985,,,,,,,,,,,,,,,,,,,,,,,,,,,,,,,,,,,,,,,,,,,,,50.106516165997164,50.10670437499721,091864,001,2024-07-01_23h26.16.227,5-28,2024.1.4,None,2024-07-01 23h26.21.272468 +0900,
Images/Speaker1.jpg,Images/Speaker2.jpg,Images/Speaker3.jpg,Images/Speaker4.jpg,Audio/Speaker4_Per/P4-18-Per.wav,Speaker4,گوینده۴,1,38,118,77,,,,,72.4561939999985,,,,,,,,,,,,,,,,,,,,,,,,,,,,,,,,,,,,,,,,,,,,,50.12318849999792,50.123354665996885,091864,001,2024-07-01_23h26.16.227,5-28,2024.1.4,None,2024-07-01 23h26.21.272468 +0900,
Images/Speaker1.jpg,Images/Speaker2.jpg,Images/Speaker3.jpg,Images/Speaker4.jpg,Audio/Speaker1_Per/P1-2-Per.wav,Speaker1,گوینده ۱,1,39,119,1,,,,,72.4561939999985,,,,,,,,,,,,,,,,,,,,,,,,,,,,,,,,,,,,,,,,,,,,,50.139156499997625,50.13931633299944,091864,001,2024-07-01_23h26.16.227,5-28,2024.1.4,None,2024-07-01 23h26.21.272468 +0900,
Images/Speaker1.jpg,Images/Speaker2.jpg,Images/Speaker3.jpg,Images/Speaker4.jpg,Audio/Speaker2_Per/P2-9-Per.wav,Speaker2,گوینده۲,1,40,120,28,,,,,72.4561939999985,,,,,,,,,,,,,,,,,,,,,,,,,,,,,,,,,,,,,,,,,,,,,50.155074165999395,50.15527141599887,091864,001,2024-07-01_23h26.16.227,5-28,2024.1.4,None,2024-07-01 23h26.21.272468 +0900,
Images/Speaker1.jpg,Images/Speaker2.jpg,Images/Speaker3.jpg,Images/Speaker4.jpg,Audio/Speaker4_Per/P4-7-Per.wav,Speaker4,گوینده۴,1,41,121,66,,,,,72.4561939999985,,,,,,,,,,,,,,,,,,,,,,,,,,,,,,,,,,,,,,,,,,,,,50.17099591599981,50.17120724999768,091864,001,2024-07-01_23h26.16.227,5-28,2024.1.4,None,2024-07-01 23h26.21.272468 +0900,
Images/Speaker1.jpg,Images/Speaker2.jpg,Images/Speaker3.jpg,Images/Speaker4.jpg,Audio/Speaker3_Per/P3-20-Per.wav,Speaker3,گوینده۳,1,42,122,59,,,,,72.4561939999985,,,,,,,,,,,,,,,,,,,,,,,,,,,,,,,,,,,,,,,,,,,,,50.187576499996794,50.18774024999948,091864,001,2024-07-01_23h26.16.227,5-28,2024.1.4,None,2024-07-01 23h26.21.272468 +0900,
Images/Speaker1.jpg,Images/Speaker2.jpg,Images/Speaker3.jpg,Images/Speaker4.jpg,Audio/Speaker2_Per/P2-1-Per.wav,Speaker2,گوینده۲,1,43,123,20,,,,,72.4561939999985,,,,,,,,,,,,,,,,,,,,,,,,,,,,,,,,,,,,,,,,,,,,,50.20354170799692,50.203710124998906,091864,001,2024-07-01_23h26.16.227,5-28,2024.1.4,None,2024-07-01 23h26.21.272468 +0900,
Images/Speaker1.jpg,Images/Speaker2.jpg,Images/Speaker3.jpg,Images/Speaker4.jpg,Audio/Speaker2_Per/P2-4-Per.wav,Speaker2,گوینده۲,1,44,124,23,,,,,72.4561939999985,,,,,,,,,,,,,,,,,,,,,,,,,,,,,,,,,,,,,,,,,,,,,50.21950920800009,50.21967562499776,091864,001,2024-07-01_23h26.16.227,5-28,2024.1.4,None,2024-07-01 23h26.21.272468 +0900,
Images/Speaker1.jpg,Images/Speaker2.jpg,Images/Speaker3.jpg,Images/Speaker4.jpg,Audio/Speaker1_Per/P1-5-Per.wav,Speaker1,گوینده ۱,1,45,125,4,,,,,72.4561939999985,,,,,,,,,,,,,,,,,,,,,,,,,,,,,,,,,,,,,,,,,,,,,50.23537791599665,50.23553837500003,091864,001,2024-07-01_23h26.16.227,5-28,2024.1.4,None,2024-07-01 23h26.21.272468 +0900,
Images/Speaker1.jpg,Images/Speaker2.jpg,Images/Speaker3.jpg,Images/Speaker4.jpg,Audio/Speaker4_Per/P4-17-Per.wav,Speaker4,گوینده۴,1,46,126,76,,,,,72.4561939999985,,,,,,,,,,,,,,,,,,,,,,,,,,,,,,,,,,,,,,,,,,,,,50.251953582999704,50.25215379099973,091864,001,2024-07-01_23h26.16.227,5-28,2024.1.4,None,2024-07-01 23h26.21.272468 +0900,
Images/Speaker1.jpg,Images/Speaker2.jpg,Images/Speaker3.jpg,Images/Speaker4.jpg,Audio/Speaker4_Per/P4-14-Per.wav,Speaker4,گوینده۴,1,47,127,73,,,,,72.4561939999985,,,,,,,,,,,,,,,,,,,,,,,,,,,,,,,,,,,,,,,,,,,,,50.267947707998246,50.2681121659989,091864,001,2024-07-01_23h26.16.227,5-28,2024.1.4,None,2024-07-01 23h26.21.272468 +0900,
Images/Speaker1.jpg,Images/Speaker2.jpg,Images/Speaker3.jpg,Images/Speaker4.jpg,Audio/Speaker4_Per/P4-8-Per.wav,Speaker4,گوینده۴,1,48,128,67,,,,,72.4561939999985,,,,,,,,,,,,,,,,,,,,,,,,,,,,,,,,,,,,,,,,,,,,,50.28383649999887,50.283995082998445,091864,001,2024-07-01_23h26.16.227,5-28,2024.1.4,None,2024-07-01 23h26.21.272468 +0900,
Images/Speaker1.jpg,Images/Speaker2.jpg,Images/Speaker3.jpg,Images/Speaker4.jpg,Audio/Speaker3_Per/P3-11-Per.wav,Speaker3,گوینده۳,1,49,129,50,,,,,72.4561939999985,,,,,,,,,,,,,,,,,,,,,,,,,,,,,,,,,,,,,,,,,,,,,50.29987216599693,50.30003674999898,091864,001,2024-07-01_23h26.16.227,5-28,2024.1.4,None,2024-07-01 23h26.21.272468 +0900,
Images/Speaker1.jpg,Images/Speaker2.jpg,Images/Speaker3.jpg,Images/Speaker4.jpg,Audio/Speaker1_Per/P1-11-Per.wav,Speaker1,گوینده ۱,1,50,130,10,,,,,72.4561939999985,,,,,,,,,,,,,,,,,,,,,,,,,,,,,,,,,,,,,,,,,,,,,50.316523707999295,50.31669362499815,091864,001,2024-07-01_23h26.16.227,5-28,2024.1.4,None,2024-07-01 23h26.21.272468 +0900,
Images/Speaker1.jpg,Images/Speaker2.jpg,Images/Speaker3.jpg,Images/Speaker4.jpg,Audio/Speaker3_Per/P3-5-Per.wav,Speaker3,گوینده۳,1,51,131,44,,,,,72.4561939999985,,,,,,,,,,,,,,,,,,,,,,,,,,,,,,,,,,,,,,,,,,,,,50.33255737499712,50.33272287499858,091864,001,2024-07-01_23h26.16.227,5-28,2024.1.4,None,2024-07-01 23h26.21.272468 +0900,
Images/Speaker1.jpg,Images/Speaker2.jpg,Images/Speaker3.jpg,Images/Speaker4.jpg,Audio/Speaker3_Per/P3-10-Per.wav,Speaker3,گوینده۳,1,52,132,49,,,,,72.4561939999985,,,,,,,,,,,,,,,,,,,,,,,,,,,,,,,,,,,,,,,,,,,,,50.348657290996925,50.348896624996996,091864,001,2024-07-01_23h26.16.227,5-28,2024.1.4,None,2024-07-01 23h26.21.272468 +0900,
Images/Speaker1.jpg,Images/Speaker2.jpg,Images/Speaker3.jpg,Images/Speaker4.jpg,Audio/Speaker1_Per/P1-4-Per.wav,Speaker1,گوینده ۱,1,53,133,3,,,,,72.4561939999985,,,,,,,,,,,,,,,,,,,,,,,,,,,,,,,,,,,,,,,,,,,,,50.364502874999744,50.364674874999764,091864,001,2024-07-01_23h26.16.227,5-28,2024.1.4,None,2024-07-01 23h26.21.272468 +0900,
Images/Speaker1.jpg,Images/Speaker2.jpg,Images/Speaker3.jpg,Images/Speaker4.jpg,Audio/Speaker2_Per/P2-18-Per.wav,Speaker2,گوینده۲,1,54,134,37,,,,,72.4561939999985,,,,,,,,,,,,,,,,,,,,,,,,,,,,,,,,,,,,,,,,,,,,,50.38105729099698,50.38121537499683,091864,001,2024-07-01_23h26.16.227,5-28,2024.1.4,None,2024-07-01 23h26.21.272468 +0900,
Images/Speaker1.jpg,Images/Speaker2.jpg,Images/Speaker3.jpg,Images/Speaker4.jpg,Audio/Speaker3_Per/P3-8-Per.wav,Speaker3,گوینده۳,1,55,135,47,,,,,72.4561939999985,,,,,,,,,,,,,,,,,,,,,,,,,,,,,,,,,,,,,,,,,,,,,50.396939832997305,50.397118332999526,091864,001,2024-07-01_23h26.16.227,5-28,2024.1.4,None,2024-07-01 23h26.21.272468 +0900,
Images/Speaker1.jpg,Images/Speaker2.jpg,Images/Speaker3.jpg,Images/Speaker4.jpg,Audio/Speaker1_Per/P1-7-Per.wav,Speaker1,گوینده ۱,1,56,136,6,,,,,72.4561939999985,,,,,,,,,,,,,,,,,,,,,,,,,,,,,,,,,,,,,,,,,,,,,50.412757999998576,50.41294504100006,091864,001,2024-07-01_23h26.16.227,5-28,2024.1.4,None,2024-07-01 23h26.21.272468 +0900,
Images/Speaker1.jpg,Images/Speaker2.jpg,Images/Speaker3.jpg,Images/Speaker4.jpg,Audio/Speaker4_Per/P4-11-Per.wav,Speaker4,گوینده۴,1,57,137,70,,,,,72.4561939999985,,,,,,,,,,,,,,,,,,,,,,,,,,,,,,,,,,,,,,,,,,,,,50.428736540998216,50.428935749998345,091864,001,2024-07-01_23h26.16.227,5-28,2024.1.4,None,2024-07-01 23h26.21.272468 +0900,
Images/Speaker1.jpg,Images/Speaker2.jpg,Images/Speaker3.jpg,Images/Speaker4.jpg,Audio/Speaker3_Per/P3-9-Per.wav,Speaker3,گوینده۳,1,58,138,48,,,,,72.4561939999985,,,,,,,,,,,,,,,,,,,,,,,,,,,,,,,,,,,,,,,,,,,,,50.445292582997354,50.44545733299674,091864,001,2024-07-01_23h26.16.227,5-28,2024.1.4,None,2024-07-01 23h26.21.272468 +0900,
Images/Speaker1.jpg,Images/Speaker2.jpg,Images/Speaker3.jpg,Images/Speaker4.jpg,Audio/Speaker1_Per/P1-1-Per.wav,Speaker1,گوینده ۱,1,59,139,0,,,,,72.4561939999985,,,,,,,,,,,,,,,,,,,,,,,,,,,,,,,,,,,,,,,,,,,,,50.461209832999884,50.461387707997346,091864,001,2024-07-01_23h26.16.227,5-28,2024.1.4,None,2024-07-01 23h26.21.272468 +0900,
Images/Speaker1.jpg,Images/Speaker2.jpg,Images/Speaker3.jpg,Images/Speaker4.jpg,Audio/Speaker1_Per/P1-19-Per.wav,Speaker1,گوینده ۱,1,60,140,18,,,,,72.4561939999985,,,,,,,,,,,,,,,,,,,,,,,,,,,,,,,,,,,,,,,,,,,,,50.47710008299691,50.47727904099884,091864,001,2024-07-01_23h26.16.227,5-28,2024.1.4,None,2024-07-01 23h26.21.272468 +0900,
Images/Speaker1.jpg,Images/Speaker2.jpg,Images/Speaker3.jpg,Images/Speaker4.jpg,Audio/Speaker1_Per/P1-20-Per.wav,Speaker1,گوینده ۱,1,61,141,19,,,,,72.4561939999985,,,,,,,,,,,,,,,,,,,,,,,,,,,,,,,,,,,,,,,,,,,,,50.49298120799722,50.49313762499878,091864,001,2024-07-01_23h26.16.227,5-28,2024.1.4,None,2024-07-01 23h26.21.272468 +0900,
Images/Speaker1.jpg,Images/Speaker2.jpg,Images/Speaker3.jpg,Images/Speaker4.jpg,Audio/Speaker1_Per/P1-3-Per.wav,Speaker1,گوینده ۱,1,62,142,2,,,,,72.4561939999985,,,,,,,,,,,,,,,,,,,,,,,,,,,,,,,,,,,,,,,,,,,,,50.50944937499662,50.50961024999924,091864,001,2024-07-01_23h26.16.227,5-28,2024.1.4,None,2024-07-01 23h26.21.272468 +0900,
Images/Speaker1.jpg,Images/Speaker2.jpg,Images/Speaker3.jpg,Images/Speaker4.jpg,Audio/Speaker3_Per/P3-14-Per.wav,Speaker3,گوینده۳,1,63,143,53,,,,,72.4561939999985,,,,,,,,,,,,,,,,,,,,,,,,,,,,,,,,,,,,,,,,,,,,,50.52534241600006,50.525497457998426,091864,001,2024-07-01_23h26.16.227,5-28,2024.1.4,None,2024-07-01 23h26.21.272468 +0900,
Images/Speaker1.jpg,Images/Speaker2.jpg,Images/Speaker3.jpg,Images/Speaker4.jpg,Audio/Speaker2_Per/P2-6-Per.wav,Speaker2,گوینده۲,1,64,144,25,,,,,72.4561939999985,,,,,,,,,,,,,,,,,,,,,,,,,,,,,,,,,,,,,,,,,,,,,50.541326332997414,50.541487208000035,091864,001,2024-07-01_23h26.16.227,5-28,2024.1.4,None,2024-07-01 23h26.21.272468 +0900,
Images/Speaker1.jpg,Images/Speaker2.jpg,Images/Speaker3.jpg,Images/Speaker4.jpg,Audio/Speaker2_Per/P2-15-Per.wav,Speaker2,گوینده۲,1,65,145,34,,,,,72.4561939999985,,,,,,,,,,,,,,,,,,,,,,,,,,,,,,,,,,,,,,,,,,,,,50.55731404099788,50.557487290996505,091864,001,2024-07-01_23h26.16.227,5-28,2024.1.4,None,2024-07-01 23h26.21.272468 +0900,
Images/Speaker1.jpg,Images/Speaker2.jpg,Images/Speaker3.jpg,Images/Speaker4.jpg,Audio/Speaker1_Per/P1-4-Per.wav,Speaker1,گوینده ۱,1,66,146,13,,,,,72.4561939999985,,,,,,,,,,,,,,,,,,,,,,,,,,,,,,,,,,,,,,,,,,,,,50.57417070799784,50.57433424999908,091864,001,2024-07-01_23h26.16.227,5-28,2024.1.4,None,2024-07-01 23h26.21.272468 +0900,
Images/Speaker1.jpg,Images/Speaker2.jpg,Images/Speaker3.jpg,Images/Speaker4.jpg,Audio/Speaker3_Per/P3-12-Per.wav,Speaker3,گوینده۳,1,67,147,51,,,,,72.4561939999985,,,,,,,,,,,,,,,,,,,,,,,,,,,,,,,,,,,,,,,,,,,,,50.590016207999724,50.590175332999934,091864,001,2024-07-01_23h26.16.227,5-28,2024.1.4,None,2024-07-01 23h26.21.272468 +0900,
Images/Speaker1.jpg,Images/Speaker2.jpg,Images/Speaker3.jpg,Images/Speaker4.jpg,Audio/Speaker2_Per/P2-12-Per.wav,Speaker2,گوینده۲,1,68,148,31,,,,,72.4561939999985,,,,,,,,,,,,,,,,,,,,,,,,,,,,,,,,,,,,,,,,,,,,,50.60595270799968,50.60611962499752,091864,001,2024-07-01_23h26.16.227,5-28,2024.1.4,None,2024-07-01 23h26.21.272468 +0900,
Images/Speaker1.jpg,Images/Speaker2.jpg,Images/Speaker3.jpg,Images/Speaker4.jpg,Audio/Speaker1_Per/P1-17-Per.wav,Speaker1,گوینده ۱,1,69,149,16,,,,,72.4561939999985,,,,,,,,,,,,,,,,,,,,,,,,,,,,,,,,,,,,,,,,,,,,,50.622059124998486,50.6222251659965,091864,001,2024-07-01_23h26.16.227,5-28,2024.1.4,None,2024-07-01 23h26.21.272468 +0900,
Images/Speaker1.jpg,Images/Speaker2.jpg,Images/Speaker3.jpg,Images/Speaker4.jpg,Audio/Speaker4_Per/P4-4-Per.wav,Speaker4,گوینده۴,1,70,150,63,,,,,72.4561939999985,,,,,,,,,,,,,,,,,,,,,,,,,,,,,,,,,,,,,,,,,,,,,50.63857399999688,50.63874108299933,091864,001,2024-07-01_23h26.16.227,5-28,2024.1.4,None,2024-07-01 23h26.21.272468 +0900,
Images/Speaker1.jpg,Images/Speaker2.jpg,Images/Speaker3.jpg,Images/Speaker4.jpg,Audio/Speaker3_Per/P3-7-Per.wav,Speaker3,گوینده۳,1,71,151,46,,,,,72.4561939999985,,,,,,,,,,,,,,,,,,,,,,,,,,,,,,,,,,,,,,,,,,,,,50.65445533299862,50.654652165998414,091864,001,2024-07-01_23h26.16.227,5-28,2024.1.4,None,2024-07-01 23h26.21.272468 +0900,
Images/Speaker1.jpg,Images/Speaker2.jpg,Images/Speaker3.jpg,Images/Speaker4.jpg,Audio/Speaker1_Per/P1-12-Per.wav,Speaker1,گوینده ۱,1,72,152,11,,,,,72.4561939999985,,,,,,,,,,,,,,,,,,,,,,,,,,,,,,,,,,,,,,,,,,,,,50.67042749999746,50.67059741599951,091864,001,2024-07-01_23h26.16.227,5-28,2024.1.4,None,2024-07-01 23h26.21.272468 +0900,
Images/Speaker1.jpg,Images/Speaker2.jpg,Images/Speaker3.jpg,Images/Speaker4.jpg,Audio/Speaker2_Per/P2-14-Per.wav,Speaker2,گوینده۲,1,73,153,33,,,,,72.4561939999985,,,,,,,,,,,,,,,,,,,,,,,,,,,,,,,,,,,,,,,,,,,,,50.686354832996585,50.68655562499771,091864,001,2024-07-01_23h26.16.227,5-28,2024.1.4,None,2024-07-01 23h26.21.272468 +0900,
Images/Speaker1.jpg,Images/Speaker2.jpg,Images/Speaker3.jpg,Images/Speaker4.jpg,Audio/Speaker2_Per/P2-13-Per.wav,Speaker2,گوینده۲,1,74,154,32,,,,,72.4561939999985,,,,,,,,,,,,,,,,,,,,,,,,,,,,,,,,,,,,,,,,,,,,,50.70321445799709,50.7033731249976,091864,001,2024-07-01_23h26.16.227,5-28,2024.1.4,None,2024-07-01 23h26.21.272468 +0900,
Images/Speaker1.jpg,Images/Speaker2.jpg,Images/Speaker3.jpg,Images/Speaker4.jpg,Audio/Speaker3_Per/P3-1-Per.wav,Speaker3,گوینده۳,1,75,155,40,,,,,72.4561939999985,,,,,,,,,,,,,,,,,,,,,,,,,,,,,,,,,,,,,,,,,,,,,50.71919754099872,50.719372749998,091864,001,2024-07-01_23h26.16.227,5-28,2024.1.4,None,2024-07-01 23h26.21.272468 +0900,
Images/Speaker1.jpg,Images/Speaker2.jpg,Images/Speaker3.jpg,Images/Speaker4.jpg,Audio/Speaker3_Per/P3-15-Per.wav,Speaker3,گوینده۳,1,76,156,54,,,,,72.4561939999985,,,,,,,,,,,,,,,,,,,,,,,,,,,,,,,,,,,,,,,,,,,,,50.735190790997876,50.735375499996735,091864,001,2024-07-01_23h26.16.227,5-28,2024.1.4,None,2024-07-01 23h26.21.272468 +0900,
Images/Speaker1.jpg,Images/Speaker2.jpg,Images/Speaker3.jpg,Images/Speaker4.jpg,Audio/Speaker1_Per/P1-18-Per.wav,Speaker1,گوینده ۱,1,77,157,17,,,,,72.4561939999985,,,,,,,,,,,,,,,,,,,,,,,,,,,,,,,,,,,,,,,,,,,,,50.75127137499658,50.751457749996916,091864,001,2024-07-01_23h26.16.227,5-28,2024.1.4,None,2024-07-01 23h26.21.272468 +0900,
Images/Speaker1.jpg,Images/Speaker2.jpg,Images/Speaker3.jpg,Images/Speaker4.jpg,Audio/Speaker2_Per/P2-19-Per.wav,Speaker2,گوینده۲,1,78,158,38,,,,,72.4561939999985,,,,,,,,,,,,,,,,,,,,,,,,,,,,,,,,,,,,,,,,,,,,,50.76785649999874,50.768033290998574,091864,001,2024-07-01_23h26.16.227,5-28,2024.1.4,None,2024-07-01 23h26.21.272468 +0900,
Images/Speaker1.jpg,Images/Speaker2.jpg,Images/Speaker3.jpg,Images/Speaker4.jpg,Audio/Speaker3_Per/P3-17-Per.wav,Speaker3,گوینده۳,1,79,159,56,,,,,72.4561939999985,,,,,,,,,,,,,,,,,,,,,,,,,,,,,,,,,,,,,,,,,,,,,50.784013332999166,50.78418299999976,091864,001,2024-07-01_23h26.16.227,5-28,2024.1.4,None,2024-07-01 23h26.21.272468 +0900,
Images/Speaker1.jpg,Images/Speaker2.jpg,Images/Speaker3.jpg,Images/Speaker4.jpg,Audio/Speaker1_Per/P1-8-Per.wav,Speaker1,گوینده ۱,2,0,160,7,,,,,72.4561939999985,,,,,,,,,,,,,,,,,,,,,,,,,,,,,,,,,,,,,,,,,,,,,50.800156332999904,50.800315749998845,091864,001,2024-07-01_23h26.16.227,5-28,2024.1.4,None,2024-07-01 23h26.21.272468 +0900,
Images/Speaker1.jpg,Images/Speaker2.jpg,Images/Speaker3.jpg,Images/Speaker4.jpg,Audio/Speaker4_Per/P4-5-Per.wav,Speaker4,گوینده۴,2,1,161,64,,,,,72.4561939999985,,,,,,,,,,,,,,,,,,,,,,,,,,,,,,,,,,,,,,,,,,,,,50.81607733299825,50.8162970409976,091864,001,2024-07-01_23h26.16.227,5-28,2024.1.4,None,2024-07-01 23h26.21.272468 +0900,
Images/Speaker1.jpg,Images/Speaker2.jpg,Images/Speaker3.jpg,Images/Speaker4.jpg,Audio/Speaker3_Per/P3-7-Per.wav,Speaker3,گوینده۳,2,2,162,46,,,,,72.4561939999985,,,,,,,,,,,,,,,,,,,,,,,,,,,,,,,,,,,,,,,,,,,,,50.83290437499818,50.83305337499769,091864,001,2024-07-01_23h26.16.227,5-28,2024.1.4,None,2024-07-01 23h26.21.272468 +0900,
Images/Speaker1.jpg,Images/Speaker2.jpg,Images/Speaker3.jpg,Images/Speaker4.jpg,Audio/Speaker2_Per/P2-2-Per.wav,Speaker2,گوینده۲,2,3,163,21,,,,,72.4561939999985,,,,,,,,,,,,,,,,,,,,,,,,,,,,,,,,,,,,,,,,,,,,,50.84872025000004,50.84889791599926,091864,001,2024-07-01_23h26.16.227,5-28,2024.1.4,None,2024-07-01 23h26.21.272468 +0900,
Images/Speaker1.jpg,Images/Speaker2.jpg,Images/Speaker3.jpg,Images/Speaker4.jpg,Audio/Speaker2_Per/P2-6-Per.wav,Speaker2,گوینده۲,2,4,164,25,,,,,72.4561939999985,,,,,,,,,,,,,,,,,,,,,,,,,,,,,,,,,,,,,,,,,,,,,50.86471724999865,50.864883957998245,091864,001,2024-07-01_23h26.16.227,5-28,2024.1.4,None,2024-07-01 23h26.21.272468 +0900,
Images/Speaker1.jpg,Images/Speaker2.jpg,Images/Speaker3.jpg,Images/Speaker4.jpg,Audio/Speaker3_Per/P3-6-Per.wav,Speaker3,گوینده۳,2,5,165,45,,,,,72.4561939999985,,,,,,,,,,,,,,,,,,,,,,,,,,,,,,,,,,,,,,,,,,,,,50.88064158299676,50.88083270799689,091864,001,2024-07-01_23h26.16.227,5-28,2024.1.4,None,2024-07-01 23h26.21.272468 +0900,
Images/Speaker1.jpg,Images/Speaker2.jpg,Images/Speaker3.jpg,Images/Speaker4.jpg,Audio/Speaker2_Per/P2-12-Per.wav,Speaker2,گوینده۲,2,6,166,31,,,,,72.4561939999985,,,,,,,,,,,,,,,,,,,,,,,,,,,,,,,,,,,,,,,,,,,,,50.897136124996905,50.89728916599779,091864,001,2024-07-01_23h26.16.227,5-28,2024.1.4,None,2024-07-01 23h26.21.272468 +0900,
Images/Speaker1.jpg,Images/Speaker2.jpg,Images/Speaker3.jpg,Images/Speaker4.jpg,Audio/Speaker2_Per/P2-1-Per.wav,Speaker2,گوینده۲,2,7,167,20,,,,,72.4561939999985,,,,,,,,,,,,,,,,,,,,,,,,,,,,,,,,,,,,,,,,,,,,,50.9131640409978,50.9133222499986,091864,001,2024-07-01_23h26.16.227,5-28,2024.1.4,None,2024-07-01 23h26.21.272468 +0900,
Images/Speaker1.jpg,Images/Speaker2.jpg,Images/Speaker3.jpg,Images/Speaker4.jpg,Audio/Speaker4_Per/P4-17-Per.wav,Speaker4,گوینده۴,2,8,168,76,,,,,72.4561939999985,,,,,,,,,,,,,,,,,,,,,,,,,,,,,,,,,,,,,,,,,,,,,50.929120207998494,50.92929099999674,091864,001,2024-07-01_23h26.16.227,5-28,2024.1.4,None,2024-07-01 23h26.21.272468 +0900,
Images/Speaker1.jpg,Images/Speaker2.jpg,Images/Speaker3.jpg,Images/Speaker4.jpg,Audio/Speaker2_Per/P2-11-Per.wav,Speaker2,گوینده۲,2,9,169,30,,,,,72.4561939999985,,,,,,,,,,,,,,,,,,,,,,,,,,,,,,,,,,,,,,,,,,,,,50.94499183299922,50.94517558299776,091864,001,2024-07-01_23h26.16.227,5-28,2024.1.4,None,2024-07-01 23h26.21.272468 +0900,
Images/Speaker1.jpg,Images/Speaker2.jpg,Images/Speaker3.jpg,Images/Speaker4.jpg,Audio/Speaker3_Per/P3-9-Per.wav,Speaker3,گوینده۳,2,10,170,48,,,,,72.4561939999985,,,,,,,,,,,,,,,,,,,,,,,,,,,,,,,,,,,,,,,,,,,,,50.96169949999967,50.96187762499903,091864,001,2024-07-01_23h26.16.227,5-28,2024.1.4,None,2024-07-01 23h26.21.272468 +0900,
Images/Speaker1.jpg,Images/Speaker2.jpg,Images/Speaker3.jpg,Images/Speaker4.jpg,Audio/Speaker4_Per/P4-1-Per.wav,Speaker4,گوینده۴,2,11,171,60,,,,,72.4561939999985,,,,,,,,,,,,,,,,,,,,,,,,,,,,,,,,,,,,,,,,,,,,,50.97760320799716,50.97777066599883,091864,001,2024-07-01_23h26.16.227,5-28,2024.1.4,None,2024-07-01 23h26.21.272468 +0900,
Images/Speaker1.jpg,Images/Speaker2.jpg,Images/Speaker3.jpg,Images/Speaker4.jpg,Audio/Speaker3_Per/P3-13-Per.wav,Speaker3,گوینده۳,2,12,172,52,,,,,72.4561939999985,,,,,,,,,,,,,,,,,,,,,,,,,,,,,,,,,,,,,,,,,,,,,50.99358637499972,50.993741582999064,091864,001,2024-07-01_23h26.16.227,5-28,2024.1.4,None,2024-07-01 23h26.21.272468 +0900,
Images/Speaker1.jpg,Images/Speaker2.jpg,Images/Speaker3.jpg,Images/Speaker4.jpg,Audio/Speaker1_Per/P1-5-Per.wav,Speaker1,گوینده ۱,2,13,173,4,,,,,72.4561939999985,,,,,,,,,,,,,,,,,,,,,,,,,,,,,,,,,,,,,,,,,,,,,51.00952354099718,51.00967274999857,091864,001,2024-07-01_23h26.16.227,5-28,2024.1.4,None,2024-07-01 23h26.21.272468 +0900,
Images/Speaker1.jpg,Images/Speaker2.jpg,Images/Speaker3.jpg,Images/Speaker4.jpg,Audio/Speaker2_Per/P2-17-Per.wav,Speaker2,گوینده۲,2,14,174,36,,,,,72.4561939999985,,,,,,,,,,,,,,,,,,,,,,,,,,,,,,,,,,,,,,,,,,,,,51.02614987499692,51.02631762499732,091864,001,2024-07-01_23h26.16.227,5-28,2024.1.4,None,2024-07-01 23h26.21.272468 +0900,
Images/Speaker1.jpg,Images/Speaker2.jpg,Images/Speaker3.jpg,Images/Speaker4.jpg,Audio/Speaker1_Per/P1-4-Per.wav,Speaker1,گوینده ۱,2,15,175,3,,,,,72.4561939999985,,,,,,,,,,,,,,,,,,,,,,,,,,,,,,,,,,,,,,,,,,,,,51.04204870799731,51.04221349999716,091864,001,2024-07-01_23h26.16.227,5-28,2024.1.4,None,2024-07-01 23h26.21.272468 +0900,
Images/Speaker1.jpg,Images/Speaker2.jpg,Images/Speaker3.jpg,Images/Speaker4.jpg,Audio/Speaker2_Per/P2-3-Per.wav,Speaker2,گوینده۲,2,16,176,22,,,,,72.4561939999985,,,,,,,,,,,,,,,,,,,,,,,,,,,,,,,,,,,,,,,,,,,,,51.05815508299929,51.058328832998086,091864,001,2024-07-01_23h26.16.227,5-28,2024.1.4,None,2024-07-01 23h26.21.272468 +0900,
Images/Speaker1.jpg,Images/Speaker2.jpg,Images/Speaker3.jpg,Images/Speaker4.jpg,Audio/Speaker4_Per/P4-8-Per.wav,Speaker4,گوینده۴,2,17,177,67,,,,,72.4561939999985,,,,,,,,,,,,,,,,,,,,,,,,,,,,,,,,,,,,,,,,,,,,,51.07404304099691,51.07422145799865,091864,001,2024-07-01_23h26.16.227,5-28,2024.1.4,None,2024-07-01 23h26.21.272468 +0900,
Images/Speaker1.jpg,Images/Speaker2.jpg,Images/Speaker3.jpg,Images/Speaker4.jpg,Audio/Speaker4_Per/P4-10-Per.wav,Speaker4,گوینده۴,2,18,178,69,,,,,72.4561939999985,,,,,,,,,,,,,,,,,,,,,,,,,,,,,,,,,,,,,,,,,,,,,51.09059579099994,51.09078154099916,091864,001,2024-07-01_23h26.16.227,5-28,2024.1.4,None,2024-07-01 23h26.21.272468 +0900,
Images/Speaker1.jpg,Images/Speaker2.jpg,Images/Speaker3.jpg,Images/Speaker4.jpg,Audio/Speaker1_Per/P1-4-Per.wav,Speaker1,گوینده ۱,2,19,179,13,,,,,72.4561939999985,,,,,,,,,,,,,,,,,,,,,,,,,,,,,,,,,,,,,,,,,,,,,51.106509582998115,51.106712457996764,091864,001,2024-07-01_23h26.16.227,5-28,2024.1.4,None,2024-07-01 23h26.21.272468 +0900,
Images/Speaker1.jpg,Images/Speaker2.jpg,Images/Speaker3.jpg,Images/Speaker4.jpg,Audio/Speaker3_Per/P3-2-Per.wav,Speaker3,گوینده۳,2,20,180,41,,,,,72.4561939999985,,,,,,,,,,,,,,,,,,,,,,,,,,,,,,,,,,,,,,,,,,,,,51.12245845799771,51.12264637499902,091864,001,2024-07-01_23h26.16.227,5-28,2024.1.4,None,2024-07-01 23h26.21.272468 +0900,
Images/Speaker1.jpg,Images/Speaker2.jpg,Images/Speaker3.jpg,Images/Speaker4.jpg,Audio/Speaker2_Per/P2-4-Per.wav,Speaker2,گوینده۲,2,21,181,23,,,,,72.4561939999985,,,,,,,,,,,,,,,,,,,,,,,,,,,,,,,,,,,,,,,,,,,,,51.138380499996856,51.1385634579965,091864,001,2024-07-01_23h26.16.227,5-28,2024.1.4,None,2024-07-01 23h26.21.272468 +0900,
Images/Speaker1.jpg,Images/Speaker2.jpg,Images/Speaker3.jpg,Images/Speaker4.jpg,Audio/Speaker4_Per/P4-14-Per.wav,Speaker4,گوینده۴,2,22,182,73,,,,,72.4561939999985,,,,,,,,,,,,,,,,,,,,,,,,,,,,,,,,,,,,,,,,,,,,,51.154946499998914,51.1551293329976,091864,001,2024-07-01_23h26.16.227,5-28,2024.1.4,None,2024-07-01 23h26.21.272468 +0900,
Images/Speaker1.jpg,Images/Speaker2.jpg,Images/Speaker3.jpg,Images/Speaker4.jpg,Audio/Speaker2_Per/P2-13-Per.wav,Speaker2,گوینده۲,2,23,183,32,,,,,72.4561939999985,,,,,,,,,,,,,,,,,,,,,,,,,,,,,,,,,,,,,,,,,,,,,51.17089175000001,51.17106295799749,091864,001,2024-07-01_23h26.16.227,5-28,2024.1.4,None,2024-07-01 23h26.21.272468 +0900,
Images/Speaker1.jpg,Images/Speaker2.jpg,Images/Speaker3.jpg,Images/Speaker4.jpg,Audio/Speaker1_Per/P1-17-Per.wav,Speaker1,گوینده ۱,2,24,184,16,,,,,72.4561939999985,,,,,,,,,,,,,,,,,,,,,,,,,,,,,,,,,,,,,,,,,,,,,51.18680504099757,51.18698412499725,091864,001,2024-07-01_23h26.16.227,5-28,2024.1.4,None,2024-07-01 23h26.21.272468 +0900,
Images/Speaker1.jpg,Images/Speaker2.jpg,Images/Speaker3.jpg,Images/Speaker4.jpg,Audio/Speaker3_Per/P3-20-Per.wav,Speaker3,گوینده۳,2,25,185,59,,,,,72.4561939999985,,,,,,,,,,,,,,,,,,,,,,,,,,,,,,,,,,,,,,,,,,,,,51.202767415998096,51.202929457998835,091864,001,2024-07-01_23h26.16.227,5-28,2024.1.4,None,2024-07-01 23h26.21.272468 +0900,
Images/Speaker1.jpg,Images/Speaker2.jpg,Images/Speaker3.jpg,Images/Speaker4.jpg,Audio/Speaker1_Per/P1-2-Per.wav,Speaker1,گوینده ۱,2,26,186,1,,,,,72.4561939999985,,,,,,,,,,,,,,,,,,,,,,,,,,,,,,,,,,,,,,,,,,,,,51.219460332999006,51.219622915999935,091864,001,2024-07-01_23h26.16.227,5-28,2024.1.4,None,2024-07-01 23h26.21.272468 +0900,
Images/Speaker1.jpg,Images/Speaker2.jpg,Images/Speaker3.jpg,Images/Speaker4.jpg,Audio/Speaker3_Per/P3-18-Per.wav,Speaker3,گوینده۳,2,27,187,57,,,,,72.4561939999985,,,,,,,,,,,,,,,,,,,,,,,,,,,,,,,,,,,,,,,,,,,,,51.235426749997714,51.23561616599909,091864,001,2024-07-01_23h26.16.227,5-28,2024.1.4,None,2024-07-01 23h26.21.272468 +0900,
Images/Speaker1.jpg,Images/Speaker2.jpg,Images/Speaker3.jpg,Images/Speaker4.jpg,Audio/Speaker3_Per/P3-14-Per.wav,Speaker3,گوینده۳,2,28,188,53,,,,,72.4561939999985,,,,,,,,,,,,,,,,,,,,,,,,,,,,,,,,,,,,,,,,,,,,,51.25132541599669,51.251544790997286,091864,001,2024-07-01_23h26.16.227,5-28,2024.1.4,None,2024-07-01 23h26.21.272468 +0900,
Images/Speaker1.jpg,Images/Speaker2.jpg,Images/Speaker3.jpg,Images/Speaker4.jpg,Audio/Speaker2_Per/P2-8-Per.wav,Speaker2,گوینده۲,2,29,189,27,,,,,72.4561939999985,,,,,,,,,,,,,,,,,,,,,,,,,,,,,,,,,,,,,,,,,,,,,51.26734004099853,51.267517707998195,091864,001,2024-07-01_23h26.16.227,5-28,2024.1.4,None,2024-07-01 23h26.21.272468 +0900,
Images/Speaker1.jpg,Images/Speaker2.jpg,Images/Speaker3.jpg,Images/Speaker4.jpg,Audio/Speaker4_Per/P4-13-Per.wav,Speaker4,گوینده۴,2,30,190,72,,,,,72.4561939999985,,,,,,,,,,,,,,,,,,,,,,,,,,,,,,,,,,,,,,,,,,,,,51.28385533299661,51.284036999997625,091864,001,2024-07-01_23h26.16.227,5-28,2024.1.4,None,2024-07-01 23h26.21.272468 +0900,
Images/Speaker1.jpg,Images/Speaker2.jpg,Images/Speaker3.jpg,Images/Speaker4.jpg,Audio/Speaker3_Per/P3-19-Per.wav,Speaker3,گوینده۳,2,31,191,58,,,,,72.4561939999985,,,,,,,,,,,,,,,,,,,,,,,,,,,,,,,,,,,,,,,,,,,,,51.29974412499723,51.29989949999799,091864,001,2024-07-01_23h26.16.227,5-28,2024.1.4,None,2024-07-01 23h26.21.272468 +0900,
Images/Speaker1.jpg,Images/Speaker2.jpg,Images/Speaker3.jpg,Images/Speaker4.jpg,Audio/Speaker3_Per/P3-10-Per.wav,Speaker3,گوینده۳,2,32,192,49,,,,,72.4561939999985,,,,,,,,,,,,,,,,,,,,,,,,,,,,,,,,,,,,,,,,,,,,,51.31571329099825,51.31590291599787,091864,001,2024-07-01_23h26.16.227,5-28,2024.1.4,None,2024-07-01 23h26.21.272468 +0900,
Images/Speaker1.jpg,Images/Speaker2.jpg,Images/Speaker3.jpg,Images/Speaker4.jpg,Audio/Speaker1_Per/P1-1-Per.wav,Speaker1,گوینده ۱,2,33,193,0,,,,,72.4561939999985,,,,,,,,,,,,,,,,,,,,,,,,,,,,,,,,,,,,,,,,,,,,,51.331821540999954,51.332047040999896,091864,001,2024-07-01_23h26.16.227,5-28,2024.1.4,None,2024-07-01 23h26.21.272468 +0900,
Images/Speaker1.jpg,Images/Speaker2.jpg,Images/Speaker3.jpg,Images/Speaker4.jpg,Audio/Speaker2_Per/P2-18-Per.wav,Speaker2,گوینده۲,2,34,194,37,,,,,72.4561939999985,,,,,,,,,,,,,,,,,,,,,,,,,,,,,,,,,,,,,,,,,,,,,51.3483792909974,51.34855654099738,091864,001,2024-07-01_23h26.16.227,5-28,2024.1.4,None,2024-07-01 23h26.21.272468 +0900,
Images/Speaker1.jpg,Images/Speaker2.jpg,Images/Speaker3.jpg,Images/Speaker4.jpg,Audio/Speaker3_Per/P3-3-Per.wav,Speaker3,گوینده۳,2,35,195,42,,,,,72.4561939999985,,,,,,,,,,,,,,,,,,,,,,,,,,,,,,,,,,,,,,,,,,,,,51.36423012499654,51.3643922079973,091864,001,2024-07-01_23h26.16.227,5-28,2024.1.4,None,2024-07-01 23h26.21.272468 +0900,
Images/Speaker1.jpg,Images/Speaker2.jpg,Images/Speaker3.jpg,Images/Speaker4.jpg,Audio/Speaker4_Per/P4-11-Per.wav,Speaker4,گوینده۴,2,36,196,70,,,,,72.4561939999985,,,,,,,,,,,,,,,,,,,,,,,,,,,,,,,,,,,,,,,,,,,,,51.38014249999833,51.38029679099782,091864,001,2024-07-01_23h26.16.227,5-28,2024.1.4,None,2024-07-01 23h26.21.272468 +0900,
Images/Speaker1.jpg,Images/Speaker2.jpg,Images/Speaker3.jpg,Images/Speaker4.jpg,Audio/Speaker3_Per/P3-8-Per.wav,Speaker3,گوینده۳,2,37,197,47,,,,,72.4561939999985,,,,,,,,,,,,,,,,,,,,,,,,,,,,,,,,,,,,,,,,,,,,,51.396021207998274,51.396183415999985,091864,001,2024-07-01_23h26.16.227,5-28,2024.1.4,None,2024-07-01 23h26.21.272468 +0900,
Images/Speaker1.jpg,Images/Speaker2.jpg,Images/Speaker3.jpg,Images/Speaker4.jpg,Audio/Speaker4_Per/P4-3-Per.wav,Speaker4,گوینده۴,2,38,198,62,,,,,72.4561939999985,,,,,,,,,,,,,,,,,,,,,,,,,,,,,,,,,,,,,,,,,,,,,51.41268433299774,51.41284870799791,091864,001,2024-07-01_23h26.16.227,5-28,2024.1.4,None,2024-07-01 23h26.21.272468 +0900,
Images/Speaker1.jpg,Images/Speaker2.jpg,Images/Speaker3.jpg,Images/Speaker4.jpg,Audio/Speaker1_Per/P1-7-Per.wav,Speaker1,گوینده ۱,2,39,199,6,,,,,72.4561939999985,,,,,,,,,,,,,,,,,,,,,,,,,,,,,,,,,,,,,,,,,,,,,51.428597624999384,51.428759707996505,091864,001,2024-07-01_23h26.16.227,5-28,2024.1.4,None,2024-07-01 23h26.21.272468 +0900,
Images/Speaker1.jpg,Images/Speaker2.jpg,Images/Speaker3.jpg,Images/Speaker4.jpg,Audio/Speaker4_Per/P4-20-Per.wav,Speaker4,گوینده۴,2,40,200,79,,,,,72.4561939999985,,,,,,,,,,,,,,,,,,,,,,,,,,,,,,,,,,,,,,,,,,,,,51.44453112499832,51.44469208299779,091864,001,2024-07-01_23h26.16.227,5-28,2024.1.4,None,2024-07-01 23h26.21.272468 +0900,
Images/Speaker1.jpg,Images/Speaker2.jpg,Images/Speaker3.jpg,Images/Speaker4.jpg,Audio/Speaker4_Per/P4-6-Per.wav,Speaker4,گوینده۴,2,41,201,65,,,,,72.4561939999985,,,,,,,,,,,,,,,,,,,,,,,,,,,,,,,,,,,,,,,,,,,,,51.46046479099823,51.46062287499808,091864,001,2024-07-01_23h26.16.227,5-28,2024.1.4,None,2024-07-01 23h26.21.272468 +0900,
Images/Speaker1.jpg,Images/Speaker2.jpg,Images/Speaker3.jpg,Images/Speaker4.jpg,Audio/Speaker4_Per/P4-2-Per.wav,Speaker4,گوینده۴,2,42,202,61,,,,,72.4561939999985,,,,,,,,,,,,,,,,,,,,,,,,,,,,,,,,,,,,,,,,,,,,,51.47700904099838,51.47716945799766,091864,001,2024-07-01_23h26.16.227,5-28,2024.1.4,None,2024-07-01 23h26.21.272468 +0900,
Images/Speaker1.jpg,Images/Speaker2.jpg,Images/Speaker3.jpg,Images/Speaker4.jpg,Audio/Speaker2_Per/P2-7-Per.wav,Speaker2,گوینده۲,2,43,203,26,,,,,72.4561939999985,,,,,,,,,,,,,,,,,,,,,,,,,,,,,,,,,,,,,,,,,,,,,51.49289070799932,51.49308870799723,091864,001,2024-07-01_23h26.16.227,5-28,2024.1.4,None,2024-07-01 23h26.21.272468 +0900,
Images/Speaker1.jpg,Images/Speaker2.jpg,Images/Speaker3.jpg,Images/Speaker4.jpg,Audio/Speaker2_Per/P2-14-Per.wav,Speaker2,گوینده۲,2,44,204,33,,,,,72.4561939999985,,,,,,,,,,,,,,,,,,,,,,,,,,,,,,,,,,,,,,,,,,,,,51.50880062499709,51.50895520799895,091864,001,2024-07-01_23h26.16.227,5-28,2024.1.4,None,2024-07-01 23h26.21.272468 +0900,
Images/Speaker1.jpg,Images/Speaker2.jpg,Images/Speaker3.jpg,Images/Speaker4.jpg,Audio/Speaker1_Per/P1-9-Per.wav,Speaker1,گوینده ۱,2,45,205,8,,,,,72.4561939999985,,,,,,,,,,,,,,,,,,,,,,,,,,,,,,,,,,,,,,,,,,,,,51.524743832997046,51.52498333299809,091864,001,2024-07-01_23h26.16.227,5-28,2024.1.4,None,2024-07-01 23h26.21.272468 +0900,
Images/Speaker1.jpg,Images/Speaker2.jpg,Images/Speaker3.jpg,Images/Speaker4.jpg,Audio/Speaker4_Per/P4-16-Per.wav,Speaker4,گوینده۴,2,46,206,75,,,,,72.4561939999985,,,,,,,,,,,,,,,,,,,,,,,,,,,,,,,,,,,,,,,,,,,,,51.54144966599779,51.5416310829969,091864,001,2024-07-01_23h26.16.227,5-28,2024.1.4,None,2024-07-01 23h26.21.272468 +0900,
Images/Speaker1.jpg,Images/Speaker2.jpg,Images/Speaker3.jpg,Images/Speaker4.jpg,Audio/Speaker4_Per/P4-9-Per.wav,Speaker4,گوینده۴,2,47,207,68,,,,,72.4561939999985,,,,,,,,,,,,,,,,,,,,,,,,,,,,,,,,,,,,,,,,,,,,,51.55736316599723,51.55752045799818,091864,001,2024-07-01_23h26.16.227,5-28,2024.1.4,None,2024-07-01 23h26.21.272468 +0900,
Images/Speaker1.jpg,Images/Speaker2.jpg,Images/Speaker3.jpg,Images/Speaker4.jpg,Audio/Speaker3_Per/P3-17-Per.wav,Speaker3,گوینده۳,2,48,208,56,,,,,72.4561939999985,,,,,,,,,,,,,,,,,,,,,,,,,,,,,,,,,,,,,,,,,,,,,51.57331612499911,51.57348916599949,091864,001,2024-07-01_23h26.16.227,5-28,2024.1.4,None,2024-07-01 23h26.21.272468 +0900,
Images/Speaker1.jpg,Images/Speaker2.jpg,Images/Speaker3.jpg,Images/Speaker4.jpg,Audio/Speaker1_Per/P1-18-Per.wav,Speaker1,گوینده ۱,2,49,209,17,,,,,72.4561939999985,,,,,,,,,,,,,,,,,,,,,,,,,,,,,,,,,,,,,,,,,,,,,51.589166290999856,51.589324290998775,091864,001,2024-07-01_23h26.16.227,5-28,2024.1.4,None,2024-07-01 23h26.21.272468 +0900,
Images/Speaker1.jpg,Images/Speaker2.jpg,Images/Speaker3.jpg,Images/Speaker4.jpg,Audio/Speaker3_Per/P3-16-Per.wav,Speaker3,گوینده۳,2,50,210,55,,,,,72.4561939999985,,,,,,,,,,,,,,,,,,,,,,,,,,,,,,,,,,,,,,,,,,,,,51.60569787499844,51.60590149999916,091864,001,2024-07-01_23h26.16.227,5-28,2024.1.4,None,2024-07-01 23h26.21.272468 +0900,
Images/Speaker1.jpg,Images/Speaker2.jpg,Images/Speaker3.jpg,Images/Speaker4.jpg,Audio/Speaker1_Per/P1-6-Per.wav,Speaker1,گوینده ۱,2,51,211,5,,,,,72.4561939999985,,,,,,,,,,,,,,,,,,,,,,,,,,,,,,,,,,,,,,,,,,,,,51.62160962499911,51.621771957998135,091864,001,2024-07-01_23h26.16.227,5-28,2024.1.4,None,2024-07-01 23h26.21.272468 +0900,
Images/Speaker1.jpg,Images/Speaker2.jpg,Images/Speaker3.jpg,Images/Speaker4.jpg,Audio/Speaker3_Per/P3-5-Per.wav,Speaker3,گوینده۳,2,52,212,44,,,,,72.4561939999985,,,,,,,,,,,,,,,,,,,,,,,,,,,,,,,,,,,,,,,,,,,,,51.63757999999871,51.63779637499829,091864,001,2024-07-01_23h26.16.227,5-28,2024.1.4,None,2024-07-01 23h26.21.272468 +0900,
Images/Speaker1.jpg,Images/Speaker2.jpg,Images/Speaker3.jpg,Images/Speaker4.jpg,Audio/Speaker1_Per/P1-10-Per.wav,Speaker1,گوینده ۱,2,53,213,9,,,,,72.4561939999985,,,,,,,,,,,,,,,,,,,,,,,,,,,,,,,,,,,,,,,,,,,,,51.65355179099788,51.65372312499676,091864,001,2024-07-01_23h26.16.227,5-28,2024.1.4,None,2024-07-01 23h26.21.272468 +0900,
Images/Speaker1.jpg,Images/Speaker2.jpg,Images/Speaker3.jpg,Images/Speaker4.jpg,Audio/Speaker4_Per/P4-7-Per.wav,Speaker4,گوینده۴,2,54,214,66,,,,,72.4561939999985,,,,,,,,,,,,,,,,,,,,,,,,,,,,,,,,,,,,,,,,,,,,,51.670126040997275,51.670299124998564,091864,001,2024-07-01_23h26.16.227,5-28,2024.1.4,None,2024-07-01 23h26.21.272468 +0900,
Images/Speaker1.jpg,Images/Speaker2.jpg,Images/Speaker3.jpg,Images/Speaker4.jpg,Audio/Speaker4_Per/P4-12-Per.wav,Speaker4,گوینده۴,2,55,215,71,,,,,72.4561939999985,,,,,,,,,,,,,,,,,,,,,,,,,,,,,,,,,,,,,,,,,,,,,51.68608291599958,51.68625387499924,091864,001,2024-07-01_23h26.16.227,5-28,2024.1.4,None,2024-07-01 23h26.21.272468 +0900,
Images/Speaker1.jpg,Images/Speaker2.jpg,Images/Speaker3.jpg,Images/Speaker4.jpg,Audio/Speaker2_Per/P2-5-Per.wav,Speaker2,گوینده۲,2,56,216,24,,,,,72.4561939999985,,,,,,,,,,,,,,,,,,,,,,,,,,,,,,,,,,,,,,,,,,,,,51.70225883300009,51.702436749998014,091864,001,2024-07-01_23h26.16.227,5-28,2024.1.4,None,2024-07-01 23h26.21.272468 +0900,
Images/Speaker1.jpg,Images/Speaker2.jpg,Images/Speaker3.jpg,Images/Speaker4.jpg,Audio/Speaker4_Per/P4-4-Per.wav,Speaker4,گوینده۴,2,57,217,63,,,,,72.4561939999985,,,,,,,,,,,,,,,,,,,,,,,,,,,,,,,,,,,,,,,,,,,,,51.71825845799685,51.718461582997406,091864,001,2024-07-01_23h26.16.227,5-28,2024.1.4,None,2024-07-01 23h26.21.272468 +0900,
Images/Speaker1.jpg,Images/Speaker2.jpg,Images/Speaker3.jpg,Images/Speaker4.jpg,Audio/Speaker1_Per/P1-3-Per.wav,Speaker1,گوینده ۱,2,58,218,2,,,,,72.4561939999985,,,,,,,,,,,,,,,,,,,,,,,,,,,,,,,,,,,,,,,,,,,,,51.734819040997536,51.7349723749976,091864,001,2024-07-01_23h26.16.227,5-28,2024.1.4,None,2024-07-01 23h26.21.272468 +0900,
Images/Speaker1.jpg,Images/Speaker2.jpg,Images/Speaker3.jpg,Images/Speaker4.jpg,Audio/Speaker3_Per/P3-4-Per.wav,Speaker3,گوینده۳,2,59,219,43,,,,,72.4561939999985,,,,,,,,,,,,,,,,,,,,,,,,,,,,,,,,,,,,,,,,,,,,,51.75069183300002,51.750853249999636,091864,001,2024-07-01_23h26.16.227,5-28,2024.1.4,None,2024-07-01 23h26.21.272468 +0900,
Images/Speaker1.jpg,Images/Speaker2.jpg,Images/Speaker3.jpg,Images/Speaker4.jpg,Audio/Speaker3_Per/P3-1-Per.wav,Speaker3,گوینده۳,2,60,220,40,,,,,72.4561939999985,,,,,,,,,,,,,,,,,,,,,,,,,,,,,,,,,,,,,,,,,,,,,51.76664837499993,51.76681287499741,091864,001,2024-07-01_23h26.16.227,5-28,2024.1.4,None,2024-07-01 23h26.21.272468 +0900,
Images/Speaker1.jpg,Images/Speaker2.jpg,Images/Speaker3.jpg,Images/Speaker4.jpg,Audio/Speaker1_Per/P1-20-Per.wav,Speaker1,گوینده ۱,2,61,221,19,,,,,72.4561939999985,,,,,,,,,,,,,,,,,,,,,,,,,,,,,,,,,,,,,,,,,,,,,51.78266108299795,51.78283437499704,091864,001,2024-07-01_23h26.16.227,5-28,2024.1.4,None,2024-07-01 23h26.21.272468 +0900,
Images/Speaker1.jpg,Images/Speaker2.jpg,Images/Speaker3.jpg,Images/Speaker4.jpg,Audio/Speaker4_Per/P4-19-Per.wav,Speaker4,گوینده۴,2,62,222,78,,,,,72.4561939999985,,,,,,,,,,,,,,,,,,,,,,,,,,,,,,,,,,,,,,,,,,,,,51.79919291599799,51.79936279100002,091864,001,2024-07-01_23h26.16.227,5-28,2024.1.4,None,2024-07-01 23h26.21.272468 +0900,
Images/Speaker1.jpg,Images/Speaker2.jpg,Images/Speaker3.jpg,Images/Speaker4.jpg,Audio/Speaker3_Per/P3-12-Per.wav,Speaker3,گوینده۳,2,63,223,51,,,,,72.4561939999985,,,,,,,,,,,,,,,,,,,,,,,,,,,,,,,,,,,,,,,,,,,,,51.81511099999989,51.81533820799814,091864,001,2024-07-01_23h26.16.227,5-28,2024.1.4,None,2024-07-01 23h26.21.272468 +0900,
Images/Speaker1.jpg,Images/Speaker2.jpg,Images/Speaker3.jpg,Images/Speaker4.jpg,Audio/Speaker3_Per/P3-15-Per.wav,Speaker3,گوینده۳,2,64,224,54,,,,,72.4561939999985,,,,,,,,,,,,,,,,,,,,,,,,,,,,,,,,,,,,,,,,,,,,,51.83113066599981,51.83135920799759,091864,001,2024-07-01_23h26.16.227,5-28,2024.1.4,None,2024-07-01 23h26.21.272468 +0900,
Images/Speaker1.jpg,Images/Speaker2.jpg,Images/Speaker3.jpg,Images/Speaker4.jpg,Audio/Speaker2_Per/P2-15-Per.wav,Speaker2,گوینده۲,2,65,225,34,,,,,72.4561939999985,,,,,,,,,,,,,,,,,,,,,,,,,,,,,,,,,,,,,,,,,,,,,51.847154415998375,51.847358707997046,091864,001,2024-07-01_23h26.16.227,5-28,2024.1.4,None,2024-07-01 23h26.21.272468 +0900,
Images/Speaker1.jpg,Images/Speaker2.jpg,Images/Speaker3.jpg,Images/Speaker4.jpg,Audio/Speaker1_Per/P1-15-Per.wav,Speaker1,گوینده ۱,2,66,226,14,,,,,72.4561939999985,,,,,,,,,,,,,,,,,,,,,,,,,,,,,,,,,,,,,,,,,,,,,51.863721624999016,51.863887957999395,091864,001,2024-07-01_23h26.16.227,5-28,2024.1.4,None,2024-07-01 23h26.21.272468 +0900,
Images/Speaker1.jpg,Images/Speaker2.jpg,Images/Speaker3.jpg,Images/Speaker4.jpg,Audio/Speaker2_Per/P2-16-Per.wav,Speaker2,گوینده۲,2,67,227,35,,,,,72.4561939999985,,,,,,,,,,,,,,,,,,,,,,,,,,,,,,,,,,,,,,,,,,,,,51.87961987499875,51.879800999999134,091864,001,2024-07-01_23h26.16.227,5-28,2024.1.4,None,2024-07-01 23h26.21.272468 +0900,
Images/Speaker1.jpg,Images/Speaker2.jpg,Images/Speaker3.jpg,Images/Speaker4.jpg,Audio/Speaker2_Per/P2-10-Per.wav,Speaker2,گوینده۲,2,68,228,29,,,,,72.4561939999985,,,,,,,,,,,,,,,,,,,,,,,,,,,,,,,,,,,,,,,,,,,,,51.895679457997176,51.89585362499929,091864,001,2024-07-01_23h26.16.227,5-28,2024.1.4,None,2024-07-01 23h26.21.272468 +0900,
Images/Speaker1.jpg,Images/Speaker2.jpg,Images/Speaker3.jpg,Images/Speaker4.jpg,Audio/Speaker2_Per/P2-9-Per.wav,Speaker2,گوینده۲,2,69,229,28,,,,,72.4561939999985,,,,,,,,,,,,,,,,,,,,,,,,,,,,,,,,,,,,,,,,,,,,,51.911987374998716,51.91220529099883,091864,001,2024-07-01_23h26.16.227,5-28,2024.1.4,None,2024-07-01 23h26.21.272468 +0900,
Images/Speaker1.jpg,Images/Speaker2.jpg,Images/Speaker3.jpg,Images/Speaker4.jpg,Audio/Speaker3_Per/P3-11-Per.wav,Speaker3,گوینده۳,2,70,230,50,,,,,72.4561939999985,,,,,,,,,,,,,,,,,,,,,,,,,,,,,,,,,,,,,,,,,,,,,51.92855629099722,51.928715165999165,091864,001,2024-07-01_23h26.16.227,5-28,2024.1.4,None,2024-07-01 23h26.21.272468 +0900,
Images/Speaker1.jpg,Images/Speaker2.jpg,Images/Speaker3.jpg,Images/Speaker4.jpg,Audio/Speaker2_Per/P2-19-Per.wav,Speaker2,گوینده۲,2,71,231,38,,,,,72.4561939999985,,,,,,,,,,,,,,,,,,,,,,,,,,,,,,,,,,,,,,,,,,,,,51.94448908299819,51.94465341599789,091864,001,2024-07-01_23h26.16.227,5-28,2024.1.4,None,2024-07-01 23h26.21.272468 +0900,
Images/Speaker1.jpg,Images/Speaker2.jpg,Images/Speaker3.jpg,Images/Speaker4.jpg,Audio/Speaker1_Per/P1-11-Per.wav,Speaker1,گوینده ۱,2,72,232,10,,,,,72.4561939999985,,,,,,,,,,,,,,,,,,,,,,,,,,,,,,,,,,,,,,,,,,,,,51.96041041599892,51.96058137499858,091864,001,2024-07-01_23h26.16.227,5-28,2024.1.4,None,2024-07-01 23h26.21.272468 +0900,
Images/Speaker1.jpg,Images/Speaker2.jpg,Images/Speaker3.jpg,Images/Speaker4.jpg,Audio/Speaker1_Per/P1-19-Per.wav,Speaker1,گوینده ۱,2,73,233,18,,,,,72.4561939999985,,,,,,,,,,,,,,,,,,,,,,,,,,,,,,,,,,,,,,,,,,,,,51.97638066599757,51.976551207997545,091864,001,2024-07-01_23h26.16.227,5-28,2024.1.4,None,2024-07-01 23h26.21.272468 +0900,
Images/Speaker1.jpg,Images/Speaker2.jpg,Images/Speaker3.jpg,Images/Speaker4.jpg,Audio/Speaker4_Per/P4-18-Per.wav,Speaker4,گوینده۴,2,74,234,77,,,,,72.4561939999985,,,,,,,,,,,,,,,,,,,,,,,,,,,,,,,,,,,,,,,,,,,,,51.992944915997214,51.99311470799876,091864,001,2024-07-01_23h26.16.227,5-28,2024.1.4,None,2024-07-01 23h26.21.272468 +0900,
Images/Speaker1.jpg,Images/Speaker2.jpg,Images/Speaker3.jpg,Images/Speaker4.jpg,Audio/Speaker2_Per/P2-20-Per.wav,Speaker2,گوینده۲,2,75,235,39,,,,,72.4561939999985,,,,,,,,,,,,,,,,,,,,,,,,,,,,,,,,,,,,,,,,,,,,,52.00887087499723,52.009091582996916,091864,001,2024-07-01_23h26.16.227,5-28,2024.1.4,None,2024-07-01 23h26.21.272468 +0900,
Images/Speaker1.jpg,Images/Speaker2.jpg,Images/Speaker3.jpg,Images/Speaker4.jpg,Audio/Speaker1_Per/P1-12-Per.wav,Speaker1,گوینده ۱,2,76,236,11,,,,,72.4561939999985,,,,,,,,,,,,,,,,,,,,,,,,,,,,,,,,,,,,,,,,,,,,,52.02491674999692,52.0250841249981,091864,001,2024-07-01_23h26.16.227,5-28,2024.1.4,None,2024-07-01 23h26.21.272468 +0900,
Images/Speaker1.jpg,Images/Speaker2.jpg,Images/Speaker3.jpg,Images/Speaker4.jpg,Audio/Speaker4_Per/P4-15-Per.wav,Speaker4,گوینده۴,2,77,237,74,,,,,72.4561939999985,,,,,,,,,,,,,,,,,,,,,,,,,,,,,,,,,,,,,,,,,,,,,52.040825957999914,52.041031415999896,091864,001,2024-07-01_23h26.16.227,5-28,2024.1.4,None,2024-07-01 23h26.21.272468 +0900,
Images/Speaker1.jpg,Images/Speaker2.jpg,Images/Speaker3.jpg,Images/Speaker4.jpg,Audio/Speaker1_Per/P1-16-Per.wav,Speaker1,گوینده ۱,2,78,238,15,,,,,72.4561939999985,,,,,,,,,,,,,,,,,,,,,,,,,,,,,,,,,,,,,,,,,,,,,52.057402915997955,52.05757949999679,091864,001,2024-07-01_23h26.16.227,5-28,2024.1.4,None,2024-07-01 23h26.21.272468 +0900,
Images/Speaker1.jpg,Images/Speaker2.jpg,Images/Speaker3.jpg,Images/Speaker4.jpg,Audio/Speaker1_Per/P1-13-Per.wav,Speaker1,گوینده ۱,2,79,239,12,,,,,72.4561939999985,,,,,,,,,,,,,,,,,,,,,,,,,,,,,,,,,,,,,,,,,,,,,52.07333170799757,52.07350574999873,091864,001,2024-07-01_23h26.16.227,5-28,2024.1.4,None,2024-07-01 23h26.21.272468 +0900,
Images/Speaker1.jpg,Images/Speaker2.jpg,Images/Speaker3.jpg,Images/Speaker4.jpg,Audio/Speaker4_Per/P4-11-Per.wav,Speaker4,گوینده۴,3,0,240,70,,,,,72.4561939999985,,,,,,,,,,,,,,,,,,,,,,,,,,,,,,,,,,,,,,,,,,,,,52.089578832998086,52.0897850409965,091864,001,2024-07-01_23h26.16.227,5-28,2024.1.4,None,2024-07-01 23h26.21.272468 +0900,
Images/Speaker1.jpg,Images/Speaker2.jpg,Images/Speaker3.jpg,Images/Speaker4.jpg,Audio/Speaker1_Per/P1-1-Per.wav,Speaker1,گوینده ۱,3,1,241,0,,,,,72.4561939999985,,,,,,,,,,,,,,,,,,,,,,,,,,,,,,,,,,,,,,,,,,,,,52.10554462499931,52.10571704099857,091864,001,2024-07-01_23h26.16.227,5-28,2024.1.4,None,2024-07-01 23h26.21.272468 +0900,
Images/Speaker1.jpg,Images/Speaker2.jpg,Images/Speaker3.jpg,Images/Speaker4.jpg,Audio/Speaker2_Per/P2-17-Per.wav,Speaker2,گوینده۲,3,2,242,36,,,,,72.4561939999985,,,,,,,,,,,,,,,,,,,,,,,,,,,,,,,,,,,,,,,,,,,,,52.12211883299824,52.1222892079968,091864,001,2024-07-01_23h26.16.227,5-28,2024.1.4,None,2024-07-01 23h26.21.272468 +0900,
Images/Speaker1.jpg,Images/Speaker2.jpg,Images/Speaker3.jpg,Images/Speaker4.jpg,Audio/Speaker4_Per/P4-14-Per.wav,Speaker4,گوینده۴,3,3,243,73,,,,,72.4561939999985,,,,,,,,,,,,,,,,,,,,,,,,,,,,,,,,,,,,,,,,,,,,,52.13804174999677,52.13820441599819,091864,001,2024-07-01_23h26.16.227,5-28,2024.1.4,None,2024-07-01 23h26.21.272468 +0900,
Images/Speaker1.jpg,Images/Speaker2.jpg,Images/Speaker3.jpg,Images/Speaker4.jpg,Audio/Speaker4_Per/P4-2-Per.wav,Speaker4,گوینده۴,3,4,244,61,,,,,72.4561939999985,,,,,,,,,,,,,,,,,,,,,,,,,,,,,,,,,,,,,,,,,,,,,52.153962249998585,52.15413112499664,091864,001,2024-07-01_23h26.16.227,5-28,2024.1.4,None,2024-07-01 23h26.21.272468 +0900,
Images/Speaker1.jpg,Images/Speaker2.jpg,Images/Speaker3.jpg,Images/Speaker4.jpg,Audio/Speaker3_Per/P3-17-Per.wav,Speaker3,گوینده۳,3,5,245,56,,,,,72.4561939999985,,,,,,,,,,,,,,,,,,,,,,,,,,,,,,,,,,,,,,,,,,,,,52.16988175000006,52.1700582079975,091864,001,2024-07-01_23h26.16.227,5-28,2024.1.4,None,2024-07-01 23h26.21.272468 +0900,
Images/Speaker1.jpg,Images/Speaker2.jpg,Images/Speaker3.jpg,Images/Speaker4.jpg,Audio/Speaker4_Per/P4-3-Per.wav,Speaker4,گوینده۴,3,6,246,62,,,,,72.4561939999985,,,,,,,,,,,,,,,,,,,,,,,,,,,,,,,,,,,,,,,,,,,,,52.186331165998126,52.186501499996666,091864,001,2024-07-01_23h26.16.227,5-28,2024.1.4,None,2024-07-01 23h26.21.272468 +0900,
Images/Speaker1.jpg,Images/Speaker2.jpg,Images/Speaker3.jpg,Images/Speaker4.jpg,Audio/Speaker3_Per/P3-16-Per.wav,Speaker3,گوینده۳,3,7,247,55,,,,,72.4561939999985,,,,,,,,,,,,,,,,,,,,,,,,,,,,,,,,,,,,,,,,,,,,,52.20224379099818,52.20244312499926,091864,001,2024-07-01_23h26.16.227,5-28,2024.1.4,None,2024-07-01 23h26.21.272468 +0900,
Images/Speaker1.jpg,Images/Speaker2.jpg,Images/Speaker3.jpg,Images/Speaker4.jpg,Audio/Speaker2_Per/P2-20-Per.wav,Speaker2,گوینده۲,3,8,248,39,,,,,72.4561939999985,,,,,,,,,,,,,,,,,,,,,,,,,,,,,,,,,,,,,,,,,,,,,52.21827791599935,52.218496540997876,091864,001,2024-07-01_23h26.16.227,5-28,2024.1.4,None,2024-07-01 23h26.21.272468 +0900,
Images/Speaker1.jpg,Images/Speaker2.jpg,Images/Speaker3.jpg,Images/Speaker4.jpg,Audio/Speaker4_Per/P4-5-Per.wav,Speaker4,گوینده۴,3,9,249,64,,,,,72.4561939999985,,,,,,,,,,,,,,,,,,,,,,,,,,,,,,,,,,,,,,,,,,,,,52.234378207998816,52.23454779099848,091864,001,2024-07-01_23h26.16.227,5-28,2024.1.4,None,2024-07-01 23h26.21.272468 +0900,
Images/Speaker1.jpg,Images/Speaker2.jpg,Images/Speaker3.jpg,Images/Speaker4.jpg,Audio/Speaker2_Per/P2-10-Per.wav,Speaker2,گوینده۲,3,10,250,29,,,,,72.4561939999985,,,,,,,,,,,,,,,,,,,,,,,,,,,,,,,,,,,,,,,,,,,,,52.25078520799798,52.250939332996495,091864,001,2024-07-01_23h26.16.227,5-28,2024.1.4,None,2024-07-01 23h26.21.272468 +0900,
Images/Speaker1.jpg,Images/Speaker2.jpg,Images/Speaker3.jpg,Images/Speaker4.jpg,Audio/Speaker1_Per/P1-18-Per.wav,Speaker1,گوینده ۱,3,11,251,17,,,,,72.4561939999985,,,,,,,,,,,,,,,,,,,,,,,,,,,,,,,,,,,,,,,,,,,,,52.266761749997386,52.26693075000003,091864,001,2024-07-01_23h26.16.227,5-28,2024.1.4,None,2024-07-01 23h26.21.272468 +0900,
Images/Speaker1.jpg,Images/Speaker2.jpg,Images/Speaker3.jpg,Images/Speaker4.jpg,Audio/Speaker2_Per/P2-12-Per.wav,Speaker2,گوینده۲,3,12,252,31,,,,,72.4561939999985,,,,,,,,,,,,,,,,,,,,,,,,,,,,,,,,,,,,,,,,,,,,,52.28260533299908,52.28276895799718,091864,001,2024-07-01_23h26.16.227,5-28,2024.1.4,None,2024-07-01 23h26.21.272468 +0900,
Images/Speaker1.jpg,Images/Speaker2.jpg,Images/Speaker3.jpg,Images/Speaker4.jpg,Audio/Speaker1_Per/P1-10-Per.wav,Speaker1,گوینده ۱,3,13,253,9,,,,,72.4561939999985,,,,,,,,,,,,,,,,,,,,,,,,,,,,,,,,,,,,,,,,,,,,,52.298581166000076,52.29876974999934,091864,001,2024-07-01_23h26.16.227,5-28,2024.1.4,None,2024-07-01 23h26.21.272468 +0900,
Images/Speaker1.jpg,Images/Speaker2.jpg,Images/Speaker3.jpg,Images/Speaker4.jpg,Audio/Speaker1_Per/P1-6-Per.wav,Speaker1,گوینده ۱,3,14,254,5,,,,,72.4561939999985,,,,,,,,,,,,,,,,,,,,,,,,,,,,,,,,,,,,,,,,,,,,,52.31506483299745,52.315239207997365,091864,001,2024-07-01_23h26.16.227,5-28,2024.1.4,None,2024-07-01 23h26.21.272468 +0900,
Images/Speaker1.jpg,Images/Speaker2.jpg,Images/Speaker3.jpg,Images/Speaker4.jpg,Audio/Speaker4_Per/P4-9-Per.wav,Speaker4,گوینده۴,3,15,255,68,,,,,72.4561939999985,,,,,,,,,,,,,,,,,,,,,,,,,,,,,,,,,,,,,,,,,,,,,52.33093020799788,52.33108529099991,091864,001,2024-07-01_23h26.16.227,5-28,2024.1.4,None,2024-07-01 23h26.21.272468 +0900,
Images/Speaker1.jpg,Images/Speaker2.jpg,Images/Speaker3.jpg,Images/Speaker4.jpg,Audio/Speaker3_Per/P3-19-Per.wav,Speaker3,گوینده۳,3,16,256,58,,,,,72.4561939999985,,,,,,,,,,,,,,,,,,,,,,,,,,,,,,,,,,,,,,,,,,,,,52.34706683299737,52.3472517079972,091864,001,2024-07-01_23h26.16.227,5-28,2024.1.4,None,2024-07-01 23h26.21.272468 +0900,
Images/Speaker1.jpg,Images/Speaker2.jpg,Images/Speaker3.jpg,Images/Speaker4.jpg,Audio/Speaker2_Per/P2-15-Per.wav,Speaker2,گوینده۲,3,17,257,34,,,,,72.4561939999985,,,,,,,,,,,,,,,,,,,,,,,,,,,,,,,,,,,,,,,,,,,,,52.36297345799903,52.36318404099802,091864,001,2024-07-01_23h26.16.227,5-28,2024.1.4,None,2024-07-01 23h26.21.272468 +0900,
Images/Speaker1.jpg,Images/Speaker2.jpg,Images/Speaker3.jpg,Images/Speaker4.jpg,Audio/Speaker3_Per/P3-11-Per.wav,Speaker3,گوینده۳,3,18,258,50,,,,,72.4561939999985,,,,,,,,,,,,,,,,,,,,,,,,,,,,,,,,,,,,,,,,,,,,,52.3794999999991,52.379659540998546,091864,001,2024-07-01_23h26.16.227,5-28,2024.1.4,None,2024-07-01 23h26.21.272468 +0900,
Images/Speaker1.jpg,Images/Speaker2.jpg,Images/Speaker3.jpg,Images/Speaker4.jpg,Audio/Speaker1_Per/P1-19-Per.wav,Speaker1,گوینده ۱,3,19,259,18,,,,,72.4561939999985,,,,,,,,,,,,,,,,,,,,,,,,,,,,,,,,,,,,,,,,,,,,,52.395426540999324,52.39560579099998,091864,001,2024-07-01_23h26.16.227,5-28,2024.1.4,None,2024-07-01 23h26.21.272468 +0900,
Images/Speaker1.jpg,Images/Speaker2.jpg,Images/Speaker3.jpg,Images/Speaker4.jpg,Audio/Speaker2_Per/P2-7-Per.wav,Speaker2,گوینده۲,3,20,260,26,,,,,72.4561939999985,,,,,,,,,,,,,,,,,,,,,,,,,,,,,,,,,,,,,,,,,,,,,52.411348415997054,52.41154275000008,091864,001,2024-07-01_23h26.16.227,5-28,2024.1.4,None,2024-07-01 23h26.21.272468 +0900,
Images/Speaker1.jpg,Images/Speaker2.jpg,Images/Speaker3.jpg,Images/Speaker4.jpg,Audio/Speaker4_Per/P4-16-Per.wav,Speaker4,گوینده۴,3,21,261,75,,,,,72.4561939999985,,,,,,,,,,,,,,,,,,,,,,,,,,,,,,,,,,,,,,,,,,,,,52.42733066599976,52.42753087499659,091864,001,2024-07-01_23h26.16.227,5-28,2024.1.4,None,2024-07-01 23h26.21.272468 +0900,
Images/Speaker1.jpg,Images/Speaker2.jpg,Images/Speaker3.jpg,Images/Speaker4.jpg,Audio/Speaker4_Per/P4-20-Per.wav,Speaker4,گوینده۴,3,22,262,79,,,,,72.4561939999985,,,,,,,,,,,,,,,,,,,,,,,,,,,,,,,,,,,,,,,,,,,,,52.44386229099837,52.44404095799837,091864,001,2024-07-01_23h26.16.227,5-28,2024.1.4,None,2024-07-01 23h26.21.272468 +0900,
Images/Speaker1.jpg,Images/Speaker2.jpg,Images/Speaker3.jpg,Images/Speaker4.jpg,Audio/Speaker2_Per/P2-19-Per.wav,Speaker2,گوینده۲,3,23,263,38,,,,,72.4561939999985,,,,,,,,,,,,,,,,,,,,,,,,,,,,,,,,,,,,,,,,,,,,,52.4598184159986,52.459993707998365,091864,001,2024-07-01_23h26.16.227,5-28,2024.1.4,None,2024-07-01 23h26.21.272468 +0900,
Images/Speaker1.jpg,Images/Speaker2.jpg,Images/Speaker3.jpg,Images/Speaker4.jpg,Audio/Speaker3_Per/P3-5-Per.wav,Speaker3,گوینده۳,3,24,264,44,,,,,72.4561939999985,,,,,,,,,,,,,,,,,,,,,,,,,,,,,,,,,,,,,,,,,,,,,52.475708291000046,52.47587812499842,091864,001,2024-07-01_23h26.16.227,5-28,2024.1.4,None,2024-07-01 23h26.21.272468 +0900,
Images/Speaker1.jpg,Images/Speaker2.jpg,Images/Speaker3.jpg,Images/Speaker4.jpg,Audio/Speaker4_Per/P4-17-Per.wav,Speaker4,گوینده۴,3,25,265,76,,,,,72.4561939999985,,,,,,,,,,,,,,,,,,,,,,,,,,,,,,,,,,,,,,,,,,,,,52.49164312499852,52.49180570799945,091864,001,2024-07-01_23h26.16.227,5-28,2024.1.4,None,2024-07-01 23h26.21.272468 +0900,
Images/Speaker1.jpg,Images/Speaker2.jpg,Images/Speaker3.jpg,Images/Speaker4.jpg,Audio/Speaker3_Per/P3-18-Per.wav,Speaker3,گوینده۳,3,26,266,57,,,,,72.4561939999985,,,,,,,,,,,,,,,,,,,,,,,,,,,,,,,,,,,,,,,,,,,,,52.50822445799713,52.50839474999884,091864,001,2024-07-01_23h26.16.227,5-28,2024.1.4,None,2024-07-01 23h26.21.272468 +0900,
Images/Speaker1.jpg,Images/Speaker2.jpg,Images/Speaker3.jpg,Images/Speaker4.jpg,Audio/Speaker1_Per/P1-15-Per.wav,Speaker1,گوینده ۱,3,27,267,14,,,,,72.4561939999985,,,,,,,,,,,,,,,,,,,,,,,,,,,,,,,,,,,,,,,,,,,,,52.52411824999945,52.52434804099903,091864,001,2024-07-01_23h26.16.227,5-28,2024.1.4,None,2024-07-01 23h26.21.272468 +0900,
Images/Speaker1.jpg,Images/Speaker2.jpg,Images/Speaker3.jpg,Images/Speaker4.jpg,Audio/Speaker1_Per/P1-13-Per.wav,Speaker1,گوینده ۱,3,28,268,12,,,,,72.4561939999985,,,,,,,,,,,,,,,,,,,,,,,,,,,,,,,,,,,,,,,,,,,,,52.54005720799978,52.54023195799891,091864,001,2024-07-01_23h26.16.227,5-28,2024.1.4,None,2024-07-01 23h26.21.272468 +0900,
Images/Speaker1.jpg,Images/Speaker2.jpg,Images/Speaker3.jpg,Images/Speaker4.jpg,Audio/Speaker3_Per/P3-15-Per.wav,Speaker3,گوینده۳,3,29,269,54,,,,,72.4561939999985,,,,,,,,,,,,,,,,,,,,,,,,,,,,,,,,,,,,,,,,,,,,,52.556020874999376,52.556227707998914,091864,001,2024-07-01_23h26.16.227,5-28,2024.1.4,None,2024-07-01 23h26.21.272468 +0900,
Images/Speaker1.jpg,Images/Speaker2.jpg,Images/Speaker3.jpg,Images/Speaker4.jpg,Audio/Speaker2_Per/P2-16-Per.wav,Speaker2,گوینده۲,3,30,270,35,,,,,72.4561939999985,,,,,,,,,,,,,,,,,,,,,,,,,,,,,,,,,,,,,,,,,,,,,52.57260729099653,52.572773457999574,091864,001,2024-07-01_23h26.16.227,5-28,2024.1.4,None,2024-07-01 23h26.21.272468 +0900,
Images/Speaker1.jpg,Images/Speaker2.jpg,Images/Speaker3.jpg,Images/Speaker4.jpg,Audio/Speaker1_Per/P1-5-Per.wav,Speaker1,گوینده ۱,3,31,271,4,,,,,72.4561939999985,,,,,,,,,,,,,,,,,,,,,,,,,,,,,,,,,,,,,,,,,,,,,52.588493790997745,52.58866158299861,091864,001,2024-07-01_23h26.16.227,5-28,2024.1.4,None,2024-07-01 23h26.21.272468 +0900,
Images/Speaker1.jpg,Images/Speaker2.jpg,Images/Speaker3.jpg,Images/Speaker4.jpg,Audio/Speaker1_Per/P1-7-Per.wav,Speaker1,گوینده ۱,3,32,272,6,,,,,72.4561939999985,,,,,,,,,,,,,,,,,,,,,,,,,,,,,,,,,,,,,,,,,,,,,52.60439008299727,52.60455074999845,091864,001,2024-07-01_23h26.16.227,5-28,2024.1.4,None,2024-07-01 23h26.21.272468 +0900,
Images/Speaker1.jpg,Images/Speaker2.jpg,Images/Speaker3.jpg,Images/Speaker4.jpg,Audio/Speaker4_Per/P4-4-Per.wav,Speaker4,گوینده۴,3,33,273,63,,,,,72.4561939999985,,,,,,,,,,,,,,,,,,,,,,,,,,,,,,,,,,,,,,,,,,,,,52.62041608299842,52.62057845799791,091864,001,2024-07-01_23h26.16.227,5-28,2024.1.4,None,2024-07-01 23h26.21.272468 +0900,
Images/Speaker1.jpg,Images/Speaker2.jpg,Images/Speaker3.jpg,Images/Speaker4.jpg,Audio/Speaker1_Per/P1-8-Per.wav,Speaker1,گوینده ۱,3,34,274,7,,,,,72.4561939999985,,,,,,,,,,,,,,,,,,,,,,,,,,,,,,,,,,,,,,,,,,,,,52.63705362499968,52.63721120799892,091864,001,2024-07-01_23h26.16.227,5-28,2024.1.4,None,2024-07-01 23h26.21.272468 +0900,
Images/Speaker1.jpg,Images/Speaker2.jpg,Images/Speaker3.jpg,Images/Speaker4.jpg,Audio/Speaker1_Per/P1-2-Per.wav,Speaker1,گوینده ۱,3,35,275,1,,,,,72.4561939999985,,,,,,,,,,,,,,,,,,,,,,,,,,,,,,,,,,,,,,,,,,,,,52.6529099579966,52.653079374998924,091864,001,2024-07-01_23h26.16.227,5-28,2024.1.4,None,2024-07-01 23h26.21.272468 +0900,
Images/Speaker1.jpg,Images/Speaker2.jpg,Images/Speaker3.jpg,Images/Speaker4.jpg,Audio/Speaker3_Per/P3-3-Per.wav,Speaker3,گوینده۳,3,36,276,42,,,,,72.4561939999985,,,,,,,,,,,,,,,,,,,,,,,,,,,,,,,,,,,,,,,,,,,,,52.668753624999226,52.66894387499997,091864,001,2024-07-01_23h26.16.227,5-28,2024.1.4,None,2024-07-01 23h26.21.272468 +0900,
Images/Speaker1.jpg,Images/Speaker2.jpg,Images/Speaker3.jpg,Images/Speaker4.jpg,Audio/Speaker2_Per/P2-8-Per.wav,Speaker2,گوینده۲,3,37,277,27,,,,,72.4561939999985,,,,,,,,,,,,,,,,,,,,,,,,,,,,,,,,,,,,,,,,,,,,,52.68470329099728,52.684915249999904,091864,001,2024-07-01_23h26.16.227,5-28,2024.1.4,None,2024-07-01 23h26.21.272468 +0900,
Images/Speaker1.jpg,Images/Speaker2.jpg,Images/Speaker3.jpg,Images/Speaker4.jpg,Audio/Speaker3_Per/P3-8-Per.wav,Speaker3,گوینده۳,3,38,278,47,,,,,72.4561939999985,,,,,,,,,,,,,,,,,,,,,,,,,,,,,,,,,,,,,,,,,,,,,52.701566749998165,52.70175633299732,091864,001,2024-07-01_23h26.16.227,5-28,2024.1.4,None,2024-07-01 23h26.21.272468 +0900,
Images/Speaker1.jpg,Images/Speaker2.jpg,Images/Speaker3.jpg,Images/Speaker4.jpg,Audio/Speaker4_Per/P4-12-Per.wav,Speaker4,گوینده۴,3,39,279,71,,,,,72.4561939999985,,,,,,,,,,,,,,,,,,,,,,,,,,,,,,,,,,,,,,,,,,,,,52.71777562499847,52.71797066599902,091864,001,2024-07-01_23h26.16.227,5-28,2024.1.4,None,2024-07-01 23h26.21.272468 +0900,
Images/Speaker1.jpg,Images/Speaker2.jpg,Images/Speaker3.jpg,Images/Speaker4.jpg,Audio/Speaker4_Per/P4-8-Per.wav,Speaker4,گوینده۴,3,40,280,67,,,,,72.4561939999985,,,,,,,,,,,,,,,,,,,,,,,,,,,,,,,,,,,,,,,,,,,,,52.733850749998965,52.7340314159992,091864,001,2024-07-01_23h26.16.227,5-28,2024.1.4,None,2024-07-01 23h26.21.272468 +0900,
Images/Speaker1.jpg,Images/Speaker2.jpg,Images/Speaker3.jpg,Images/Speaker4.jpg,Audio/Speaker2_Per/P2-18-Per.wav,Speaker2,گوینده۲,3,41,281,37,,,,,72.4561939999985,,,,,,,,,,,,,,,,,,,,,,,,,,,,,,,,,,,,,,,,,,,,,52.74987654099823,52.75008308299948,091864,001,2024-07-01_23h26.16.227,5-28,2024.1.4,None,2024-07-01 23h26.21.272468 +0900,
Images/Speaker1.jpg,Images/Speaker2.jpg,Images/Speaker3.jpg,Images/Speaker4.jpg,Audio/Speaker4_Per/P4-6-Per.wav,Speaker4,گوینده۴,3,42,282,65,,,,,72.4561939999985,,,,,,,,,,,,,,,,,,,,,,,,,,,,,,,,,,,,,,,,,,,,,52.766492207996635,52.76666499999919,091864,001,2024-07-01_23h26.16.227,5-28,2024.1.4,None,2024-07-01 23h26.21.272468 +0900,
Images/Speaker1.jpg,Images/Speaker2.jpg,Images/Speaker3.jpg,Images/Speaker4.jpg,Audio/Speaker2_Per/P2-9-Per.wav,Speaker2,گوینده۲,3,43,283,28,,,,,72.4561939999985,,,,,,,,,,,,,,,,,,,,,,,,,,,,,,,,,,,,,,,,,,,,,52.78249337499801,52.78267637499812,091864,001,2024-07-01_23h26.16.227,5-28,2024.1.4,None,2024-07-01 23h26.21.272468 +0900,
Images/Speaker1.jpg,Images/Speaker2.jpg,Images/Speaker3.jpg,Images/Speaker4.jpg,Audio/Speaker1_Per/P1-4-Per.wav,Speaker1,گوینده ۱,3,44,284,13,,,,,72.4561939999985,,,,,,,,,,,,,,,,,,,,,,,,,,,,,,,,,,,,,,,,,,,,,52.798500707998755,52.79867529099647,091864,001,2024-07-01_23h26.16.227,5-28,2024.1.4,None,2024-07-01 23h26.21.272468 +0900,
Images/Speaker1.jpg,Images/Speaker2.jpg,Images/Speaker3.jpg,Images/Speaker4.jpg,Audio/Speaker3_Per/P3-13-Per.wav,Speaker3,گوینده۳,3,45,285,52,,,,,72.4561939999985,,,,,,,,,,,,,,,,,,,,,,,,,,,,,,,,,,,,,,,,,,,,,52.81443699999727,52.81460262499968,091864,001,2024-07-01_23h26.16.227,5-28,2024.1.4,None,2024-07-01 23h26.21.272468 +0900,
Images/Speaker1.jpg,Images/Speaker2.jpg,Images/Speaker3.jpg,Images/Speaker4.jpg,Audio/Speaker3_Per/P3-10-Per.wav,Speaker3,گوینده۳,3,46,286,49,,,,,72.4561939999985,,,,,,,,,,,,,,,,,,,,,,,,,,,,,,,,,,,,,,,,,,,,,52.83103287499762,52.83121983299861,091864,001,2024-07-01_23h26.16.227,5-28,2024.1.4,None,2024-07-01 23h26.21.272468 +0900,
Images/Speaker1.jpg,Images/Speaker2.jpg,Images/Speaker3.jpg,Images/Speaker4.jpg,Audio/Speaker3_Per/P3-2-Per.wav,Speaker3,گوینده۳,3,47,287,41,,,,,72.4561939999985,,,,,,,,,,,,,,,,,,,,,,,,,,,,,,,,,,,,,,,,,,,,,52.847006707997934,52.84717795799952,091864,001,2024-07-01_23h26.16.227,5-28,2024.1.4,None,2024-07-01 23h26.21.272468 +0900,
Images/Speaker1.jpg,Images/Speaker2.jpg,Images/Speaker3.jpg,Images/Speaker4.jpg,Audio/Speaker1_Per/P1-4-Per.wav,Speaker1,گوینده ۱,3,48,288,3,,,,,72.4561939999985,,,,,,,,,,,,,,,,,,,,,,,,,,,,,,,,,,,,,,,,,,,,,52.862945207998564,52.86311045799812,091864,001,2024-07-01_23h26.16.227,5-28,2024.1.4,None,2024-07-01 23h26.21.272468 +0900,
Images/Speaker1.jpg,Images/Speaker2.jpg,Images/Speaker3.jpg,Images/Speaker4.jpg,Audio/Speaker1_Per/P1-20-Per.wav,Speaker1,گوینده ۱,3,49,289,19,,,,,72.4561939999985,,,,,,,,,,,,,,,,,,,,,,,,,,,,,,,,,,,,,,,,,,,,,52.87885187499705,52.879010332999314,091864,001,2024-07-01_23h26.16.227,5-28,2024.1.4,None,2024-07-01 23h26.21.272468 +0900,
Images/Speaker1.jpg,Images/Speaker2.jpg,Images/Speaker3.jpg,Images/Speaker4.jpg,Audio/Speaker2_Per/P2-13-Per.wav,Speaker2,گوینده۲,3,50,290,32,,,,,72.4561939999985,,,,,,,,,,,,,,,,,,,,,,,,,,,,,,,,,,,,,,,,,,,,,52.89548745799766,52.89565841599688,091864,001,2024-07-01_23h26.16.227,5-28,2024.1.4,None,2024-07-01 23h26.21.272468 +0900,
Images/Speaker1.jpg,Images/Speaker2.jpg,Images/Speaker3.jpg,Images/Speaker4.jpg,Audio/Speaker3_Per/P3-14-Per.wav,Speaker3,گوینده۳,3,51,291,53,,,,,72.4561939999985,,,,,,,,,,,,,,,,,,,,,,,,,,,,,,,,,,,,,,,,,,,,,52.91148229099781,52.91165258299952,091864,001,2024-07-01_23h26.16.227,5-28,2024.1.4,None,2024-07-01 23h26.21.272468 +0900,
Images/Speaker1.jpg,Images/Speaker2.jpg,Images/Speaker3.jpg,Images/Speaker4.jpg,Audio/Speaker4_Per/P4-15-Per.wav,Speaker4,گوینده۴,3,52,292,74,,,,,72.4561939999985,,,,,,,,,,,,,,,,,,,,,,,,,,,,,,,,,,,,,,,,,,,,,52.92737508299979,52.927570832998754,091864,001,2024-07-01_23h26.16.227,5-28,2024.1.4,None,2024-07-01 23h26.21.272468 +0900,
Images/Speaker1.jpg,Images/Speaker2.jpg,Images/Speaker3.jpg,Images/Speaker4.jpg,Audio/Speaker1_Per/P1-11-Per.wav,Speaker1,گوینده ۱,3,53,293,10,,,,,72.4561939999985,,,,,,,,,,,,,,,,,,,,,,,,,,,,,,,,,,,,,,,,,,,,,52.943380707998585,52.943559082999855,091864,001,2024-07-01_23h26.16.227,5-28,2024.1.4,None,2024-07-01 23h26.21.272468 +0900,
