SpeakerImage1,SpeakerImage2,SpeakerImage3,SpeakerImage4,TrainingSound,EnglishCorrectAnswer,PersianCorrectAnswer,SpeakerPhoto1,SpeakerPhoto2,SpeakerPhoto3,SpeakerPhoto4,TestingSound,EnglishCorrectResponse,PersianCorrectResponse,TrainingLoopGroup1.thisRepN,TrainingLoopGroup1.thisTrialN,TrainingLoopGroup1.thisN,TrainingLoopGroup1.thisIndex,TrainingLoopGroup2.thisRepN,TrainingLoopGroup2.thisTrialN,TrainingLoopGroup2.thisN,TrainingLoopGroup2.thisIndex,TrainingLoopGroup3.thisRepN,TrainingLoopGroup3.thisTrialN,TrainingLoopGroup3.thisN,TrainingLoopGroup3.thisIndex,testPhase1Loop.thisRepN,testPhase1Loop.thisTrialN,testPhase1Loop.thisN,testPhase1Loop.thisIndex,thisRow.t,notes,trial.started,trial.stopped,GroupSelection.started,GroupInstructions.started,key_resp.started,GroupSelection.stopped,key_resp.keys,key_resp.rt,key_resp.duration,Introduction.started,text_2.started,image.started,sound_7.started,text_4.started,text_2.stopped,sound_8.started,image.stopped,text_4.stopped,image_7.started,sound_9.started,text_5.started,sound_10.started,image_7.stopped,text_5.stopped,image_8.started,sound_11.started,text_6.started,sound_12.started,image_8.stopped,text_6.stopped,image_9.started,sound_13.started,text_7.started,sound_14.started,image_9.stopped,text_7.stopped,Introduction.stopped,Instructions.started,InstructionText.started,InstructionText.stopped,Instructions.stopped,InitializeExperiment.started,InitializeExperiment.stopped,TrainingGroup2.started,image_11.started,SpeakerPicture2.started,image_5.started,image_6.started,Sound2.started,Instruction2.started,Response2.started,TrainingGroup2.stopped,feedbackText,Response2.keys,Response2.rt,Response2.duration,correct_responses,total_trials,FeedbackRoutine2.started,FeedbackText2.started,FeedbackText2.stopped,FeedbackRoutine2.stopped,TransitionRoutine.started,TransitionRoutine.stopped,nextRoutine,WelcomeTest.started,text_12.started,text_12.stopped,WelcomeTest.stopped,TestPhase1.started,test1_image1.started,test1_image2.started,test1_image3.started,test1_image4.started,test1_sound.started,text_3.started,test1_response_keyboard.started,TestPhase1.stopped,test1_response_keyboard.keys,test1_response_keyboard.rt,test1_response_keyboard.duration,test1_response,test1_image_file1,test1_image_file2,test1_image_file3,test1_image_file4,test1_sound_file,english_correct_answer,persian_correct_answer,participant,session,date,expName,psychopyVersion,frameRate,expStart,
,,,,,,,,,,,,,,,,,,,,,,,,,,,,,,,,0.010929666023002937,0.01683991600293666,,,,,,,,,,,,,,,,,,,,,,,,,,,,,,,,,,,,,,,,,,,,,,,,,,,,,,,,,,,,,,,,,,,,,,,,,,,,,,,,,,,,,,,,096785,001,2024-06-28_13h52.58.369,5-21,2024.1.4,None,2024-06-28 13h53.03.554316 +0900,
,,,,,,,,,,,,,,,,,,,,,,,,,,,,,,,,,,0.016855333000421524,0.021351208008127287,0.021351208008127287,0.7346488330222201,2,0.6712194999854546,None,,,,,,,,,,,,,,,,,,,,,,,,,,,,,,,,,,,,,,,,,,,,,,,,,,,,,,,,,,,,,,,,,,,,,,,,,,,,,,,,,096785,001,2024-06-28_13h52.58.369,5-21,2024.1.4,None,2024-06-28 13h53.03.554316 +0900,
,,,,,,,,,,,,,,,,,,,,,,,,,,,,,,,,,,,,,,,,,0.7346682909992523,0.8009949999977835,5.728368750016671,5.738066207679609,5.728368750016671,5.791137499996694,10.733893791683174,15.73096404102398,15.73096404102398,15.73096404102398,15.739052166671415,15.73096404102398,20.737783332679342,25.723806666006567,25.723806666006567,25.723806666006567,25.73503354168885,25.723806666006567,30.737269832669213,35.71517258300446,35.71517258300446,35.7383262910007,35.74737695767932,35.7383262910007,40.73555987468377,45.73700754099991,45.73700754099991,45.72674145799829,,,,,,,,,,,,,,,,,,,,,,,,,,,,,,,,,,,,,,,,,,,,,,,,,,,,,096785,001,2024-06-28_13h52.58.369,5-21,2024.1.4,None,2024-06-28 13h53.03.554316 +0900,
,,,,,,,,,,,,,,,,,,,,,,,,,,,,,,,,,,,,,,,,,,,,,,,,,,,,,,,,,,,,,,,,,,,,,45.72676499999943,45.73700754099991,46.7998975829978,46.731836916005705,,,,,,,,,,,,,,,,,,,,,,,,,,,,,,,,,,,,,,,,,,,,,,,,,096785,001,2024-06-28_13h52.58.369,5-21,2024.1.4,None,2024-06-28 13h53.03.554316 +0900,
,,,,,,,,,,,,,,,,,,,,,,,,,,,,,,,,,,,,,,,,,,,,,,,,,,,,,,,,,,,,,,,,,,,,,,,,,46.731896333018085,46.732213583018165,,,,,,,,,,,,,,,,,,,,,,,,,,,,,,,,,,,,,,,,,,,,,,,096785,001,2024-06-28_13h52.58.369,5-21,2024.1.4,None,2024-06-28 13h53.03.554316 +0900,
Images/Speaker1.jpg,Images/Speaker2.jpg,Images/Speaker3.jpg,Images/Speaker4.jpg,Audio/Speaker4_Per/P4-9-Per.wav,Speaker4,گوینده۴,,,,,,,,,,,,0,0,0,68,,,,,,,,,46.7998975829978,,,,,,,,,,,,,,,,,,,,,,,,,,,,,,,,,,,,,,,,,,,,,46.77297154100961,46.7998975829978,46.7998975829978,46.7998975829978,46.7998975829978,46.79759866667251,46.7998975829978,46.7998975829978,50.659506041003624,Correct! صحیح است,4,3.856761583010666,None,0,1,50.65998650001711,50.67283866601065,52.68015529101831,52.65671750000911,,,,,,,,,,,,,,,,,,,,,,,,,,,,096785,001,2024-06-28_13h52.58.369,5-21,2024.1.4,None,2024-06-28 13h53.03.554316 +0900,
Images/Speaker1.jpg,Images/Speaker2.jpg,Images/Speaker3.jpg,Images/Speaker4.jpg,Audio/Speaker1_Per/P1-18-Per.wav,Speaker1,گوینده ۱,,,,,,,,,,,,0,1,1,17,,,,,,,,,52.68015529101831,,,,,,,,,,,,,,,,,,,,,,,,,,,,,,,,,,,,,,,,,,,,,52.6569208750152,52.68015529101831,52.68015529101831,52.68015529101831,52.68015529101831,52.68985354135705,52.68015529101831,52.68015529101831,57.12882045801962,Correct! صحیح است,1,4.437931416992797,None,0,2,57.12902729099733,57.14046775002498,,59.12927991600009,,,,,,,,,,,,,,,,,,,,,,,,,,,,096785,001,2024-06-28_13h52.58.369,5-21,2024.1.4,None,2024-06-28 13h53.03.554316 +0900,
Images/Speaker1.jpg,Images/Speaker2.jpg,Images/Speaker3.jpg,Images/Speaker4.jpg,Audio/Speaker2_Per/P2-15-Per.wav,Speaker2,گوینده۲,,,,,,,,,,,,0,2,2,34,,,,,,,,,59.15638187501463,,,,,,,,,,,,,,,,,,,,,,,,,,,,,,,,,,,,,,,,,,,,,59.1299626250111,59.15638187501463,59.15638187501463,59.15638187501463,59.15638187501463,59.16240308335594,59.15638187501463,59.15638187501463,61.93272700000671,Correct! صحیح است,2,2.774292374990182,None,0,3,61.93767654101248,61.95057362501393,63.95850775000872,63.93499295800575,,,,,,,,,,,,,,,,,,,,,,,,,,,,096785,001,2024-06-28_13h52.58.369,5-21,2024.1.4,None,2024-06-28 13h53.03.554316 +0900,
Images/Speaker1.jpg,Images/Speaker2.jpg,Images/Speaker3.jpg,Images/Speaker4.jpg,Audio/Speaker1_Per/P1-16-Per.wav,Speaker1,گوینده ۱,,,,,,,,,,,,0,3,3,15,,,,,,,,,63.95850775000872,,,,,,,,,,,,,,,,,,,,,,,,,,,,,,,,,,,,,,,,,,,,,63.93516700001783,63.95850775000872,63.95850775000872,63.95850775000872,63.95850775000872,63.96812091634686,63.95850775000872,63.95850775000872,66.70884633300011,Correct! صحیح است,1,2.7455817080044653,None,0,4,66.70909620801103,66.72004062501946,,68.71116912501748,,,,,,,,,,,,,,,,,,,,,,,,,,,,096785,001,2024-06-28_13h52.58.369,5-21,2024.1.4,None,2024-06-28 13h53.03.554316 +0900,
Images/Speaker1.jpg,Images/Speaker2.jpg,Images/Speaker3.jpg,Images/Speaker4.jpg,Audio/Speaker3_Per/P3-11-Per.wav,Speaker3,گوینده۳,,,,,,,,,,,,0,4,4,50,,,,,,,,,68.73766345801414,,,,,,,,,,,,,,,,,,,,,,,,,,,,,,,,,,,,,,,,,,,,,68.71135374999722,68.73766345801414,68.73766345801414,68.73766345801414,68.73766345801414,68.7444664163418,68.73766345801414,68.73766345801414,73.46453983301762,Correct! صحیح است,3,4.713162500003818,None,0,5,73.46475958300289,73.47624979101238,75.48582791601075,75.46030900001642,,,,,,,,,,,,,,,,,,,,,,,,,,,,096785,001,2024-06-28_13h52.58.369,5-21,2024.1.4,None,2024-06-28 13h53.03.554316 +0900,
Images/Speaker1.jpg,Images/Speaker2.jpg,Images/Speaker3.jpg,Images/Speaker4.jpg,Audio/Speaker1_Per/P1-9-Per.wav,Speaker1,گوینده ۱,,,,,,,,,,,,0,5,5,8,,,,,,,,,75.48582791601075,,,,,,,,,,,,,,,,,,,,,,,,,,,,,,,,,,,,,,,,,,,,,75.46128404099727,75.48582791601075,75.48582791601075,75.48582791601075,75.48582791601075,75.49230324934663,75.48582791601075,75.48582791601075,78.89665912502096,Correct! صحیح است,1,3.408224417013116,None,0,6,78.89705087500624,78.90907900000457,,80.89789783299784,,,,,,,,,,,,,,,,,,,,,,,,,,,,096785,001,2024-06-28_13h52.58.369,5-21,2024.1.4,None,2024-06-28 13h53.03.554316 +0900,
Images/Speaker1.jpg,Images/Speaker2.jpg,Images/Speaker3.jpg,Images/Speaker4.jpg,Audio/Speaker2_Per/P2-13-Per.wav,Speaker2,گوینده۲,,,,,,,,,,,,0,6,6,32,,,,,,,,,80.92529500002274,,,,,,,,,,,,,,,,,,,,,,,,,,,,,,,,,,,,,,,,,,,,,80.89858925002045,80.92529500002274,80.92529500002274,80.92529500002274,80.92529500002274,80.93105362435065,80.92529500002274,80.92529500002274,85.12703337499988,Correct! صحیح است,2,4.2005787910020445,None,0,7,85.1272332080116,85.1386418750044,,87.13019366600201,,,,,,,,,,,,,,,,,,,,,,,,,,,,096785,001,2024-06-28_13h52.58.369,5-21,2024.1.4,None,2024-06-28 13h53.03.554316 +0900,
Images/Speaker1.jpg,Images/Speaker2.jpg,Images/Speaker3.jpg,Images/Speaker4.jpg,Audio/Speaker4_Per/P4-14-Per.wav,Speaker4,گوینده۴,,,,,,,,,,,,0,7,7,73,,,,,,,,,87.15875050000614,,,,,,,,,,,,,,,,,,,,,,,,,,,,,,,,,,,,,,,,,,,,,87.13079416600522,87.15875050000614,87.15875050000614,87.15875050000614,87.15875050000614,87.16337724933013,87.15875050000614,87.15875050000614,91.37709958301275,Incorrect! The correct answer is Speaker4. نادرست! پاسخ صحیح گوینده۴ است,1,4.211022708012024,None,0,8,91.37732191602117,91.3912692500162,93.39942420800799,93.3771052500233,,,,,,,,,,,,,,,,,,,,,,,,,,,,096785,001,2024-06-28_13h52.58.369,5-21,2024.1.4,None,2024-06-28 13h53.03.554316 +0900,
Images/Speaker1.jpg,Images/Speaker2.jpg,Images/Speaker3.jpg,Images/Speaker4.jpg,Audio/Speaker2_Per/P2-11-Per.wav,Speaker2,گوینده۲,,,,,,,,,,,,0,8,8,30,,,,,,,,,93.39942420800799,,,,,,,,,,,,,,,,,,,,,,,,,,,,,,,,,,,,,,,,,,,,,93.37727520801127,93.39942420800799,93.39942420800799,93.39942420800799,93.39942420800799,93.3935480416733,93.39942420800799,93.39942420800799,97.90815429101349,Correct! صحیح است,2,4.4952023749938235,None,0,9,97.90863400002127,97.9202778750041,,99.91324058300233,,,,,,,,,,,,,,,,,,,,,,,,,,,,096785,001,2024-06-28_13h52.58.369,5-21,2024.1.4,None,2024-06-28 13h53.03.554316 +0900,
Images/Speaker1.jpg,Images/Speaker2.jpg,Images/Speaker3.jpg,Images/Speaker4.jpg,Audio/Speaker1_Per/P1-4-Per.wav,Speaker1,گوینده ۱,,,,,,,,,,,,0,9,9,13,,,,,,,,,99.94005962501979,,,,,,,,,,,,,,,,,,,,,,,,,,,,,,,,,,,,,,,,,,,,,99.91374920800445,99.94005962501979,99.94005962501979,99.94005962501979,99.94005962501979,99.9464006243584,99.94005962501979,99.94005962501979,103.72373954101931,Correct! صحیح است,1,3.7799247919756453,None,0,10,103.72396183302044,103.73565279101604,,105.73058454101556,,,,,,,,,,,,,,,,,,,,,,,,,,,,096785,001,2024-06-28_13h52.58.369,5-21,2024.1.4,None,2024-06-28 13h53.03.554316 +0900,
Images/Speaker1.jpg,Images/Speaker2.jpg,Images/Speaker3.jpg,Images/Speaker4.jpg,Audio/Speaker4_Per/P4-17-Per.wav,Speaker4,گوینده۴,,,,,,,,,,,,0,10,10,76,,,,,,,,,105.7586502500053,,,,,,,,,,,,,,,,,,,,,,,,,,,,,,,,,,,,,,,,,,,,,105.7311708330235,105.7586502500053,105.7586502500053,105.7586502500053,105.7586502500053,105.76377241634376,105.7586502500053,105.7586502500053,109.0923122500244,Correct! صحیح است,4,3.324552167003276,None,0,11,109.09255837500677,109.10115295799915,111.11095166602172,111.08771912500379,,,,,,,,,,,,,,,,,,,,,,,,,,,,096785,001,2024-06-28_13h52.58.369,5-21,2024.1.4,None,2024-06-28 13h53.03.554316 +0900,
Images/Speaker1.jpg,Images/Speaker2.jpg,Images/Speaker3.jpg,Images/Speaker4.jpg,Audio/Speaker3_Per/P3-10-Per.wav,Speaker3,گوینده۳,,,,,,,,,,,,0,11,11,49,,,,,,,,,111.11095166602172,,,,,,,,,,,,,,,,,,,,,,,,,,,,,,,,,,,,,,,,,,,,,111.08790104099899,111.11095166602172,111.11095166602172,111.11095166602172,111.11095166602172,111.12082699934447,111.11095166602172,111.11095166602172,116.18082754101488,Correct! صحیح است,3,5.066216500010341,None,0,12,116.18106075000833,116.19224100001156,,118.18638895801269,,,,,,,,,,,,,,,,,,,,,,,,,,,,096785,001,2024-06-28_13h52.58.369,5-21,2024.1.4,None,2024-06-28 13h53.03.554316 +0900,
Images/Speaker1.jpg,Images/Speaker2.jpg,Images/Speaker3.jpg,Images/Speaker4.jpg,Audio/Speaker2_Per/P2-10-Per.wav,Speaker2,گوینده۲,,,,,,,,,,,,0,12,12,29,,,,,,,,,118.21117266602232,,,,,,,,,,,,,,,,,,,,,,,,,,,,,,,,,,,,,,,,,,,,,118.18656062500668,118.21117266602232,118.21117266602232,118.21117266602232,118.21117266602232,118.21968637433795,118.21117266602232,118.21117266602232,121.76122433302226,Correct! صحیح است,2,3.5408384579932317,None,0,13,121.76142125000479,121.77035420801258,123.77857858300558,123.75670391600579,,,,,,,,,,,,,,,,,,,,,,,,,,,,096785,001,2024-06-28_13h52.58.369,5-21,2024.1.4,None,2024-06-28 13h53.03.554316 +0900,
Images/Speaker1.jpg,Images/Speaker2.jpg,Images/Speaker3.jpg,Images/Speaker4.jpg,Audio/Speaker1_Per/P1-3-Per.wav,Speaker1,گوینده ۱,,,,,,,,,,,,0,13,13,2,,,,,,,,,123.77857858300558,,,,,,,,,,,,,,,,,,,,,,,,,,,,,,,,,,,,,,,,,,,,,123.75686695802142,123.77857858300558,123.77857858300558,123.77857858300558,123.77857858300558,123.7731737916804,123.77857858300558,123.77857858300558,127.83299541601446,Correct! صحیح است,1,4.04601958298008,None,0,14,127.8332779580087,127.84220741601894,,129.83788950002054,,,,,,,,,,,,,,,,,,,,,,,,,,,,096785,001,2024-06-28_13h52.58.369,5-21,2024.1.4,None,2024-06-28 13h53.03.554316 +0900,
Images/Speaker1.jpg,Images/Speaker2.jpg,Images/Speaker3.jpg,Images/Speaker4.jpg,Audio/Speaker3_Per/P3-19-Per.wav,Speaker3,گوینده۳,,,,,,,,,,,,0,14,14,58,,,,,,,,,129.86292983300518,,,,,,,,,,,,,,,,,,,,,,,,,,,,,,,,,,,,,,,,,,,,,129.83855658301036,129.86292983300518,129.86292983300518,129.86292983300518,129.86292983300518,129.8710197083497,129.86292983300518,129.86292983300518,134.32716366602108,Correct! صحیح است,3,4.45494491700083,None,0,15,134.32740075001493,134.338884124998,136.3489663329965,136.3236076660105,,,,,,,,,,,,,,,,,,,,,,,,,,,,096785,001,2024-06-28_13h52.58.369,5-21,2024.1.4,None,2024-06-28 13h53.03.554316 +0900,
Images/Speaker1.jpg,Images/Speaker2.jpg,Images/Speaker3.jpg,Images/Speaker4.jpg,Audio/Speaker1_Per/P1-6-Per.wav,Speaker1,گوینده ۱,,,,,,,,,,,,0,15,15,5,,,,,,,,,136.3489663329965,,,,,,,,,,,,,,,,,,,,,,,,,,,,,,,,,,,,,,,,,,,,,136.324526625016,136.3489663329965,136.3489663329965,136.3489663329965,136.3489663329965,136.35606504133517,136.3489663329965,136.3489663329965,141.17591950000497,Correct! صحیح است,1,4.823857875016984,None,0,16,141.17612316602026,141.18739908302086,143.19681158300955,143.1710752910003,,,,,,,,,,,,,,,,,,,,,,,,,,,,096785,001,2024-06-28_13h52.58.369,5-21,2024.1.4,None,2024-06-28 13h53.03.554316 +0900,
Images/Speaker1.jpg,Images/Speaker2.jpg,Images/Speaker3.jpg,Images/Speaker4.jpg,Audio/Speaker4_Per/P4-16-Per.wav,Speaker4,گوینده۴,,,,,,,,,,,,0,16,16,75,,,,,,,,,143.19681158300955,,,,,,,,,,,,,,,,,,,,,,,,,,,,,,,,,,,,,,,,,,,,,143.17158037499757,143.19681158300955,143.19681158300955,143.19681158300955,143.19681158300955,143.20347458334487,143.19681158300955,143.19681158300955,145.73673958302243,Correct! صحیح است,4,2.5316739580011927,None,0,17,145.74099874999956,145.7502403749968,147.76997491600923,147.74160054101958,,,,,,,,,,,,,,,,,,,,,,,,,,,,096785,001,2024-06-28_13h52.58.369,5-21,2024.1.4,None,2024-06-28 13h53.03.554316 +0900,
Images/Speaker1.jpg,Images/Speaker2.jpg,Images/Speaker3.jpg,Images/Speaker4.jpg,Audio/Speaker1_Per/P1-13-Per.wav,Speaker1,گوینده ۱,,,,,,,,,,,,0,17,17,12,,,,,,,,,147.76997491600923,,,,,,,,,,,,,,,,,,,,,,,,,,,,,,,,,,,,,,,,,,,,,147.7424233330239,147.76997491600923,147.76997491600923,147.76997491600923,147.76997491600923,147.7739816243489,147.76997491600923,147.76997491600923,151.40825312500237,Correct! صحیح است,1,3.6361683330032974,None,0,18,151.40850099999807,151.42044195800554,153.43612225001561,153.40899704099866,,,,,,,,,,,,,,,,,,,,,,,,,,,,096785,001,2024-06-28_13h52.58.369,5-21,2024.1.4,None,2024-06-28 13h53.03.554316 +0900,
Images/Speaker1.jpg,Images/Speaker2.jpg,Images/Speaker3.jpg,Images/Speaker4.jpg,Audio/Speaker3_Per/P3-4-Per.wav,Speaker3,گوینده۳,,,,,,,,,,,,0,18,18,43,,,,,,,,,153.43612225001561,,,,,,,,,,,,,,,,,,,,,,,,,,,,,,,,,,,,,,,,,,,,,153.4095816250192,153.43612225001561,153.43612225001561,153.43612225001561,153.43612225001561,153.44145404134957,153.43612225001561,153.43612225001561,156.90411766601028,Correct! صحیح است,3,3.4630756670085248,None,0,19,156.90790725001716,156.919437250006,,158.91646204100107,,,,,,,,,,,,,,,,,,,,,,,,,,,,096785,001,2024-06-28_13h52.58.369,5-21,2024.1.4,None,2024-06-28 13h53.03.554316 +0900,
Images/Speaker1.jpg,Images/Speaker2.jpg,Images/Speaker3.jpg,Images/Speaker4.jpg,Audio/Speaker2_Per/P2-12-Per.wav,Speaker2,گوینده۲,,,,,,,,,,,,0,19,19,31,,,,,,,,,158.94267829100136,,,,,,,,,,,,,,,,,,,,,,,,,,,,,,,,,,,,,,,,,,,,,158.9171307500219,158.94267829100136,158.94267829100136,158.94267829100136,158.94267829100136,158.9496477083381,158.94267829100136,158.94267829100136,162.97919320801157,Correct! صحیح است,2,4.033118541003205,None,0,20,162.97946595802205,162.9906477080076,,164.985179625015,,,,,,,,,,,,,,,,,,,,,,,,,,,,096785,001,2024-06-28_13h52.58.369,5-21,2024.1.4,None,2024-06-28 13h53.03.554316 +0900,
Images/Speaker1.jpg,Images/Speaker2.jpg,Images/Speaker3.jpg,Images/Speaker4.jpg,Audio/Speaker1_Per/P1-2-Per.wav,Speaker1,گوینده ۱,,,,,,,,,,,,0,20,20,1,,,,,,,,,165.0134955829999,,,,,,,,,,,,,,,,,,,,,,,,,,,,,,,,,,,,,,,,,,,,,164.9857600000105,165.0134955829999,165.0134955829999,165.0134955829999,165.0134955829999,165.01834633333107,165.0134955829999,165.0134955829999,169.15202170799603,Correct! صحیح است,1,4.125288749986794,None,0,21,169.1523114160227,169.16400562500348,171.1749360410031,171.15044900000794,,,,,,,,,,,,,,,,,,,,,,,,,,,,096785,001,2024-06-28_13h52.58.369,5-21,2024.1.4,None,2024-06-28 13h53.03.554316 +0900,
Images/Speaker1.jpg,Images/Speaker2.jpg,Images/Speaker3.jpg,Images/Speaker4.jpg,Audio/Speaker2_Per/P2-4-Per.wav,Speaker2,گوینده۲,,,,,,,,,,,,0,21,21,23,,,,,,,,,171.1749360410031,,,,,,,,,,,,,,,,,,,,,,,,,,,,,,,,,,,,,,,,,,,,,171.15099991601892,171.1749360410031,171.1749360410031,171.1749360410031,171.1749360410031,171.18282095835508,171.1749360410031,171.1749360410031,172.52545912499772,Correct! صحیح است,2,1.3444134999881499,None,0,22,172.52955912501784,172.54094537501805,,174.53112850000616,,,,,,,,,,,,,,,,,,,,,,,,,,,,096785,001,2024-06-28_13h52.58.369,5-21,2024.1.4,None,2024-06-28 13h53.03.554316 +0900,
Images/Speaker1.jpg,Images/Speaker2.jpg,Images/Speaker3.jpg,Images/Speaker4.jpg,Audio/Speaker4_Per/P4-13-Per.wav,Speaker4,گوینده۴,,,,,,,,,,,,0,22,22,72,,,,,,,,,174.5555008329975,,,,,,,,,,,,,,,,,,,,,,,,,,,,,,,,,,,,,,,,,,,,,174.53129966600682,174.5555008329975,174.5555008329975,174.5555008329975,174.5555008329975,174.5644245413501,174.5555008329975,174.5555008329975,176.2327142910217,Correct! صحیح است,4,1.6726189999899361,None,0,23,176.23645566601772,176.2477874160104,178.25514366599964,178.23263091599802,,,,,,,,,,,,,,,,,,,,,,,,,,,,096785,001,2024-06-28_13h52.58.369,5-21,2024.1.4,None,2024-06-28 13h53.03.554316 +0900,
Images/Speaker1.jpg,Images/Speaker2.jpg,Images/Speaker3.jpg,Images/Speaker4.jpg,Audio/Speaker2_Per/P2-17-Per.wav,Speaker2,گوینده۲,,,,,,,,,,,,0,23,23,36,,,,,,,,,178.25514366599964,,,,,,,,,,,,,,,,,,,,,,,,,,,,,,,,,,,,,,,,,,,,,178.23279766601627,178.25514366599964,178.25514366599964,178.25514366599964,178.25514366599964,178.24903554167057,178.25514366599964,178.25514366599964,179.88242808301584,Correct! صحیح است,2,1.6211900830094237,None,0,24,179.8861784580222,179.89761095799622,181.90692829102045,181.88395975000458,,,,,,,,,,,,,,,,,,,,,,,,,,,,096785,001,2024-06-28_13h52.58.369,5-21,2024.1.4,None,2024-06-28 13h53.03.554316 +0900,
Images/Speaker1.jpg,Images/Speaker2.jpg,Images/Speaker3.jpg,Images/Speaker4.jpg,Audio/Speaker2_Per/P2-19-Per.wav,Speaker2,گوینده۲,,,,,,,,,,,,0,24,24,38,,,,,,,,,181.90692829102045,,,,,,,,,,,,,,,,,,,,,,,,,,,,,,,,,,,,,,,,,,,,,181.88418633301626,181.90692829102045,181.90692829102045,181.90692829102045,181.90692829102045,181.91701212433014,181.90692829102045,181.90692829102045,182.9407871250005,Correct! صحیح است,2,1.0287810830050148,None,0,25,182.94559524999931,182.96370000002207,,184.95733016601298,,,,,,,,,,,,,,,,,,,,,,,,,,,,096785,001,2024-06-28_13h52.58.369,5-21,2024.1.4,None,2024-06-28 13h53.03.554316 +0900,
Images/Speaker1.jpg,Images/Speaker2.jpg,Images/Speaker3.jpg,Images/Speaker4.jpg,Audio/Speaker2_Per/P2-9-Per.wav,Speaker2,گوینده۲,,,,,,,,,,,,0,25,25,28,,,,,,,,,184.98143091599923,,,,,,,,,,,,,,,,,,,,,,,,,,,,,,,,,,,,,,,,,,,,,184.95750533300452,184.98143091599923,184.98143091599923,184.98143091599923,184.98143091599923,184.9906261243528,184.98143091599923,184.98143091599923,186.03038320800988,Correct! صحیح است,2,1.044565624993993,None,0,26,186.03499050001847,186.04754483301076,,188.03559229100938,,,,,,,,,,,,,,,,,,,,,,,,,,,,096785,001,2024-06-28_13h52.58.369,5-21,2024.1.4,None,2024-06-28 13h53.03.554316 +0900,
Images/Speaker1.jpg,Images/Speaker2.jpg,Images/Speaker3.jpg,Images/Speaker4.jpg,Audio/Speaker4_Per/P4-2-Per.wav,Speaker4,گوینده۴,,,,,,,,,,,,0,26,26,61,,,,,,,,,188.0616494580172,,,,,,,,,,,,,,,,,,,,,,,,,,,,,,,,,,,,,,,,,,,,,188.0362218329974,188.0616494580172,188.0616494580172,188.0616494580172,188.0616494580172,188.0687624993521,188.0616494580172,188.0616494580172,189.47020541600068,Correct! صحیح است,4,1.4050041250011418,None,0,27,189.47401841601823,189.4852083750011,191.49271312501514,191.4692206250038,,,,,,,,,,,,,,,,,,,,,,,,,,,,096785,001,2024-06-28_13h52.58.369,5-21,2024.1.4,None,2024-06-28 13h53.03.554316 +0900,
Images/Speaker1.jpg,Images/Speaker2.jpg,Images/Speaker3.jpg,Images/Speaker4.jpg,Audio/Speaker3_Per/P3-2-Per.wav,Speaker3,گوینده۳,,,,,,,,,,,,0,27,27,41,,,,,,,,,191.49271312501514,,,,,,,,,,,,,,,,,,,,,,,,,,,,,,,,,,,,,,,,,,,,,191.46938333302387,191.49271312501514,191.49271312501514,191.49271312501514,191.49271312501514,191.50236437435575,191.49271312501514,191.49271312501514,194.44873200001894,Correct! صحیح است,3,2.954932208027458,None,0,28,194.4524797500053,194.46406325002317,196.47322241601069,196.450671041006,,,,,,,,,,,,,,,,,,,,,,,,,,,,096785,001,2024-06-28_13h52.58.369,5-21,2024.1.4,None,2024-06-28 13h53.03.554316 +0900,
Images/Speaker1.jpg,Images/Speaker2.jpg,Images/Speaker3.jpg,Images/Speaker4.jpg,Audio/Speaker4_Per/P4-6-Per.wav,Speaker4,گوینده۴,,,,,,,,,,,,0,28,28,65,,,,,,,,,196.47322241601069,,,,,,,,,,,,,,,,,,,,,,,,,,,,,,,,,,,,,,,,,,,,,196.45083995800815,196.47322241601069,196.47322241601069,196.47322241601069,196.47322241601069,196.48377795835455,196.47322241601069,196.47322241601069,197.66334154101787,Correct! صحیح است,4,1.1890908329805825,None,0,29,197.6671730829985,197.6785610000079,199.68952458302374,199.66514387499774,,,,,,,,,,,,,,,,,,,,,,,,,,,,096785,001,2024-06-28_13h52.58.369,5-21,2024.1.4,None,2024-06-28 13h53.03.554316 +0900,
Images/Speaker1.jpg,Images/Speaker2.jpg,Images/Speaker3.jpg,Images/Speaker4.jpg,Audio/Speaker3_Per/P3-14-Per.wav,Speaker3,گوینده۳,,,,,,,,,,,,0,29,29,53,,,,,,,,,199.68952458302374,,,,,,,,,,,,,,,,,,,,,,,,,,,,,,,,,,,,,,,,,,,,,199.66530783299822,199.68952458302374,199.68952458302374,199.68952458302374,199.68952458302374,199.69819633334606,199.68952458302374,199.68952458302374,201.04360329100746,Correct! صحیح است,3,1.3449773330066819,None,0,30,201.04785029101186,201.05930895800702,,203.05312854101066,,,,,,,,,,,,,,,,,,,,,,,,,,,,096785,001,2024-06-28_13h52.58.369,5-21,2024.1.4,None,2024-06-28 13h53.03.554316 +0900,
Images/Speaker1.jpg,Images/Speaker2.jpg,Images/Speaker3.jpg,Images/Speaker4.jpg,Audio/Speaker3_Per/P3-20-Per.wav,Speaker3,گوینده۳,,,,,,,,,,,,0,30,30,59,,,,,,,,,203.07902670800104,,,,,,,,,,,,,,,,,,,,,,,,,,,,,,,,,,,,,,,,,,,,,203.0537600000098,203.07902670800104,203.07902670800104,203.07902670800104,203.07902670800104,203.08628508332964,203.07902670800104,203.07902670800104,205.21366704101092,Correct! صحیح است,3,2.1259162909991574,None,0,31,205.21757137501845,205.22903966601007,207.23842187502305,207.21544579102192,,,,,,,,,,,,,,,,,,,,,,,,,,,,096785,001,2024-06-28_13h52.58.369,5-21,2024.1.4,None,2024-06-28 13h53.03.554316 +0900,
Images/Speaker1.jpg,Images/Speaker2.jpg,Images/Speaker3.jpg,Images/Speaker4.jpg,Audio/Speaker2_Per/P2-7-Per.wav,Speaker2,گوینده۲,,,,,,,,,,,,0,31,31,26,,,,,,,,,207.23842187502305,,,,,,,,,,,,,,,,,,,,,,,,,,,,,,,,,,,,,,,,,,,,,207.215614500019,207.23842187502305,207.23842187502305,207.23842187502305,207.23842187502305,207.2485121663563,207.23842187502305,207.23842187502305,208.5517522500013,Correct! صحیح است,2,1.3047694169799797,None,0,32,208.55600212499849,208.56526445801137,210.5739420830214,210.54997433300014,,,,,,,,,,,,,,,,,,,,,,,,,,,,096785,001,2024-06-28_13h52.58.369,5-21,2024.1.4,None,2024-06-28 13h53.03.554316 +0900,
Images/Speaker1.jpg,Images/Speaker2.jpg,Images/Speaker3.jpg,Images/Speaker4.jpg,Audio/Speaker3_Per/P3-18-Per.wav,Speaker3,گوینده۳,,,,,,,,,,,,0,32,32,57,,,,,,,,,210.5739420830214,,,,,,,,,,,,,,,,,,,,,,,,,,,,,,,,,,,,,,,,,,,,,210.550558500021,210.5739420830214,210.5739420830214,210.5739420830214,210.5739420830214,210.58231866634065,210.5739420830214,210.5739420830214,211.79053350002505,Correct! صحیح است,3,1.2128130839846563,None,0,33,211.79479037501733,211.80607291602064,213.81269670801703,213.7899123330135,,,,,,,,,,,,,,,,,,,,,,,,,,,,096785,001,2024-06-28_13h52.58.369,5-21,2024.1.4,None,2024-06-28 13h53.03.554316 +0900,
Images/Speaker1.jpg,Images/Speaker2.jpg,Images/Speaker3.jpg,Images/Speaker4.jpg,Audio/Speaker2_Per/P2-3-Per.wav,Speaker2,گوینده۲,,,,,,,,,,,,0,33,33,22,,,,,,,,,213.81269670801703,,,,,,,,,,,,,,,,,,,,,,,,,,,,,,,,,,,,,,,,,,,,,213.79007791599724,213.81269670801703,213.81269670801703,213.81269670801703,213.81269670801703,213.80634599968133,213.81269670801703,213.81269670801703,215.11103741600527,Correct! صحیح است,2,1.2887261669966392,None,0,34,215.11479849999887,215.12403558302321,,217.11538633299642,,,,,,,,,,,,,,,,,,,,,,,,,,,,096785,001,2024-06-28_13h52.58.369,5-21,2024.1.4,None,2024-06-28 13h53.03.554316 +0900,
Images/Speaker1.jpg,Images/Speaker2.jpg,Images/Speaker3.jpg,Images/Speaker4.jpg,Audio/Speaker3_Per/P3-3-Per.wav,Speaker3,گوینده۳,,,,,,,,,,,,0,34,34,42,,,,,,,,,217.13776220800355,,,,,,,,,,,,,,,,,,,,,,,,,,,,,,,,,,,,,,,,,,,,,217.11556850001216,217.13776220800355,217.13776220800355,217.13776220800355,217.13776220800355,217.1320242076802,217.13776220800355,217.13776220800355,218.53307504102122,Correct! صحیح است,3,1.3923769169778097,None,0,35,218.53771720800432,218.55063104099827,,220.54147237501456,,,,,,,,,,,,,,,,,,,,,,,,,,,,096785,001,2024-06-28_13h52.58.369,5-21,2024.1.4,None,2024-06-28 13h53.03.554316 +0900,
Images/Speaker1.jpg,Images/Speaker2.jpg,Images/Speaker3.jpg,Images/Speaker4.jpg,Audio/Speaker4_Per/P4-15-Per.wav,Speaker4,گوینده۴,,,,,,,,,,,,0,35,35,74,,,,,,,,,220.56767729102285,,,,,,,,,,,,,,,,,,,,,,,,,,,,,,,,,,,,,,,,,,,,,220.54223537500366,220.56767729102285,220.56767729102285,220.56767729102285,220.56767729102285,220.57464841634697,220.56767729102285,220.56767729102285,221.8710372080095,Correct! صحیح است,4,1.2975607500120532,None,0,36,221.87510058301268,221.88660408300348,223.89755150000565,223.87346304100356,,,,,,,,,,,,,,,,,,,,,,,,,,,,096785,001,2024-06-28_13h52.58.369,5-21,2024.1.4,None,2024-06-28 13h53.03.554316 +0900,
Images/Speaker1.jpg,Images/Speaker2.jpg,Images/Speaker3.jpg,Images/Speaker4.jpg,Audio/Speaker3_Per/P3-9-Per.wav,Speaker3,گوینده۳,,,,,,,,,,,,0,36,36,48,,,,,,,,,223.89755150000565,,,,,,,,,,,,,,,,,,,,,,,,,,,,,,,,,,,,,,,,,,,,,223.87369287500042,223.89755150000565,223.89755150000565,223.89755150000565,223.89755150000565,223.9064734163481,223.89755150000565,223.89755150000565,225.18225670800894,Correct! صحیح است,3,1.2825309170002583,None,0,37,225.18605716602178,225.1975582500163,,227.1870066249976,,,,,,,,,,,,,,,,,,,,,,,,,,,,096785,001,2024-06-28_13h52.58.369,5-21,2024.1.4,None,2024-06-28 13h53.03.554316 +0900,
Images/Speaker1.jpg,Images/Speaker2.jpg,Images/Speaker3.jpg,Images/Speaker4.jpg,Audio/Speaker4_Per/P4-8-Per.wav,Speaker4,گوینده۴,,,,,,,,,,,,0,37,37,67,,,,,,,,,227.21006845802185,,,,,,,,,,,,,,,,,,,,,,,,,,,,,,,,,,,,,,,,,,,,,227.18720916600432,227.21006845802185,227.21006845802185,227.21006845802185,227.21006845802185,227.20363533267326,227.21006845802185,227.21006845802185,228.60599900002126,Correct! صحیح است,4,1.3849718749988824,None,0,38,228.61013191600796,228.61922849999974,230.63615150001715,230.60985466602142,,,,,,,,,,,,,,,,,,,,,,,,,,,,096785,001,2024-06-28_13h52.58.369,5-21,2024.1.4,None,2024-06-28 13h53.03.554316 +0900,
Images/Speaker1.jpg,Images/Speaker2.jpg,Images/Speaker3.jpg,Images/Speaker4.jpg,Audio/Speaker4_Per/P4-7-Per.wav,Speaker4,گوینده۴,,,,,,,,,,,,0,38,38,66,,,,,,,,,230.63615150001715,,,,,,,,,,,,,,,,,,,,,,,,,,,,,,,,,,,,,,,,,,,,,230.61050745801185,230.63615150001715,230.63615150001715,230.63615150001715,230.63615150001715,230.6421747493519,230.63615150001715,230.63615150001715,231.62332691601478,Correct! صحیح است,4,0.9803906250162981,None,0,39,231.62731195800006,231.6383207500039,233.64946408302058,233.62562070801505,,,,,,,,,,,,,,,,,,,,,,,,,,,,096785,001,2024-06-28_13h52.58.369,5-21,2024.1.4,None,2024-06-28 13h53.03.554316 +0900,
Images/Speaker1.jpg,Images/Speaker2.jpg,Images/Speaker3.jpg,Images/Speaker4.jpg,Audio/Speaker2_Per/P2-20-Per.wav,Speaker2,گوینده۲,,,,,,,,,,,,0,39,39,39,,,,,,,,,233.64946408302058,,,,,,,,,,,,,,,,,,,,,,,,,,,,,,,,,,,,,,,,,,,,,233.6261562500149,233.64946408302058,233.64946408302058,233.64946408302058,233.64946408302058,233.65795508333446,233.64946408302058,233.64946408302058,235.12408966600196,Correct! صحیح است,2,1.4702621250180528,None,0,40,235.1280182080227,235.13924791599857,,237.1326004160219,,,,,,,,,,,,,,,,,,,,,,,,,,,,096785,001,2024-06-28_13h52.58.369,5-21,2024.1.4,None,2024-06-28 13h53.03.554316 +0900,
Images/Speaker1.jpg,Images/Speaker2.jpg,Images/Speaker3.jpg,Images/Speaker4.jpg,Audio/Speaker1_Per/P1-7-Per.wav,Speaker1,گوینده ۱,,,,,,,,,,,,0,40,40,6,,,,,,,,,237.15765820801607,,,,,,,,,,,,,,,,,,,,,,,,,,,,,,,,,,,,,,,,,,,,,237.13332083300338,237.15765820801607,237.15765820801607,237.15765820801607,237.15765820801607,237.16576083334127,237.15765820801607,237.15765820801607,238.59741091600154,Correct! صحیح است,1,1.4385465839877725,None,0,41,238.60114125002292,238.61284470799728,240.62037204101216,240.59693741600495,,,,,,,,,,,,,,,,,,,,,,,,,,,,096785,001,2024-06-28_13h52.58.369,5-21,2024.1.4,None,2024-06-28 13h53.03.554316 +0900,
Images/Speaker1.jpg,Images/Speaker2.jpg,Images/Speaker3.jpg,Images/Speaker4.jpg,Audio/Speaker2_Per/P2-1-Per.wav,Speaker2,گوینده۲,,,,,,,,,,,,0,41,41,20,,,,,,,,,240.62037204101216,,,,,,,,,,,,,,,,,,,,,,,,,,,,,,,,,,,,,,,,,,,,,240.5971034160175,240.62037204101216,240.62037204101216,240.62037204101216,240.62037204101216,240.63000362434155,240.62037204101216,240.62037204101216,241.81391300001997,Correct! صحیح است,2,1.1866443750041071,None,0,42,241.81776454101782,241.8265729160048,243.83570808300283,243.81121383301797,,,,,,,,,,,,,,,,,,,,,,,,,,,,096785,001,2024-06-28_13h52.58.369,5-21,2024.1.4,None,2024-06-28 13h53.03.554316 +0900,
Images/Speaker1.jpg,Images/Speaker2.jpg,Images/Speaker3.jpg,Images/Speaker4.jpg,Audio/Speaker3_Per/P3-5-Per.wav,Speaker3,گوینده۳,,,,,,,,,,,,0,42,42,44,,,,,,,,,243.83570808300283,,,,,,,,,,,,,,,,,,,,,,,,,,,,,,,,,,,,,,,,,,,,,243.81209258301533,243.83570808300283,243.83570808300283,243.83570808300283,243.83570808300283,243.84377233335596,243.83570808300283,243.83570808300283,245.13112237502355,Correct! صحیح است,3,1.285872374981409,None,0,43,245.13492904099985,245.14668925001752,247.15665637500933,247.1320287080016,,,,,,,,,,,,,,,,,,,,,,,,,,,,096785,001,2024-06-28_13h52.58.369,5-21,2024.1.4,None,2024-06-28 13h53.03.554316 +0900,
Images/Speaker1.jpg,Images/Speaker2.jpg,Images/Speaker3.jpg,Images/Speaker4.jpg,Audio/Speaker4_Per/P4-10-Per.wav,Speaker4,گوینده۴,,,,,,,,,,,,0,43,43,69,,,,,,,,,247.15665637500933,,,,,,,,,,,,,,,,,,,,,,,,,,,,,,,,,,,,,,,,,,,,,247.13219720800407,247.15665637500933,247.15665637500933,247.15665637500933,247.15665637500933,247.16510962433728,247.15665637500933,247.15665637500933,248.57049166600336,Correct! صحیح است,4,1.4050655419996474,None,0,44,248.57431050000014,248.58271170800435,250.5970693330164,250.57290491601452,,,,,,,,,,,,,,,,,,,,,,,,,,,,096785,001,2024-06-28_13h52.58.369,5-21,2024.1.4,None,2024-06-28 13h53.03.554316 +0900,
Images/Speaker1.jpg,Images/Speaker2.jpg,Images/Speaker3.jpg,Images/Speaker4.jpg,Audio/Speaker4_Per/P4-19-Per.wav,Speaker4,گوینده۴,,,,,,,,,,,,0,44,44,78,,,,,,,,,250.5970693330164,,,,,,,,,,,,,,,,,,,,,,,,,,,,,,,,,,,,,,,,,,,,,250.57307091599796,250.5970693330164,250.5970693330164,250.5970693330164,250.5970693330164,250.60599737434728,250.5970693330164,250.5970693330164,251.56932204100303,Correct! صحیح است,4,0.9577384170261212,None,0,45,251.57312016602373,251.58488354101428,253.5946250410052,253.570175166009,,,,,,,,,,,,,,,,,,,,,,,,,,,,096785,001,2024-06-28_13h52.58.369,5-21,2024.1.4,None,2024-06-28 13h53.03.554316 +0900,
Images/Speaker1.jpg,Images/Speaker2.jpg,Images/Speaker3.jpg,Images/Speaker4.jpg,Audio/Speaker4_Per/P4-11-Per.wav,Speaker4,گوینده۴,,,,,,,,,,,,0,45,45,70,,,,,,,,,253.5946250410052,,,,,,,,,,,,,,,,,,,,,,,,,,,,,,,,,,,,,,,,,,,,,253.5703674160177,253.5946250410052,253.5946250410052,253.5946250410052,253.5946250410052,253.6032330833337,253.5946250410052,253.5946250410052,254.65848883299623,Correct! صحیح است,4,1.0615417920053005,None,0,46,254.66245720800362,254.6737582500209,,256.66738212501514,,,,,,,,,,,,,,,,,,,,,,,,,,,,096785,001,2024-06-28_13h52.58.369,5-21,2024.1.4,None,2024-06-28 13h53.03.554316 +0900,
Images/Speaker1.jpg,Images/Speaker2.jpg,Images/Speaker3.jpg,Images/Speaker4.jpg,Audio/Speaker3_Per/P3-13-Per.wav,Speaker3,گوینده۳,,,,,,,,,,,,0,46,46,52,,,,,,,,,256.6944636660046,,,,,,,,,,,,,,,,,,,,,,,,,,,,,,,,,,,,,,,,,,,,,256.66788670801907,256.6944636660046,256.6944636660046,256.6944636660046,256.6944636660046,256.7005557083544,256.6944636660046,256.6944636660046,257.7455293330131,Correct! صحیح است,3,1.0478422080050223,None,0,47,257.7493289160193,257.76050629100064,259.7689349160064,259.74533108301694,,,,,,,,,,,,,,,,,,,,,,,,,,,,096785,001,2024-06-28_13h52.58.369,5-21,2024.1.4,None,2024-06-28 13h53.03.554316 +0900,
Images/Speaker1.jpg,Images/Speaker2.jpg,Images/Speaker3.jpg,Images/Speaker4.jpg,Audio/Speaker1_Per/P1-11-Per.wav,Speaker1,گوینده ۱,,,,,,,,,,,,0,47,47,10,,,,,,,,,259.7689349160064,,,,,,,,,,,,,,,,,,,,,,,,,,,,,,,,,,,,,,,,,,,,,259.74549575001583,259.7689349160064,259.7689349160064,259.7689349160064,259.7689349160064,259.77840304133906,259.7689349160064,259.7689349160064,260.88001916601206,Correct! صحیح است,1,1.107388375006849,None,0,48,260.88404525001533,260.89734408300137,262.90490333302296,262.8821332080115,,,,,,,,,,,,,,,,,,,,,,,,,,,,096785,001,2024-06-28_13h52.58.369,5-21,2024.1.4,None,2024-06-28 13h53.03.554316 +0900,
Images/Speaker1.jpg,Images/Speaker2.jpg,Images/Speaker3.jpg,Images/Speaker4.jpg,Audio/Speaker4_Per/P4-18-Per.wav,Speaker4,گوینده۴,,,,,,,,,,,,0,48,48,77,,,,,,,,,262.90490333302296,,,,,,,,,,,,,,,,,,,,,,,,,,,,,,,,,,,,,,,,,,,,,262.8823215830198,262.90490333302296,262.90490333302296,262.90490333302296,262.90490333302296,262.8985087916701,262.90490333302296,262.90490333302296,264.2763703330129,Correct! صحیح است,4,1.3625425409991294,None,0,49,264.28064941600314,264.2898269580037,,266.28413825001917,,,,,,,,,,,,,,,,,,,,,,,,,,,,096785,001,2024-06-28_13h52.58.369,5-21,2024.1.4,None,2024-06-28 13h53.03.554316 +0900,
Images/Speaker1.jpg,Images/Speaker2.jpg,Images/Speaker3.jpg,Images/Speaker4.jpg,Audio/Speaker1_Per/P1-4-Per.wav,Speaker1,گوینده ۱,,,,,,,,,,,,0,49,49,3,,,,,,,,,266.3081947500177,,,,,,,,,,,,,,,,,,,,,,,,,,,,,,,,,,,,,,,,,,,,,266.2847350410011,266.3081947500177,266.3081947500177,266.3081947500177,266.3081947500177,266.3172342083494,266.3081947500177,266.3081947500177,267.5059018750035,Correct! صحیح است,1,1.194834958994761,None,0,50,267.50980741600506,267.52125545800664,269.5376687500102,269.5095294160128,,,,,,,,,,,,,,,,,,,,,,,,,,,,096785,001,2024-06-28_13h52.58.369,5-21,2024.1.4,None,2024-06-28 13h53.03.554316 +0900,
Images/Speaker1.jpg,Images/Speaker2.jpg,Images/Speaker3.jpg,Images/Speaker4.jpg,Audio/Speaker1_Per/P1-1-Per.wav,Speaker1,گوینده ۱,,,,,,,,,,,,0,50,50,0,,,,,,,,,269.5376687500102,,,,,,,,,,,,,,,,,,,,,,,,,,,,,,,,,,,,,,,,,,,,,269.5102256660175,269.5376687500102,269.5376687500102,269.5376687500102,269.5376687500102,269.5418715833298,269.5376687500102,269.5376687500102,270.61789862500154,Correct! صحیح است,1,1.0697090000030585,None,0,51,270.6219395410153,270.6328814160079,272.6387899160036,272.616090000025,,,,,,,,,,,,,,,,,,,,,,,,,,,,096785,001,2024-06-28_13h52.58.369,5-21,2024.1.4,None,2024-06-28 13h53.03.554316 +0900,
Images/Speaker1.jpg,Images/Speaker2.jpg,Images/Speaker3.jpg,Images/Speaker4.jpg,Audio/Speaker3_Per/P3-7-Per.wav,Speaker3,گوینده۳,,,,,,,,,,,,0,51,51,46,,,,,,,,,272.6387899160036,,,,,,,,,,,,,,,,,,,,,,,,,,,,,,,,,,,,,,,,,,,,,272.6162455000158,272.6387899160036,272.6387899160036,272.6387899160036,272.6387899160036,272.63247391666323,272.6387899160036,272.6387899160036,274.790424375009,Correct! صحیح است,3,2.1396918749960605,None,0,52,274.7945353749965,274.80461216601543,276.81283550002263,276.79015141600394,,,,,,,,,,,,,,,,,,,,,,,,,,,,096785,001,2024-06-28_13h52.58.369,5-21,2024.1.4,None,2024-06-28 13h53.03.554316 +0900,
Images/Speaker1.jpg,Images/Speaker2.jpg,Images/Speaker3.jpg,Images/Speaker4.jpg,Audio/Speaker2_Per/P2-5-Per.wav,Speaker2,گوینده۲,,,,,,,,,,,,0,52,52,24,,,,,,,,,276.81283550002263,,,,,,,,,,,,,,,,,,,,,,,,,,,,,,,,,,,,,,,,,,,,,276.7903207500058,276.81283550002263,276.81283550002263,276.81283550002263,276.81283550002263,276.8065706246746,276.81283550002263,276.81283550002263,277.92594129100326,Correct! صحیح است,2,1.110436374990968,None,0,53,277.9301020410203,277.94215979101136,,279.93554991600104,,,,,,,,,,,,,,,,,,,,,,,,,,,,096785,001,2024-06-28_13h52.58.369,5-21,2024.1.4,None,2024-06-28 13h53.03.554316 +0900,
Images/Speaker1.jpg,Images/Speaker2.jpg,Images/Speaker3.jpg,Images/Speaker4.jpg,Audio/Speaker3_Per/P3-17-Per.wav,Speaker3,گوینده۳,,,,,,,,,,,,0,53,53,56,,,,,,,,,279.95790587502415,,,,,,,,,,,,,,,,,,,,,,,,,,,,,,,,,,,,,,,,,,,,,279.9357036250003,279.95790587502415,279.95790587502415,279.95790587502415,279.95790587502415,279.95217704167976,279.95790587502415,279.95790587502415,281.6973857500125,Incorrect! The correct answer is Speaker3. نادرست! پاسخ صحیح گوینده۳ است,2,1.7375995839829557,None,0,54,281.7013348750188,281.71465016601724,,283.7067454160133,,,,,,,,,,,,,,,,,,,,,,,,,,,,096785,001,2024-06-28_13h52.58.369,5-21,2024.1.4,None,2024-06-28 13h53.03.554316 +0900,
Images/Speaker1.jpg,Images/Speaker2.jpg,Images/Speaker3.jpg,Images/Speaker4.jpg,Audio/Speaker3_Per/P3-15-Per.wav,Speaker3,گوینده۳,,,,,,,,,,,,0,54,54,54,,,,,,,,,283.73416637501214,,,,,,,,,,,,,,,,,,,,,,,,,,,,,,,,,,,,,,,,,,,,,283.707375833008,283.73416637501214,283.73416637501214,283.73416637501214,283.73416637501214,283.73991929135127,283.73416637501214,283.73416637501214,284.76238204102265,Incorrect! The correct answer is Speaker3. نادرست! پاسخ صحیح گوینده۳ است,2,1.023105458007194,None,0,55,284.76668516601785,284.77977995801484,,286.7685665830213,,,,,,,,,,,,,,,,,,,,,,,,,,,,096785,001,2024-06-28_13h52.58.369,5-21,2024.1.4,None,2024-06-28 13h53.03.554316 +0900,
Images/Speaker1.jpg,Images/Speaker2.jpg,Images/Speaker3.jpg,Images/Speaker4.jpg,Audio/Speaker2_Per/P2-14-Per.wav,Speaker2,گوینده۲,,,,,,,,,,,,0,55,55,33,,,,,,,,,286.79774966600235,,,,,,,,,,,,,,,,,,,,,,,,,,,,,,,,,,,,,,,,,,,,,286.76917883299757,286.79774966600235,286.79774966600235,286.79774966600235,286.79774966600235,286.80173483334556,286.79774966600235,286.79774966600235,287.9121430410014,Correct! صحیح است,2,1.1131542079965584,None,0,56,287.91706733300816,287.92978441601736,289.93731658300385,289.9146184580168,,,,,,,,,,,,,,,,,,,,,,,,,,,,096785,001,2024-06-28_13h52.58.369,5-21,2024.1.4,None,2024-06-28 13h53.03.554316 +0900,
Images/Speaker1.jpg,Images/Speaker2.jpg,Images/Speaker3.jpg,Images/Speaker4.jpg,Audio/Speaker1_Per/P1-17-Per.wav,Speaker1,گوینده ۱,,,,,,,,,,,,0,56,56,16,,,,,,,,,289.93731658300385,,,,,,,,,,,,,,,,,,,,,,,,,,,,,,,,,,,,,,,,,,,,,289.9147760409978,289.93731658300385,289.93731658300385,289.93731658300385,289.93731658300385,289.9309815416675,289.93731658300385,289.93731658300385,290.9271689580055,Correct! صحیح است,1,0.98445529199671,None,0,57,290.9321589160245,290.9455864580232,,292.9328522910073,,,,,,,,,,,,,,,,,,,,,,,,,,,,096785,001,2024-06-28_13h52.58.369,5-21,2024.1.4,None,2024-06-28 13h53.03.554316 +0900,
Images/Speaker1.jpg,Images/Speaker2.jpg,Images/Speaker3.jpg,Images/Speaker4.jpg,Audio/Speaker4_Per/P4-20-Per.wav,Speaker4,گوینده۴,,,,,,,,,,,,0,57,57,79,,,,,,,,,292.9588134580117,,,,,,,,,,,,,,,,,,,,,,,,,,,,,,,,,,,,,,,,,,,,,292.93341370800044,292.9588134580117,292.9588134580117,292.9588134580117,292.9588134580117,292.96603820834616,292.9588134580117,292.9588134580117,294.2704137910041,Correct! صحیح است,4,1.3099432500021067,None,0,58,294.2744150000217,294.28589837500476,296.29686083301203,296.27411816600943,,,,,,,,,,,,,,,,,,,,,,,,,,,,096785,001,2024-06-28_13h52.58.369,5-21,2024.1.4,None,2024-06-28 13h53.03.554316 +0900,
Images/Speaker1.jpg,Images/Speaker2.jpg,Images/Speaker3.jpg,Images/Speaker4.jpg,Audio/Speaker1_Per/P1-20-Per.wav,Speaker1,گوینده ۱,,,,,,,,,,,,0,58,58,19,,,,,,,,,296.29686083301203,,,,,,,,,,,,,,,,,,,,,,,,,,,,,,,,,,,,,,,,,,,,,296.2742931660032,296.29686083301203,296.29686083301203,296.29686083301203,296.29686083301203,296.2905245416662,296.29686083301203,296.29686083301203,297.48246283302433,Correct! صحیح است,1,1.177216457988834,None,0,59,297.4864250830142,297.49802191602066,,299.4934501660173,,,,,,,,,,,,,,,,,,,,,,,,,,,,096785,001,2024-06-28_13h52.58.369,5-21,2024.1.4,None,2024-06-28 13h53.03.554316 +0900,
Images/Speaker1.jpg,Images/Speaker2.jpg,Images/Speaker3.jpg,Images/Speaker4.jpg,Audio/Speaker2_Per/P2-6-Per.wav,Speaker2,گوینده۲,,,,,,,,,,,,0,59,59,25,,,,,,,,,299.5208484160248,,,,,,,,,,,,,,,,,,,,,,,,,,,,,,,,,,,,,,,,,,,,,299.49412316601956,299.5208484160248,299.5208484160248,299.5208484160248,299.5208484160248,299.5266229583435,299.5208484160248,299.5208484160248,300.60421225000755,Correct! صحیح است,2,1.0819920000212733,None,0,60,300.6083038750221,300.62109345800127,302.6315592910105,302.606901000021,,,,,,,,,,,,,,,,,,,,,,,,,,,,096785,001,2024-06-28_13h52.58.369,5-21,2024.1.4,None,2024-06-28 13h53.03.554316 +0900,
Images/Speaker1.jpg,Images/Speaker2.jpg,Images/Speaker3.jpg,Images/Speaker4.jpg,Audio/Speaker4_Per/P4-4-Per.wav,Speaker4,گوینده۴,,,,,,,,,,,,0,60,60,63,,,,,,,,,302.6315592910105,,,,,,,,,,,,,,,,,,,,,,,,,,,,,,,,,,,,,,,,,,,,,302.6070661660051,302.6315592910105,302.6315592910105,302.6315592910105,302.6315592910105,302.63999837433994,302.6315592910105,302.6315592910105,303.81203779100906,Correct! صحیح است,4,1.1779355000180658,None,0,61,303.8161357080098,303.82752608301234,305.8348202080233,305.8120748329966,,,,,,,,,,,,,,,,,,,,,,,,,,,,096785,001,2024-06-28_13h52.58.369,5-21,2024.1.4,None,2024-06-28 13h53.03.554316 +0900,
Images/Speaker1.jpg,Images/Speaker2.jpg,Images/Speaker3.jpg,Images/Speaker4.jpg,Audio/Speaker2_Per/P2-18-Per.wav,Speaker2,گوینده۲,,,,,,,,,,,,0,61,61,37,,,,,,,,,305.8348202080233,,,,,,,,,,,,,,,,,,,,,,,,,,,,,,,,,,,,,,,,,,,,,305.8122673330072,305.8348202080233,305.8348202080233,305.8348202080233,305.8348202080233,305.8284637916697,305.8348202080233,305.8348202080233,306.9239996660035,Correct! صحیح است,2,1.0790904170135036,None,0,62,306.92772758301,306.93893662499613,,308.9324954159965,,,,,,,,,,,,,,,,,,,,,,,,,,,,096785,001,2024-06-28_13h52.58.369,5-21,2024.1.4,None,2024-06-28 13h53.03.554316 +0900,
Images/Speaker1.jpg,Images/Speaker2.jpg,Images/Speaker3.jpg,Images/Speaker4.jpg,Audio/Speaker4_Per/P4-5-Per.wav,Speaker4,گوینده۴,,,,,,,,,,,,0,62,62,64,,,,,,,,,308.9548713749973,,,,,,,,,,,,,,,,,,,,,,,,,,,,,,,,,,,,,,,,,,,,,308.9326587910182,308.9548713749973,308.9548713749973,308.9548713749973,308.9548713749973,308.9491251246693,308.9548713749973,308.9548713749973,310.0697675830161,Incorrect! The correct answer is Speaker4. نادرست! پاسخ صحیح گوینده۴ است,1,1.1056169169896748,None,0,63,310.07370716601145,310.0848262910149,312.0960402500059,312.0728591660154,,,,,,,,,,,,,,,,,,,,,,,,,,,,096785,001,2024-06-28_13h52.58.369,5-21,2024.1.4,None,2024-06-28 13h53.03.554316 +0900,
Images/Speaker1.jpg,Images/Speaker2.jpg,Images/Speaker3.jpg,Images/Speaker4.jpg,Audio/Speaker1_Per/P1-8-Per.wav,Speaker1,گوینده ۱,,,,,,,,,,,,0,63,63,7,,,,,,,,,312.0960402500059,,,,,,,,,,,,,,,,,,,,,,,,,,,,,,,,,,,,,,,,,,,,,312.073019250005,312.0960402500059,312.0960402500059,312.0960402500059,312.0960402500059,312.1058734163312,312.0960402500059,312.0960402500059,313.4321262910089,Correct! صحیح است,1,1.332938458013814,None,0,64,313.43586887500715,313.4488150830148,,315.4426687080122,,,,,,,,,,,,,,,,,,,,,,,,,,,,096785,001,2024-06-28_13h52.58.369,5-21,2024.1.4,None,2024-06-28 13h53.03.554316 +0900,
Images/Speaker1.jpg,Images/Speaker2.jpg,Images/Speaker3.jpg,Images/Speaker4.jpg,Audio/Speaker4_Per/P4-12-Per.wav,Speaker4,گوینده۴,,,,,,,,,,,,0,64,64,71,,,,,,,,,315.4681627500104,,,,,,,,,,,,,,,,,,,,,,,,,,,,,,,,,,,,,,,,,,,,,315.44330729101785,315.4681627500104,315.4681627500104,315.4681627500104,315.4681627500104,315.4757974163299,315.4681627500104,315.4681627500104,316.6998438750161,Correct! صحیح است,4,1.22136591601884,None,0,65,316.7040128330118,316.7149557910161,318.7242519580177,318.6985517500143,,,,,,,,,,,,,,,,,,,,,,,,,,,,096785,001,2024-06-28_13h52.58.369,5-21,2024.1.4,None,2024-06-28 13h53.03.554316 +0900,
Images/Speaker1.jpg,Images/Speaker2.jpg,Images/Speaker3.jpg,Images/Speaker4.jpg,Audio/Speaker1_Per/P1-10-Per.wav,Speaker1,گوینده ۱,,,,,,,,,,,,0,65,65,9,,,,,,,,,318.7242519580177,,,,,,,,,,,,,,,,,,,,,,,,,,,,,,,,,,,,,,,,,,,,,318.69869654101785,318.7242519580177,318.7242519580177,318.7242519580177,318.7242519580177,318.7316113743368,318.7242519580177,318.7242519580177,319.75709583301796,Correct! صحیح است,1,1.021292582998285,None,0,66,319.76090824999847,319.7701452500187,321.78488166601164,321.76022891601315,,,,,,,,,,,,,,,,,,,,,,,,,,,,096785,001,2024-06-28_13h52.58.369,5-21,2024.1.4,None,2024-06-28 13h53.03.554316 +0900,
Images/Speaker1.jpg,Images/Speaker2.jpg,Images/Speaker3.jpg,Images/Speaker4.jpg,Audio/Speaker2_Per/P2-8-Per.wav,Speaker2,گوینده۲,,,,,,,,,,,,0,66,66,27,,,,,,,,,321.78488166601164,,,,,,,,,,,,,,,,,,,,,,,,,,,,,,,,,,,,,,,,,,,,,321.7611485410016,321.78488166601164,321.78488166601164,321.78488166601164,321.78488166601164,321.7927117493314,321.78488166601164,321.78488166601164,323.08798804102116,Correct! صحیح است,2,1.293814292002935,None,0,67,323.09188170800917,323.1007529160124,325.1144341659965,325.09067674999824,,,,,,,,,,,,,,,,,,,,,,,,,,,,096785,001,2024-06-28_13h52.58.369,5-21,2024.1.4,None,2024-06-28 13h53.03.554316 +0900,
Images/Speaker1.jpg,Images/Speaker2.jpg,Images/Speaker3.jpg,Images/Speaker4.jpg,Audio/Speaker2_Per/P2-2-Per.wav,Speaker2,گوینده۲,,,,,,,,,,,,0,67,67,21,,,,,,,,,325.1144341659965,,,,,,,,,,,,,,,,,,,,,,,,,,,,,,,,,,,,,,,,,,,,,325.0908549160231,325.1144341659965,325.1144341659965,325.1144341659965,325.1144341659965,325.1237985833509,325.1144341659965,325.1144341659965,326.2650958750164,Correct! صحیح است,2,1.1476347089919727,None,0,68,326.26905395800713,326.28093670800445,328.2963925000222,328.2679619580158,,,,,,,,,,,,,,,,,,,,,,,,,,,,096785,001,2024-06-28_13h52.58.369,5-21,2024.1.4,None,2024-06-28 13h53.03.554316 +0900,
Images/Speaker1.jpg,Images/Speaker2.jpg,Images/Speaker3.jpg,Images/Speaker4.jpg,Audio/Speaker3_Per/P3-1-Per.wav,Speaker3,گوینده۳,,,,,,,,,,,,0,68,68,40,,,,,,,,,328.2963925000222,,,,,,,,,,,,,,,,,,,,,,,,,,,,,,,,,,,,,,,,,,,,,328.2685928750143,328.2963925000222,328.2963925000222,328.2963925000222,328.2963925000222,328.30033262435654,328.2963925000222,328.2963925000222,329.57275816600304,Correct! صحیح است,3,1.2723662499920465,None,0,69,329.5765777080087,329.5882740000088,331.5966293750098,331.57162154102116,,,,,,,,,,,,,,,,,,,,,,,,,,,,096785,001,2024-06-28_13h52.58.369,5-21,2024.1.4,None,2024-06-28 13h53.03.554316 +0900,
Images/Speaker1.jpg,Images/Speaker2.jpg,Images/Speaker3.jpg,Images/Speaker4.jpg,Audio/Speaker1_Per/P1-5-Per.wav,Speaker1,گوینده ۱,,,,,,,,,,,,0,69,69,4,,,,,,,,,331.5966293750098,,,,,,,,,,,,,,,,,,,,,,,,,,,,,,,,,,,,,,,,,,,,,331.57255574999726,331.5966293750098,331.5966293750098,331.5966293750098,331.5966293750098,331.60400870833155,331.5966293750098,331.5966293750098,332.7894804160169,Correct! صحیح است,1,1.1882373749976978,None,0,70,332.7934484160214,332.80496166599914,334.8203975830111,334.7922857910162,,,,,,,,,,,,,,,,,,,,,,,,,,,,096785,001,2024-06-28_13h52.58.369,5-21,2024.1.4,None,2024-06-28 13h53.03.554316 +0900,
Images/Speaker1.jpg,Images/Speaker2.jpg,Images/Speaker3.jpg,Images/Speaker4.jpg,Audio/Speaker1_Per/P1-19-Per.wav,Speaker1,گوینده ۱,,,,,,,,,,,,0,70,70,18,,,,,,,,,334.8203975830111,,,,,,,,,,,,,,,,,,,,,,,,,,,,,,,,,,,,,,,,,,,,,334.7928423330013,334.8203975830111,334.8203975830111,334.8203975830111,334.8203975830111,334.82456095834686,334.8203975830111,334.8203975830111,336.19923291599844,Correct! صحیح است,1,1.3731514169776347,None,0,71,336.2034884580062,336.2147935000248,338.22125970802153,338.1980504580133,,,,,,,,,,,,,,,,,,,,,,,,,,,,096785,001,2024-06-28_13h52.58.369,5-21,2024.1.4,None,2024-06-28 13h53.03.554316 +0900,
Images/Speaker1.jpg,Images/Speaker2.jpg,Images/Speaker3.jpg,Images/Speaker4.jpg,Audio/Speaker3_Per/P3-6-Per.wav,Speaker3,گوینده۳,,,,,,,,,,,,0,71,71,45,,,,,,,,,338.22125970802153,,,,,,,,,,,,,,,,,,,,,,,,,,,,,,,,,,,,,,,,,,,,,338.19823004101636,338.22125970802153,338.22125970802153,338.22125970802153,338.22125970802153,338.2311019993581,338.22125970802153,338.22125970802153,339.39360974999727,Correct! صحیح است,3,1.1616914159967564,None,0,72,339.397861541016,339.40923233301146,,341.40235233301064,,,,,,,,,,,,,,,,,,,,,,,,,,,,096785,001,2024-06-28_13h52.58.369,5-21,2024.1.4,None,2024-06-28 13h53.03.554316 +0900,
Images/Speaker1.jpg,Images/Speaker2.jpg,Images/Speaker3.jpg,Images/Speaker4.jpg,Audio/Speaker3_Per/P3-12-Per.wav,Speaker3,گوینده۳,,,,,,,,,,,,0,72,72,51,,,,,,,,,341.42997816600837,,,,,,,,,,,,,,,,,,,,,,,,,,,,,,,,,,,,,,,,,,,,,341.4029324160074,341.42997816600837,341.42997816600837,341.42997816600837,341.42997816600837,341.43553912433754,341.42997816600837,341.42997816600837,343.16705450002337,Correct! صحیح است,3,1.7269931249902584,None,0,73,343.17104975000257,343.1828360829968,,345.17578062502434,,,,,,,,,,,,,,,,,,,,,,,,,,,,096785,001,2024-06-28_13h52.58.369,5-21,2024.1.4,None,2024-06-28 13h53.03.554316 +0900,
Images/Speaker1.jpg,Images/Speaker2.jpg,Images/Speaker3.jpg,Images/Speaker4.jpg,Audio/Speaker3_Per/P3-16-Per.wav,Speaker3,گوینده۳,,,,,,,,,,,,0,73,73,55,,,,,,,,,345.1983107080159,,,,,,,,,,,,,,,,,,,,,,,,,,,,,,,,,,,,,,,,,,,,,345.1759459580062,345.1983107080159,345.1983107080159,345.1983107080159,345.1983107080159,345.1923979996684,345.1983107080159,345.1983107080159,346.53770354102016,Correct! صحیح است,3,1.3342390000179876,None,0,74,346.5420098750037,346.55357758302125,348.56132766601513,348.53878141602036,,,,,,,,,,,,,,,,,,,,,,,,,,,,096785,001,2024-06-28_13h52.58.369,5-21,2024.1.4,None,2024-06-28 13h53.03.554316 +0900,
Images/Speaker1.jpg,Images/Speaker2.jpg,Images/Speaker3.jpg,Images/Speaker4.jpg,Audio/Speaker2_Per/P2-16-Per.wav,Speaker2,گوینده۲,,,,,,,,,,,,0,74,74,35,,,,,,,,,348.56132766601513,,,,,,,,,,,,,,,,,,,,,,,,,,,,,,,,,,,,,,,,,,,,,348.5389669580036,348.56132766601513,348.56132766601513,348.56132766601513,348.56132766601513,348.55519620768996,348.56132766601513,348.56132766601513,350.01687500000116,Correct! صحیح است,2,1.4492650410102215,None,0,75,350.0207526660233,350.0317364160146,,352.0276528329996,,,,,,,,,,,,,,,,,,,,,,,,,,,,096785,001,2024-06-28_13h52.58.369,5-21,2024.1.4,None,2024-06-28 13h53.03.554316 +0900,
Images/Speaker1.jpg,Images/Speaker2.jpg,Images/Speaker3.jpg,Images/Speaker4.jpg,Audio/Speaker3_Per/P3-8-Per.wav,Speaker3,گوینده۳,,,,,,,,,,,,0,75,75,47,,,,,,,,,352.0552347910125,,,,,,,,,,,,,,,,,,,,,,,,,,,,,,,,,,,,,,,,,,,,,352.028306541004,352.0552347910125,352.0552347910125,352.0552347910125,352.0552347910125,352.06079674934927,352.0552347910125,352.0552347910125,353.59789104101947,Correct! صحیح است,3,1.5343197920010425,None,0,76,353.6019570000062,353.61099012501654,355.6180375830154,355.5954392910062,,,,,,,,,,,,,,,,,,,,,,,,,,,,096785,001,2024-06-28_13h52.58.369,5-21,2024.1.4,None,2024-06-28 13h53.03.554316 +0900,
Images/Speaker1.jpg,Images/Speaker2.jpg,Images/Speaker3.jpg,Images/Speaker4.jpg,Audio/Speaker1_Per/P1-12-Per.wav,Speaker1,گوینده ۱,,,,,,,,,,,,0,76,76,11,,,,,,,,,355.6180375830154,,,,,,,,,,,,,,,,,,,,,,,,,,,,,,,,,,,,,,,,,,,,,355.5956159160123,355.6180375830154,355.6180375830154,355.6180375830154,355.6180375830154,355.6118758326668,355.6180375830154,355.6180375830154,356.75442979100626,Correct! صحیح است,1,1.1347687079978641,None,0,77,356.75827920800657,356.76969320801436,,358.76608854101505,,,,,,,,,,,,,,,,,,,,,,,,,,,,096785,001,2024-06-28_13h52.58.369,5-21,2024.1.4,None,2024-06-28 13h53.03.554316 +0900,
Images/Speaker1.jpg,Images/Speaker2.jpg,Images/Speaker3.jpg,Images/Speaker4.jpg,Audio/Speaker4_Per/P4-3-Per.wav,Speaker4,گوینده۴,,,,,,,,,,,,0,77,77,62,,,,,,,,,358.7900047080184,,,,,,,,,,,,,,,,,,,,,,,,,,,,,,,,,,,,,,,,,,,,,358.7667032080062,358.7900047080184,358.7900047080184,358.7900047080184,358.7900047080184,358.7992291663327,358.7900047080184,358.7900047080184,361.08063425001455,Correct! صحیح است,4,2.2895030419749673,None,0,78,361.0846305830055,361.09663604100933,363.10696900001494,363.08296920801513,,,,,,,,,,,,,,,,,,,,,,,,,,,,096785,001,2024-06-28_13h52.58.369,5-21,2024.1.4,None,2024-06-28 13h53.03.554316 +0900,
Images/Speaker1.jpg,Images/Speaker2.jpg,Images/Speaker3.jpg,Images/Speaker4.jpg,Audio/Speaker1_Per/P1-15-Per.wav,Speaker1,گوینده ۱,,,,,,,,,,,,0,78,78,14,,,,,,,,,363.10696900001494,,,,,,,,,,,,,,,,,,,,,,,,,,,,,,,,,,,,,,,,,,,,,363.0831829580129,363.10696900001494,363.10696900001494,363.10696900001494,363.10696900001494,363.1160328743358,363.10696900001494,363.10696900001494,364.2279780410172,Correct! صحیح است,1,1.1110692090005614,None,0,79,364.23284866599715,364.245338208013,366.254066583002,366.23054079100257,,,,,,,,,,,,,,,,,,,,,,,,,,,,096785,001,2024-06-28_13h52.58.369,5-21,2024.1.4,None,2024-06-28 13h53.03.554316 +0900,
Images/Speaker1.jpg,Images/Speaker2.jpg,Images/Speaker3.jpg,Images/Speaker4.jpg,Audio/Speaker4_Per/P4-1-Per.wav,Speaker4,گوینده۴,,,,,,,,,,,,0,79,79,60,,,,,,,,,366.254066583002,,,,,,,,,,,,,,,,,,,,,,,,,,,,,,,,,,,,,,,,,,,,,366.2307359999977,366.254066583002,366.254066583002,366.254066583002,366.254066583002,366.2636357493543,366.254066583002,366.254066583002,368.43720800001756,Correct! صحیح است,4,2.1803040000086185,None,0,80,368.4411586250062,368.45241820800584,,370.4439729160222,,,,,,,,,,,,,,,,,,,,,,,,,,,,096785,001,2024-06-28_13h52.58.369,5-21,2024.1.4,None,2024-06-28 13h53.03.554316 +0900,
,,,,,,,,,,,,,,,,,,,,,,,,,,,,,,,,,,,,,,,,,,,,,,,,,,,,,,,,,,,,,,,,,,,,,,,,,,,,,,,,,,,,,,,,,,,,,,370.4636480830086,370.46395708300406,TrainingGroup1,,,,,,,,,,,,,,,,,,,,,,,,,096785,001,2024-06-28_13h52.58.369,5-21,2024.1.4,None,2024-06-28 13h53.03.554316 +0900,
,,,,,,,,,,,,,,,,,,,,,,,,,,,,,,,,,,,,,,,,,,,,,,,,,,,,,,,,,,,,,,,,,,,,,,,,,,,,,,,,,,,,,,,,,,,,,,,,,370.46397379101836,370.4685705000011,375.5030477910186,375.45907400001306,,,,,,,,,,,,,,,,,,,,,096785,001,2024-06-28_13h52.58.369,5-21,2024.1.4,None,2024-06-28 13h53.03.554316 +0900,
,,,,,,,Images/Speaker1.jpg,Images/Speaker2.jpg,Images/Speaker3.jpg,Images/Speaker4.jpg,Audio/Speaker1_Per/P1-4-Per.wav,Speaker1,گوینده ۱,,,,,,,,,,,,,0,0,0,3,375.5030477910186,,,,,,,,,,,,,,,,,,,,,,,,,,,,,,,,,,,,,,,,,,,,,,,,,,,,,,,,,,,,,,,,,,,,,,,375.4794138750003,375.5030477910186,375.5030477910186,375.5030477910186,375.5030477910186,375.50767783300836,375.5030477910186,375.5030477910186,382.1741932500154,1,6.665154917020118,None,1,Images/Speaker1.jpg,Images/Speaker2.jpg,Images/Speaker3.jpg,Images/Speaker4.jpg,Audio/Speaker1_Per/P1-4-Per.wav,Speaker1,گوینده ۱,096785,001,2024-06-28_13h52.58.369,5-21,2024.1.4,None,2024-06-28 13h53.03.554316 +0900,
,,,,,,,Images/Speaker1.jpg,Images/Speaker2.jpg,Images/Speaker3.jpg,Images/Speaker4.jpg,Audio/Speaker3_Per/P3-2-Per.wav,Speaker3,گوینده۳,,,,,,,,,,,,,0,1,1,41,382.20020854100585,,,,,,,,,,,,,,,,,,,,,,,,,,,,,,,,,,,,,,,,,,,,,,,,,,,,,,,,,,,,,,,,,,,,,,,382.17467616600334,382.20020854100585,382.20020854100585,382.20020854100585,382.20020854100585,382.20662295833654,382.20020854100585,382.20020854100585,388.51112562502385,3,6.302034583000932,None,3,Images/Speaker1.jpg,Images/Speaker2.jpg,Images/Speaker3.jpg,Images/Speaker4.jpg,Audio/Speaker3_Per/P3-2-Per.wav,Speaker1,گوینده ۱,096785,001,2024-06-28_13h52.58.369,5-21,2024.1.4,None,2024-06-28 13h53.03.554316 +0900,
,,,,,,,Images/Speaker1.jpg,Images/Speaker2.jpg,Images/Speaker3.jpg,Images/Speaker4.jpg,Audio/Speaker3_Per/P3-5-Per.wav,Speaker3,گوینده۳,,,,,,,,,,,,,0,2,2,44,388.536051166011,,,,,,,,,,,,,,,,,,,,,,,,,,,,,,,,,,,,,,,,,,,,,,,,,,,,,,,,,,,,,,,,,,,,,,,388.5114935830061,388.536051166011,388.536051166011,388.536051166011,388.536051166011,388.5269198326898,388.536051166011,388.536051166011,391.5914970000158,3,3.0498869580042083,None,3,Images/Speaker1.jpg,Images/Speaker2.jpg,Images/Speaker3.jpg,Images/Speaker4.jpg,Audio/Speaker3_Per/P3-5-Per.wav,Speaker1,گوینده ۱,096785,001,2024-06-28_13h52.58.369,5-21,2024.1.4,None,2024-06-28 13h53.03.554316 +0900,
,,,,,,,,,,,,,,,,,,,,,,,,,,,,,,391.61965999999666,,,,,,,,,,,,,,,,,,,,,,,,,,,,,,,,,,,,,,,,,,,,,,,,,,,,,,,,,,,,,,,,,,,,,,,391.5954768329975,391.61965999999666,391.61965999999666,391.61965999999666,391.61965999999666,391.62398354133666,391.61965999999666,391.61965999999666,,,,,,,,,,,,,,,,,,,,
