SpeakerImage1,SpeakerImage2,SpeakerImage3,SpeakerImage4,TrainingSound,EnglishCorrectAnswer,PersianCorrectAnswer,SpeakerPhoto1,SpeakerPhoto2,SpeakerPhoto3,SpeakerPhoto4,TestingSound,EnglishCorrectResponse,PersianCorrectResponse,TrainingLoopGroup1.thisRepN,TrainingLoopGroup1.thisTrialN,TrainingLoopGroup1.thisN,TrainingLoopGroup1.thisIndex,TrainingLoopGroup2.thisRepN,TrainingLoopGroup2.thisTrialN,TrainingLoopGroup2.thisN,TrainingLoopGroup2.thisIndex,repeated_TrainingLoopGroup3.thisRepN,repeated_TrainingLoopGroup3.thisTrialN,repeated_TrainingLoopGroup3.thisN,repeated_TrainingLoopGroup3.thisIndex,TrainingLoopGroup3.thisRepN,TrainingLoopGroup3.thisTrialN,TrainingLoopGroup3.thisN,TrainingLoopGroup3.thisIndex,testPhase1Loop.thisRepN,testPhase1Loop.thisTrialN,testPhase1Loop.thisN,testPhase1Loop.thisIndex,thisRow.t,notes,trial.started,trial.stopped,GroupSelection.started,GroupInstructions.started,key_resp.started,GroupSelection.stopped,key_resp.keys,key_resp.rt,key_resp.duration,Introduction.started,text_2.started,image.started,sound_7.started,text_4.started,text_2.stopped,sound_8.started,image_7.started,sound_9.started,text_5.started,image.stopped,text_4.stopped,sound_10.started,image_7.stopped,text_5.stopped,image_8.started,sound_11.started,text_6.started,sound_12.started,image_8.stopped,text_6.stopped,image_9.started,sound_13.started,text_7.started,sound_14.started,image_9.stopped,text_7.stopped,Introduction.stopped,Instructions.started,InstructionText.started,InstructionText.stopped,Instructions.stopped,InitializeExperiment.started,InitializeExperiment.stopped,TrainingGroup3.started,SpeakerPicture3.started,image_15.started,image_16.started,image_17.started,Sound3.started,Instruction3.started,Response3.started,TrainingGroup3.stopped,feedbackText,correct_responses_group3,total_trials_group3,Response3.keys,Response3.rt,Response3.duration,FeedbackRoutine3.started,FeedbackText3.started,FeedbackText3.stopped,FeedbackRoutine3.stopped,CheckAccuracy3.started,accuracy_group3,proceed_to_test,CheckAccuracy3.stopped,WelcomeTest.started,text_12.started,text_12.stopped,WelcomeTest.stopped,TestPhase1.started,test1_image1.started,test1_image2.started,test1_image3.started,test1_image4.started,test1_sound.started,text_3.started,test1_response_keyboard.started,TestPhase1.stopped,test1_response_keyboard.keys,test1_response_keyboard.rt,test1_response_keyboard.duration,test1_response,test1_image_file1,test1_image_file2,test1_image_file3,test1_image_file4,test1_sound_file,english_correct_answer,persian_correct_answer,participant,session,date,expName,psychopyVersion,frameRate,expStart,
,,,,,,,,,,,,,,,,,,,,,,,,,,,,,,,,,,,,0.009967166999558685,0.010291209000570234,,,,,,,,,,,,,,,,,,,,,,,,,,,,,,,,,,,,,,,,,,,,,,,,,,,,,,,,,,,,,,,,,,,,,,,,,,,,,,,,,,,,,,,,,106290,001,2024-07-01_21h09.58.231,5-24,2024.1.4,None,2024-07-01 21h10.03.014992 +0900,
,,,,,,,,,,,,,,,,,,,,,,,,,,,,,,,,,,,,,,0.010305333998985589,0.014677375002065673,0.014677375002065673,1.4676267920003738,3,1.4148690829970292,None,,,,,,,,,,,,,,,,,,,,,,,,,,,,,,,,,,,,,,,,,,,,,,,,,,,,,,,,,,,,,,,,,,,,,,,,,,,,,,,,,,106290,001,2024-07-01_21h09.58.231,5-24,2024.1.4,None,2024-07-01 21h10.03.014992 +0900,
,,,,,,,,,,,,,,,,,,,,,,,,,,,,,,,,,,,,,,,,,,,,,1.4676645420004206,1.5216118339994864,6.474169375000201,6.479478000667101,6.474169375000201,6.5174324170002365,11.480446583668042,16.456524917000934,16.46746816666588,16.456524917000934,16.467216666998866,16.467216666998866,21.467841166668464,26.451964416999544,26.451964416999544,26.459164291998604,26.46863108366621,26.459164291998604,31.476732416668042,36.44679166700007,36.44679166700007,36.4703155419993,36.479015750665226,36.4703155419993,41.469586833667805,46.469832334001694,46.469832334001694,46.46342962500057,,,,,,,,,,,,,,,,,,,,,,,,,,,,,,,,,,,,,,,,,,,,,,,,,,,,,,106290,001,2024-07-01_21h09.58.231,5-24,2024.1.4,None,2024-07-01 21h10.03.014992 +0900,
,,,,,,,,,,,,,,,,,,,,,,,,,,,,,,,,,,,,,,,,,,,,,,,,,,,,,,,,,,,,,,,,,,,,,,,,,46.46356145900063,46.469832334001694,47.565358625000954,47.45844762500201,,,,,,,,,,,,,,,,,,,,,,,,,,,,,,,,,,,,,,,,,,,,,,,,,,106290,001,2024-07-01_21h09.58.231,5-24,2024.1.4,None,2024-07-01 21h10.03.014992 +0900,
,,,,,,,,,,,,,,,,,,,,,,,,,,,,,,,,,,,,,,,,,,,,,,,,,,,,,,,,,,,,,,,,,,,,,,,,,,,,,47.45846095900197,47.458611459001986,,,,,,,,,,,,,,,,,,,,,,,,,,,,,,,,,,,,,,,,,,,,,,,,106290,001,2024-07-01_21h09.58.231,5-24,2024.1.4,None,2024-07-01 21h10.03.014992 +0900,
Images/Speaker1.jpg,Images/Speaker2.jpg,Images/Speaker3.jpg,Images/Speaker4.jpg,Audio/Speaker1_En/P1-20-En.wav,Speaker1,گوینده ۱,,,,,,,,,,,,,,,,0,0,0,73,0,0,0,19,,,,,47.565358625000954,,,,,,,,,,,,,,,,,,,,,,,,,,,,,,,,,,,,,,,,,,,,,47.5416021250021,47.565358625000954,47.565358625000954,47.565358625000954,47.565358625000954,47.574919291668145,47.565358625000954,47.565358625000954,49.25315858400063,Correct! صحیح است,1,1,1,1.678034790998936,None,49.25758712500101,49.26985479200084,51.27809983399857,51.25417445900166,,,,,,,,,,,,,,,,,,,,,,,,,,,,,106290,001,2024-07-01_21h09.58.231,5-24,2024.1.4,None,2024-07-01 21h10.03.014992 +0900,
Images/Speaker1.jpg,Images/Speaker2.jpg,Images/Speaker3.jpg,Images/Speaker4.jpg,Audio/Speaker2_En/P2-6-En.wav,Speaker2,گوینده۲,,,,,,,,,,,,,,,,0,0,0,73,0,1,1,25,,,,,51.27809983399857,,,,,,,,,,,,,,,,,,,,,,,,,,,,,,,,,,,,,,,,,,,,,51.25493487499989,51.27809983399857,51.27809983399857,51.27809983399857,51.27809983399857,51.28667587533394,51.27809983399857,51.27809983399857,52.26047495899911,Correct! صحیح است,1,1,2,0.9759235829988029,None,52.26549737499954,52.27796333399965,54.2879790420011,54.26354787500168,,,,,,,,,,,,,,,,,,,,,,,,,,,,,106290,001,2024-07-01_21h09.58.231,5-24,2024.1.4,None,2024-07-01 21h10.03.014992 +0900,
Images/Speaker1.jpg,Images/Speaker2.jpg,Images/Speaker3.jpg,Images/Speaker4.jpg,Audio/Speaker2_En/P2-9-En.wav,Speaker2,گوینده۲,,,,,,,,,,,,,,,,0,0,0,73,0,2,2,28,,,,,54.2879790420011,,,,,,,,,,,,,,,,,,,,,,,,,,,,,,,,,,,,,,,,,,,,,54.26440441700106,54.2879790420011,54.2879790420011,54.2879790420011,54.2879790420011,54.296037583332264,54.2879790420011,54.2879790420011,55.38531000000148,Correct! صحیح است,1,1,2,1.0952760000000126,None,55.389468000001216,55.40594295900155,57.411172833999444,57.38895300000149,,,,,,,,,,,,,,,,,,,,,,,,,,,,,106290,001,2024-07-01_21h09.58.231,5-24,2024.1.4,None,2024-07-01 21h10.03.014992 +0900,
Images/Speaker1.jpg,Images/Speaker2.jpg,Images/Speaker3.jpg,Images/Speaker4.jpg,Audio/Speaker4_En/P4-5-En.wav,Speaker4,گوینده۴,,,,,,,,,,,,,,,,0,0,0,73,0,3,3,64,,,,,57.411172833999444,,,,,,,,,,,,,,,,,,,,,,,,,,,,,,,,,,,,,,,,,,,,,57.38914199999999,57.411172833999444,57.411172833999444,57.411172833999444,57.411172833999444,57.40542229166773,57.411172833999444,57.411172833999444,59.15861695900094,Correct! صحیح است,1,1,4,1.7444224579994625,None,59.16278466700169,59.17449733399917,61.1862770000007,61.16063541699987,,,,,,,,,,,,,,,,,,,,,,,,,,,,,106290,001,2024-07-01_21h09.58.231,5-24,2024.1.4,None,2024-07-01 21h10.03.014992 +0900,
Images/Speaker1.jpg,Images/Speaker2.jpg,Images/Speaker3.jpg,Images/Speaker4.jpg,Audio/Speaker2_En/P2-11-En.wav,Speaker2,گوینده۲,,,,,,,,,,,,,,,,0,0,0,73,0,4,4,30,,,,,61.1862770000007,,,,,,,,,,,,,,,,,,,,,,,,,,,,,,,,,,,,,,,,,,,,,61.16154287500103,61.1862770000007,61.1862770000007,61.1862770000007,61.1862770000007,61.19322762533241,61.1862770000007,61.1862770000007,62.615989249999984,Correct! صحیح است,1,1,2,1.4266717499995138,None,62.61994758400033,62.63215279200085,64.64102387499952,64.6187976250003,,,,,,,,,,,,,,,,,,,,,,,,,,,,,106290,001,2024-07-01_21h09.58.231,5-24,2024.1.4,None,2024-07-01 21h10.03.014992 +0900,
Images/Speaker1.jpg,Images/Speaker2.jpg,Images/Speaker3.jpg,Images/Speaker4.jpg,Audio/Speaker2_En/P2-18-En.wav,Speaker2,گوینده۲,,,,,,,,,,,,,,,,0,0,0,73,0,5,5,37,,,,,64.64102387499952,,,,,,,,,,,,,,,,,,,,,,,,,,,,,,,,,,,,,,,,,,,,,64.6193480840011,64.64102387499952,64.64102387499952,64.64102387499952,64.64102387499952,64.63490470866624,64.64102387499952,64.64102387499952,66.54419525000048,Correct! صحیح است,1,1,2,1.8946624169984716,None,66.549334542,66.56157783399976,68.57321554200098,68.54764862500087,,,,,,,,,,,,,,,,,,,,,,,,,,,,,106290,001,2024-07-01_21h09.58.231,5-24,2024.1.4,None,2024-07-01 21h10.03.014992 +0900,
Images/Speaker1.jpg,Images/Speaker2.jpg,Images/Speaker3.jpg,Images/Speaker4.jpg,Audio/Speaker4_En/P4-1-En.wav,Speaker4,گوینده۴,,,,,,,,,,,,,,,,0,0,0,73,0,6,6,60,,,,,68.57321554200098,,,,,,,,,,,,,,,,,,,,,,,,,,,,,,,,,,,,,,,,,,,,,68.54872283399891,68.57321554200098,68.57321554200098,68.57321554200098,68.57321554200098,68.57991320833437,68.57321554200098,68.57321554200098,70.34513537499879,Correct! صحیح است,1,1,4,1.762156832999608,None,70.349036874999,70.35993658400184,72.36564429200007,72.343118959001,,,,,,,,,,,,,,,,,,,,,,,,,,,,,106290,001,2024-07-01_21h09.58.231,5-24,2024.1.4,None,2024-07-01 21h10.03.014992 +0900,
Images/Speaker1.jpg,Images/Speaker2.jpg,Images/Speaker3.jpg,Images/Speaker4.jpg,Audio/Speaker1_En/P1-1-En.wav,Speaker1,گوینده ۱,,,,,,,,,,,,,,,,0,0,0,73,0,7,7,0,,,,,72.36564429200007,,,,,,,,,,,,,,,,,,,,,,,,,,,,,,,,,,,,,,,,,,,,,72.34330833399872,72.36564429200007,72.36564429200007,72.36564429200007,72.36564429200007,72.35955708366625,72.36564429200007,72.36564429200007,74.02561208399857,Correct! صحیح است,1,1,1,1.657937583997409,None,74.02994212500198,74.04269308400035,,76.0358646249988,,,,,,,,,,,,,,,,,,,,,,,,,,,,,106290,001,2024-07-01_21h09.58.231,5-24,2024.1.4,None,2024-07-01 21h10.03.014992 +0900,
Images/Speaker1.jpg,Images/Speaker2.jpg,Images/Speaker3.jpg,Images/Speaker4.jpg,Audio/Speaker1_En/P1-4-En.wav,Speaker1,گوینده ۱,,,,,,,,,,,,,,,,0,0,0,73,0,8,8,3,,,,,76.05771562500013,,,,,,,,,,,,,,,,,,,,,,,,,,,,,,,,,,,,,,,,,,,,,76.0360365000015,76.05771562500013,76.05771562500013,76.05771562500013,76.05771562500013,76.05249287566791,76.05771562500013,76.05771562500013,77.22586933400089,Correct! صحیح است,1,1,1,1.1626753750024363,None,77.22976466700129,77.24076575000072,,79.23017687500032,,,,,,,,,,,,,,,,,,,,,,,,,,,,,106290,001,2024-07-01_21h09.58.231,5-24,2024.1.4,None,2024-07-01 21h10.03.014992 +0900,
Images/Speaker1.jpg,Images/Speaker2.jpg,Images/Speaker3.jpg,Images/Speaker4.jpg,Audio/Speaker4_En/P4-11-En.wav,Speaker4,گوینده۴,,,,,,,,,,,,,,,,0,0,0,73,0,9,9,70,,,,,79.25220866699965,,,,,,,,,,,,,,,,,,,,,,,,,,,,,,,,,,,,,,,,,,,,,79.23035700000037,79.25220866699965,79.25220866699965,79.25220866699965,79.25220866699965,79.24679616666641,79.25220866699965,79.25220866699965,81.41103545900114,Correct! صحیح است,1,1,4,2.1533042500013835,None,81.41592895899885,81.42937987500045,83.43512308400022,83.41303745899859,,,,,,,,,,,,,,,,,,,,,,,,,,,,,106290,001,2024-07-01_21h09.58.231,5-24,2024.1.4,None,2024-07-01 21h10.03.014992 +0900,
Images/Speaker1.jpg,Images/Speaker2.jpg,Images/Speaker3.jpg,Images/Speaker4.jpg,Audio/Speaker2_En/P2-4-En.wav,Speaker2,گوینده۲,,,,,,,,,,,,,,,,0,0,0,73,0,10,10,23,,,,,83.43512308400022,,,,,,,,,,,,,,,,,,,,,,,,,,,,,,,,,,,,,,,,,,,,,83.41323700000066,83.43512308400022,83.43512308400022,83.43512308400022,83.43512308400022,83.4294989586672,83.43512308400022,83.43512308400022,85.77856729199993,Correct! صحیح است,1,1,2,2.339044874999672,None,85.78249275000053,85.79387337500157,,87.78857216699907,,,,,,,,,,,,,,,,,,,,,,,,,,,,,106290,001,2024-07-01_21h09.58.231,5-24,2024.1.4,None,2024-07-01 21h10.03.014992 +0900,
Images/Speaker1.jpg,Images/Speaker2.jpg,Images/Speaker3.jpg,Images/Speaker4.jpg,Audio/Speaker4_En/P4-15-En.wav,Speaker4,گوینده۴,,,,,,,,,,,,,,,,0,0,0,73,0,11,11,74,,,,,87.8139517089985,,,,,,,,,,,,,,,,,,,,,,,,,,,,,,,,,,,,,,,,,,,,,87.78932045900001,87.8139517089985,87.8139517089985,87.8139517089985,87.8139517089985,87.82176804233362,87.8139517089985,87.8139517089985,90.56131987499975,Correct! صحیح است,1,1,4,2.746237999999721,None,90.56535708400042,90.57672512499994,92.58216712500143,92.56073629200182,,,,,,,,,,,,,,,,,,,,,,,,,,,,,106290,001,2024-07-01_21h09.58.231,5-24,2024.1.4,None,2024-07-01 21h10.03.014992 +0900,
Images/Speaker1.jpg,Images/Speaker2.jpg,Images/Speaker3.jpg,Images/Speaker4.jpg,Audio/Speaker4_En/P4-19-En.wav,Speaker4,گوینده۴,,,,,,,,,,,,,,,,0,0,0,73,0,12,12,78,,,,,92.58216712500143,,,,,,,,,,,,,,,,,,,,,,,,,,,,,,,,,,,,,,,,,,,,,92.56092016700131,92.58216712500143,92.58216712500143,92.58216712500143,92.58216712500143,92.57713625066778,92.58216712500143,92.58216712500143,95.73456237500068,Correct! صحیح است,1,1,4,3.141684666999936,None,95.73885191700174,95.75041404199874,,97.7430892500015,,,,,,,,,,,,,,,,,,,,,,,,,,,,,106290,001,2024-07-01_21h09.58.231,5-24,2024.1.4,None,2024-07-01 21h10.03.014992 +0900,
Images/Speaker1.jpg,Images/Speaker2.jpg,Images/Speaker3.jpg,Images/Speaker4.jpg,Audio/Speaker1_En/P1-16-En.wav,Speaker1,گوینده ۱,,,,,,,,,,,,,,,,0,0,0,73,0,13,13,15,,,,,97.76470291700025,,,,,,,,,,,,,,,,,,,,,,,,,,,,,,,,,,,,,,,,,,,,,97.74328070900083,97.76470291700025,97.76470291700025,97.76470291700025,97.76470291700025,97.75971562566725,97.76470291700025,97.76470291700025,99.34854891700161,Correct! صحیح است,1,1,1,1.581180208002479,None,99.35256650000156,99.36331900000005,,101.35500233399944,,,,,,,,,,,,,,,,,,,,,,,,,,,,,106290,001,2024-07-01_21h09.58.231,5-24,2024.1.4,None,2024-07-01 21h10.03.014992 +0900,
Images/Speaker1.jpg,Images/Speaker2.jpg,Images/Speaker3.jpg,Images/Speaker4.jpg,Audio/Speaker4_En/P4-16-En.wav,Speaker4,گوینده۴,,,,,,,,,,,,,,,,0,0,0,73,0,14,14,75,,,,,101.37897525000153,,,,,,,,,,,,,,,,,,,,,,,,,,,,,,,,,,,,,,,,,,,,,101.35520733399972,101.37897525000153,101.37897525000153,101.37897525000153,101.37897525000153,101.38830333333365,101.37897525000153,101.37897525000153,103.03160624999873,Correct! صحیح است,1,1,4,1.6505314589994668,None,103.03541387500081,103.04734104200179,105.05327879200195,105.03160458400089,,,,,,,,,,,,,,,,,,,,,,,,,,,,,106290,001,2024-07-01_21h09.58.231,5-24,2024.1.4,None,2024-07-01 21h10.03.014992 +0900,
Images/Speaker1.jpg,Images/Speaker2.jpg,Images/Speaker3.jpg,Images/Speaker4.jpg,Audio/Speaker3_En/P3-14-En.wav,Speaker3,گوینده۳,,,,,,,,,,,,,,,,0,0,0,73,0,15,15,53,,,,,105.05327879200195,,,,,,,,,,,,,,,,,,,,,,,,,,,,,,,,,,,,,,,,,,,,,105.03180041700034,105.05327879200195,105.05327879200195,105.05327879200195,105.05327879200195,105.04805837566552,105.05327879200195,105.05327879200195,106.76027833400076,Correct! صحیح است,1,1,3,1.6949314170014986,None,106.76449254199906,106.77358041700063,108.78206662500088,108.76001862500198,,,,,,,,,,,,,,,,,,,,,,,,,,,,,106290,001,2024-07-01_21h09.58.231,5-24,2024.1.4,None,2024-07-01 21h10.03.014992 +0900,
Images/Speaker1.jpg,Images/Speaker2.jpg,Images/Speaker3.jpg,Images/Speaker4.jpg,Audio/Speaker1_En/P1-11-En.wav,Speaker1,گوینده ۱,,,,,,,,,,,,,,,,0,0,0,73,0,16,16,10,,,,,108.78206662500088,,,,,,,,,,,,,,,,,,,,,,,,,,,,,,,,,,,,,,,,,,,,,108.76021091700022,108.78206662500088,108.78206662500088,108.78206662500088,108.78206662500088,108.77641745866664,108.78206662500088,108.78206662500088,110.21605179200196,Correct! صحیح است,1,1,1,1.4314775420025398,None,110.2201622499997,110.23177049999867,,112.22861449999982,,,,,,,,,,,,,,,,,,,,,,,,,,,,,106290,001,2024-07-01_21h09.58.231,5-24,2024.1.4,None,2024-07-01 21h10.03.014992 +0900,
Images/Speaker1.jpg,Images/Speaker2.jpg,Images/Speaker3.jpg,Images/Speaker4.jpg,Audio/Speaker3_En/P3-19-En.wav,Speaker3,گوینده۳,,,,,,,,,,,,,,,,0,0,0,73,0,17,17,58,,,,,112.25299037500008,,,,,,,,,,,,,,,,,,,,,,,,,,,,,,,,,,,,,,,,,,,,,112.22920937500021,112.25299037500008,112.25299037500008,112.25299037500008,112.25299037500008,112.26173758333292,112.25299037500008,112.25299037500008,113.63843366700166,Correct! صحیح است,1,1,3,1.376719583000522,None,113.64232170900141,113.65125258400076,,115.64557470900036,,,,,,,,,,,,,,,,,,,,,,,,,,,,,106290,001,2024-07-01_21h09.58.231,5-24,2024.1.4,None,2024-07-01 21h10.03.014992 +0900,
Images/Speaker1.jpg,Images/Speaker2.jpg,Images/Speaker3.jpg,Images/Speaker4.jpg,Audio/Speaker1_En/P1-4-En.wav,Speaker1,گوینده ۱,,,,,,,,,,,,,,,,0,0,0,73,0,18,18,13,,,,,115.66723258400089,,,,,,,,,,,,,,,,,,,,,,,,,,,,,,,,,,,,,,,,,,,,,115.64574474999972,115.66723258400089,115.66723258400089,115.66723258400089,115.66723258400089,115.6621896666659,115.66723258400089,115.66723258400089,116.99236037499941,Correct! صحیح است,1,1,1,1.3210772910024389,None,116.9966721669989,117.00798750000104,,118.99991412500094,,,,,,,,,,,,,,,,,,,,,,,,,,,,,106290,001,2024-07-01_21h09.58.231,5-24,2024.1.4,None,2024-07-01 21h10.03.014992 +0900,
Images/Speaker1.jpg,Images/Speaker2.jpg,Images/Speaker3.jpg,Images/Speaker4.jpg,Audio/Speaker3_En/P3-8-En.wav,Speaker3,گوینده۳,,,,,,,,,,,,,,,,0,0,0,73,0,19,19,47,,,,,119.02138804200149,,,,,,,,,,,,,,,,,,,,,,,,,,,,,,,,,,,,,,,,,,,,,119.0000990840017,119.02138804200149,119.02138804200149,119.02138804200149,119.02138804200149,119.01654375066597,119.02138804200149,119.02138804200149,121.28167612499965,Correct! صحیح است,1,1,3,2.2518157090016757,None,121.28580650000004,121.29481141699944,123.30259520899926,123.28143858399926,,,,,,,,,,,,,,,,,,,,,,,,,,,,,106290,001,2024-07-01_21h09.58.231,5-24,2024.1.4,None,2024-07-01 21h10.03.014992 +0900,
Images/Speaker1.jpg,Images/Speaker2.jpg,Images/Speaker3.jpg,Images/Speaker4.jpg,Audio/Speaker4_En/P4-9-En.wav,Speaker4,گوینده۴,,,,,,,,,,,,,,,,0,0,0,73,0,20,20,68,,,,,123.30259520899926,,,,,,,,,,,,,,,,,,,,,,,,,,,,,,,,,,,,,,,,,,,,,123.28164295900206,123.30259520899926,123.30259520899926,123.30259520899926,123.30259520899926,123.29782404166714,123.30259520899926,123.30259520899926,125.05648129200199,Correct! صحیح است,1,1,4,1.7487212089981767,None,125.06053112500013,125.07185424999989,127.08136841699888,127.0553476669993,,,,,,,,,,,,,,,,,,,,,,,,,,,,,106290,001,2024-07-01_21h09.58.231,5-24,2024.1.4,None,2024-07-01 21h10.03.014992 +0900,
Images/Speaker1.jpg,Images/Speaker2.jpg,Images/Speaker3.jpg,Images/Speaker4.jpg,Audio/Speaker4_En/P4-12-En.wav,Speaker4,گوینده۴,,,,,,,,,,,,,,,,0,0,0,73,0,21,21,71,,,,,127.08136841699888,,,,,,,,,,,,,,,,,,,,,,,,,,,,,,,,,,,,,,,,,,,,,127.0563030839985,127.08136841699888,127.08136841699888,127.08136841699888,127.08136841699888,127.08782587533327,127.08136841699888,127.08136841699888,128.4016564170015,Correct! صحیح است,1,1,4,1.3174164170013682,None,128.4055712090012,128.417147209002,130.424019459002,130.40258870899925,,,,,,,,,,,,,,,,,,,,,,,,,,,,,106290,001,2024-07-01_21h09.58.231,5-24,2024.1.4,None,2024-07-01 21h10.03.014992 +0900,
Images/Speaker1.jpg,Images/Speaker2.jpg,Images/Speaker3.jpg,Images/Speaker4.jpg,Audio/Speaker4_En/P4-13-En.wav,Speaker4,گوینده۴,,,,,,,,,,,,,,,,0,0,0,73,0,22,22,72,,,,,130.424019459002,,,,,,,,,,,,,,,,,,,,,,,,,,,,,,,,,,,,,,,,,,,,,130.40278712500003,130.424019459002,130.424019459002,130.424019459002,130.424019459002,130.41902983366552,130.424019459002,130.424019459002,131.84586175000004,Correct! صحیح است,1,1,4,1.4165157919997,None,131.84958658400137,131.86092845900203,133.86851350000143,133.84588629200152,,,,,,,,,,,,,,,,,,,,,,,,,,,,,106290,001,2024-07-01_21h09.58.231,5-24,2024.1.4,None,2024-07-01 21h10.03.014992 +0900,
Images/Speaker1.jpg,Images/Speaker2.jpg,Images/Speaker3.jpg,Images/Speaker4.jpg,Audio/Speaker2_En/P2-17-En.wav,Speaker2,گوینده۲,,,,,,,,,,,,,,,,0,0,0,73,0,23,23,36,,,,,133.86851350000143,,,,,,,,,,,,,,,,,,,,,,,,,,,,,,,,,,,,,,,,,,,,,133.84662166699854,133.86851350000143,133.86851350000143,133.86851350000143,133.86851350000143,133.8784390423321,133.86851350000143,133.86851350000143,135.07088879200091,Correct! صحیح است,1,1,2,1.1907385420017818,None,135.07496750000064,135.08656566699938,137.0961027500016,137.07073641700117,,,,,,,,,,,,,,,,,,,,,,,,,,,,,106290,001,2024-07-01_21h09.58.231,5-24,2024.1.4,None,2024-07-01 21h10.03.014992 +0900,
Images/Speaker1.jpg,Images/Speaker2.jpg,Images/Speaker3.jpg,Images/Speaker4.jpg,Audio/Speaker3_En/P3-13-En.wav,Speaker3,گوینده۳,,,,,,,,,,,,,,,,0,0,0,73,0,24,24,52,,,,,137.0961027500016,,,,,,,,,,,,,,,,,,,,,,,,,,,,,,,,,,,,,,,,,,,,,137.07145687500088,137.0961027500016,137.0961027500016,137.0961027500016,137.0961027500016,137.10327141733484,137.0961027500016,137.0961027500016,139.59865300000092,Correct! صحیح است,1,1,3,2.498082082998735,None,139.60246295899924,139.61442104199887,,141.60917687500114,,,,,,,,,,,,,,,,,,,,,,,,,,,,,106290,001,2024-07-01_21h09.58.231,5-24,2024.1.4,None,2024-07-01 21h10.03.014992 +0900,
Images/Speaker1.jpg,Images/Speaker2.jpg,Images/Speaker3.jpg,Images/Speaker4.jpg,Audio/Speaker1_En/P1-5-En.wav,Speaker1,گوینده ۱,,,,,,,,,,,,,,,,0,0,0,73,0,25,25,4,,,,,141.6307972499999,,,,,,,,,,,,,,,,,,,,,,,,,,,,,,,,,,,,,,,,,,,,,141.60935783400055,141.6307972499999,141.6307972499999,141.6307972499999,141.6307972499999,141.62580791666576,141.6307972499999,141.6307972499999,143.01108266699885,Correct! صحیح است,1,1,1,1.377841666999302,None,143.0159334170021,143.02789329200095,145.03530579200014,145.0120354999999,,,,,,,,,,,,,,,,,,,,,,,,,,,,,106290,001,2024-07-01_21h09.58.231,5-24,2024.1.4,None,2024-07-01 21h10.03.014992 +0900,
Images/Speaker1.jpg,Images/Speaker2.jpg,Images/Speaker3.jpg,Images/Speaker4.jpg,Audio/Speaker1_En/P1-2-En.wav,Speaker1,گوینده ۱,,,,,,,,,,,,,,,,0,0,0,73,0,26,26,1,,,,,145.03530579200014,,,,,,,,,,,,,,,,,,,,,,,,,,,,,,,,,,,,,,,,,,,,,145.01264408399948,145.03530579200014,145.03530579200014,145.03530579200014,145.03530579200014,145.0444638333325,145.03530579200014,145.03530579200014,146.13540612499855,Correct! صحیح است,1,1,1,1.0898513330030255,None,146.1393750419993,146.1507456670006,148.16056979199857,148.13840787500158,,,,,,,,,,,,,,,,,,,,,,,,,,,,,106290,001,2024-07-01_21h09.58.231,5-24,2024.1.4,None,2024-07-01 21h10.03.014992 +0900,
Images/Speaker1.jpg,Images/Speaker2.jpg,Images/Speaker3.jpg,Images/Speaker4.jpg,Audio/Speaker3_En/P3-5-En.wav,Speaker3,گوینده۳,,,,,,,,,,,,,,,,0,0,0,73,0,27,27,44,,,,,148.16056979199857,,,,,,,,,,,,,,,,,,,,,,,,,,,,,,,,,,,,,,,,,,,,,148.13858245899974,148.16056979199857,148.16056979199857,148.16056979199857,148.16056979199857,148.15485716666834,148.16056979199857,148.16056979199857,150.7686649999996,Correct! صحیح است,1,1,3,2.5988849580026,None,150.77282595900033,150.78423095900143,152.78879095899902,152.76764241699857,,,,,,,,,,,,,,,,,,,,,,,,,,,,,106290,001,2024-07-01_21h09.58.231,5-24,2024.1.4,None,2024-07-01 21h10.03.014992 +0900,
Images/Speaker1.jpg,Images/Speaker2.jpg,Images/Speaker3.jpg,Images/Speaker4.jpg,Audio/Speaker1_En/P1-13-En.wav,Speaker1,گوینده ۱,,,,,,,,,,,,,,,,0,0,0,73,0,28,28,12,,,,,152.78879095899902,,,,,,,,,,,,,,,,,,,,,,,,,,,,,,,,,,,,,,,,,,,,,152.76780070899986,152.78879095899902,152.78879095899902,152.78879095899902,152.78879095899902,152.7840481256683,152.78879095899902,152.78879095899902,154.71991883400187,Correct! صحیح است,1,1,1,1.9251527080014057,None,154.7249054999993,154.73708091699882,156.74984812500043,156.72483583400026,,,,,,,,,,,,,,,,,,,,,,,,,,,,,106290,001,2024-07-01_21h09.58.231,5-24,2024.1.4,None,2024-07-01 21h10.03.014992 +0900,
Images/Speaker1.jpg,Images/Speaker2.jpg,Images/Speaker3.jpg,Images/Speaker4.jpg,Audio/Speaker3_En/P3-1-En.wav,Speaker3,گوینده۳,,,,,,,,,,,,,,,,0,0,0,73,0,29,29,40,,,,,156.74984812500043,,,,,,,,,,,,,,,,,,,,,,,,,,,,,,,,,,,,,,,,,,,,,156.72570774999986,156.74984812500043,156.74984812500043,156.74984812500043,156.74984812500043,156.75726287533377,156.74984812500043,156.74984812500043,158.3480293749999,Correct! صحیح است,1,1,3,1.5948625000019092,None,158.35197679200064,158.36432166699888,160.36846666700148,160.34725524999885,,,,,,,,,,,,,,,,,,,,,,,,,,,,,106290,001,2024-07-01_21h09.58.231,5-24,2024.1.4,None,2024-07-01 21h10.03.014992 +0900,
Images/Speaker1.jpg,Images/Speaker2.jpg,Images/Speaker3.jpg,Images/Speaker4.jpg,Audio/Speaker2_En/P2-7-En.wav,Speaker2,گوینده۲,,,,,,,,,,,,,,,,0,0,0,73,0,30,30,26,,,,,160.36846666700148,,,,,,,,,,,,,,,,,,,,,,,,,,,,,,,,,,,,,,,,,,,,,160.3474414170014,160.36846666700148,160.36846666700148,160.36846666700148,160.36846666700148,160.3636848756653,160.36846666700148,160.36846666700148,161.52503679200163,Correct! صحیح است,1,1,2,1.146960540998407,None,161.5291103749987,161.53832154200063,163.55037229200025,163.52849612499995,,,,,,,,,,,,,,,,,,,,,,,,,,,,,106290,001,2024-07-01_21h09.58.231,5-24,2024.1.4,None,2024-07-01 21h10.03.014992 +0900,
Images/Speaker1.jpg,Images/Speaker2.jpg,Images/Speaker3.jpg,Images/Speaker4.jpg,Audio/Speaker4_En/P4-20-En.wav,Speaker4,گوینده۴,,,,,,,,,,,,,,,,0,0,0,73,0,31,31,79,,,,,163.55037229200025,,,,,,,,,,,,,,,,,,,,,,,,,,,,,,,,,,,,,,,,,,,,,163.52872387499883,163.55037229200025,163.55037229200025,163.55037229200025,163.55037229200025,163.54490787566854,163.55037229200025,163.55037229200025,166.01970900000015,Correct! صحیح است,1,1,4,2.4631687919973047,None,166.01993929200034,166.0311294589992,168.0436440420017,168.0186241670017,,,,,,,,,,,,,,,,,,,,,,,,,,,,,106290,001,2024-07-01_21h09.58.231,5-24,2024.1.4,None,2024-07-01 21h10.03.014992 +0900,
Images/Speaker1.jpg,Images/Speaker2.jpg,Images/Speaker3.jpg,Images/Speaker4.jpg,Audio/Speaker4_En/P4-17-En.wav,Speaker4,گوینده۴,,,,,,,,,,,,,,,,0,0,0,73,0,32,32,76,,,,,168.0436440420017,,,,,,,,,,,,,,,,,,,,,,,,,,,,,,,,,,,,,,,,,,,,,168.01961504200153,168.0436440420017,168.0436440420017,168.0436440420017,168.0436440420017,168.05100091733453,168.0436440420017,168.0436440420017,169.60684587500145,Correct! صحیح است,1,1,4,1.5589891249983339,None,169.6107093339997,169.62217500000042,,171.61283508400084,,,,,,,,,,,,,,,,,,,,,,,,,,,,,106290,001,2024-07-01_21h09.58.231,5-24,2024.1.4,None,2024-07-01 21h10.03.014992 +0900,
Images/Speaker1.jpg,Images/Speaker2.jpg,Images/Speaker3.jpg,Images/Speaker4.jpg,Audio/Speaker4_En/P4-3-En.wav,Speaker4,گوینده۴,,,,,,,,,,,,,,,,0,0,0,73,0,33,33,62,,,,,171.63771424999868,,,,,,,,,,,,,,,,,,,,,,,,,,,,,,,,,,,,,,,,,,,,,171.61345829199854,171.63771424999868,171.63771424999868,171.63771424999868,171.63771424999868,171.6459997923344,171.63771424999868,171.63771424999868,172.93191358400145,Correct! صحیح است,1,1,4,1.291857791999064,None,172.93605087499964,172.9474688750015,174.95748200000162,174.93579454200153,,,,,,,,,,,,,,,,,,,,,,,,,,,,,106290,001,2024-07-01_21h09.58.231,5-24,2024.1.4,None,2024-07-01 21h10.03.014992 +0900,
Images/Speaker1.jpg,Images/Speaker2.jpg,Images/Speaker3.jpg,Images/Speaker4.jpg,Audio/Speaker3_En/P3-15-En.wav,Speaker3,گوینده۳,,,,,,,,,,,,,,,,0,0,0,73,0,34,34,54,,,,,174.95748200000162,,,,,,,,,,,,,,,,,,,,,,,,,,,,,,,,,,,,,,,,,,,,,174.9359571669993,174.95748200000162,174.95748200000162,174.95748200000162,174.95748200000162,174.95224866666857,174.95748200000162,174.95748200000162,176.72193708399936,Correct! صحیح است,1,1,3,1.7496750830032397,None,176.7270523340012,176.74037250000038,178.74610141700032,178.72471891700116,,,,,,,,,,,,,,,,,,,,,,,,,,,,,106290,001,2024-07-01_21h09.58.231,5-24,2024.1.4,None,2024-07-01 21h10.03.014992 +0900,
Images/Speaker1.jpg,Images/Speaker2.jpg,Images/Speaker3.jpg,Images/Speaker4.jpg,Audio/Speaker1_En/P1-6-En.wav,Speaker1,گوینده ۱,,,,,,,,,,,,,,,,0,0,0,73,0,35,35,5,,,,,178.74610141700032,,,,,,,,,,,,,,,,,,,,,,,,,,,,,,,,,,,,,,,,,,,,,178.72491487500156,178.74610141700032,178.74610141700032,178.74610141700032,178.74610141700032,178.74109962566607,178.74610141700032,178.74610141700032,180.20294458400167,Correct! صحیح است,1,1,1,1.4517397080016963,None,180.2070405000013,180.21830741699887,,182.21068179199938,,,,,,,,,,,,,,,,,,,,,,,,,,,,,106290,001,2024-07-01_21h09.58.231,5-24,2024.1.4,None,2024-07-01 21h10.03.014992 +0900,
Images/Speaker1.jpg,Images/Speaker2.jpg,Images/Speaker3.jpg,Images/Speaker4.jpg,Audio/Speaker2_En/P2-10-En.wav,Speaker2,گوینده۲,,,,,,,,,,,,,,,,0,0,0,73,0,36,36,29,,,,,182.23333116700087,,,,,,,,,,,,,,,,,,,,,,,,,,,,,,,,,,,,,,,,,,,,,182.21134004200212,182.23333116700087,182.23333116700087,182.23333116700087,182.23333116700087,182.22720029166547,182.23333116700087,182.23333116700087,183.64149050000196,Correct! صحیح است,1,1,2,1.4008772919987678,None,183.64555745899997,183.6543662920012,185.67147612500048,185.6458299170008,,,,,,,,,,,,,,,,,,,,,,,,,,,,,106290,001,2024-07-01_21h09.58.231,5-24,2024.1.4,None,2024-07-01 21h10.03.014992 +0900,
Images/Speaker1.jpg,Images/Speaker2.jpg,Images/Speaker3.jpg,Images/Speaker4.jpg,Audio/Speaker4_En/P4-7-En.wav,Speaker4,گوینده۴,,,,,,,,,,,,,,,,0,0,0,73,0,37,37,66,,,,,185.67147612500048,,,,,,,,,,,,,,,,,,,,,,,,,,,,,,,,,,,,,,,,,,,,,185.6467190000003,185.67147612500048,185.67147612500048,185.67147612500048,185.67147612500048,185.67814687533297,185.67147612500048,185.67147612500048,187.29462200000125,Correct! صحیح است,1,1,4,1.6151370420011517,None,187.2988947920021,187.3079236670019,189.31964275000064,189.29483079200145,,,,,,,,,,,,,,,,,,,,,,,,,,,,,106290,001,2024-07-01_21h09.58.231,5-24,2024.1.4,None,2024-07-01 21h10.03.014992 +0900,
Images/Speaker1.jpg,Images/Speaker2.jpg,Images/Speaker3.jpg,Images/Speaker4.jpg,Audio/Speaker3_En/P3-16-En.wav,Speaker3,گوینده۳,,,,,,,,,,,,,,,,0,0,0,73,0,38,38,55,,,,,189.31964275000064,,,,,,,,,,,,,,,,,,,,,,,,,,,,,,,,,,,,,,,,,,,,,189.29540862499925,189.31964275000064,189.31964275000064,189.31964275000064,189.31964275000064,189.32724195833413,189.31964275000064,189.31964275000064,191.06147470900032,Correct! صحیح است,1,1,3,1.732241707999492,None,191.06519766700148,191.077969209,193.08433562500068,193.063190208999,,,,,,,,,,,,,,,,,,,,,,,,,,,,,106290,001,2024-07-01_21h09.58.231,5-24,2024.1.4,None,2024-07-01 21h10.03.014992 +0900,
Images/Speaker1.jpg,Images/Speaker2.jpg,Images/Speaker3.jpg,Images/Speaker4.jpg,Audio/Speaker4_En/P4-10-En.wav,Speaker4,گوینده۴,,,,,,,,,,,,,,,,0,0,0,73,0,39,39,69,,,,,193.08433562500068,,,,,,,,,,,,,,,,,,,,,,,,,,,,,,,,,,,,,,,,,,,,,193.06338383399998,193.08433562500068,193.08433562500068,193.08433562500068,193.08433562500068,193.0796069586652,193.08433562500068,193.08433562500068,194.66539429200202,Correct! صحیح است,1,1,4,1.5697715839996818,None,194.6696214170006,194.68172633400172,196.68879737500174,196.66774295900177,,,,,,,,,,,,,,,,,,,,,,,,,,,,,106290,001,2024-07-01_21h09.58.231,5-24,2024.1.4,None,2024-07-01 21h10.03.014992 +0900,
Images/Speaker1.jpg,Images/Speaker2.jpg,Images/Speaker3.jpg,Images/Speaker4.jpg,Audio/Speaker1_En/P1-12-En.wav,Speaker1,گوینده ۱,,,,,,,,,,,,,,,,0,0,0,73,0,40,40,11,,,,,196.68879737500174,,,,,,,,,,,,,,,,,,,,,,,,,,,,,,,,,,,,,,,,,,,,,196.667913917001,196.68879737500174,196.68879737500174,196.68879737500174,196.68879737500174,196.68420883366733,196.68879737500174,196.68879737500174,198.03679187500165,Correct! صحیح است,1,1,1,1.3470478749986796,None,198.0405467499986,198.05303783400086,200.06099666700175,200.0380263340012,,,,,,,,,,,,,,,,,,,,,,,,,,,,,106290,001,2024-07-01_21h09.58.231,5-24,2024.1.4,None,2024-07-01 21h10.03.014992 +0900,
Images/Speaker1.jpg,Images/Speaker2.jpg,Images/Speaker3.jpg,Images/Speaker4.jpg,Audio/Speaker4_En/P4-4-En.wav,Speaker4,گوینده۴,,,,,,,,,,,,,,,,0,0,0,73,0,41,41,63,,,,,200.06099666700175,,,,,,,,,,,,,,,,,,,,,,,,,,,,,,,,,,,,,,,,,,,,,200.03820600000108,200.06099666700175,200.06099666700175,200.06099666700175,200.06099666700175,200.05450670866801,200.06099666700175,200.06099666700175,204.00978833399859,Correct! صحیح است,1,1,4,3.939606416002789,None,204.01492916699863,204.02719516700017,206.03476254199995,206.01052799999889,,,,,,,,,,,,,,,,,,,,,,,,,,,,,106290,001,2024-07-01_21h09.58.231,5-24,2024.1.4,None,2024-07-01 21h10.03.014992 +0900,
Images/Speaker1.jpg,Images/Speaker2.jpg,Images/Speaker3.jpg,Images/Speaker4.jpg,Audio/Speaker3_En/P3-11-En.wav,Speaker3,گوینده۳,,,,,,,,,,,,,,,,0,0,0,73,0,42,42,50,,,,,206.03476254199995,,,,,,,,,,,,,,,,,,,,,,,,,,,,,,,,,,,,,,,,,,,,,206.01076000000103,206.03476254199995,206.03476254199995,206.03476254199995,206.03476254199995,206.04365270833347,206.03476254199995,206.03476254199995,207.46189874999982,Correct! صحیح است,1,1,3,1.4198020000003453,None,207.46621133400185,207.47721900000033,209.48796304200005,209.46347233399865,,,,,,,,,,,,,,,,,,,,,,,,,,,,,106290,001,2024-07-01_21h09.58.231,5-24,2024.1.4,None,2024-07-01 21h10.03.014992 +0900,
Images/Speaker1.jpg,Images/Speaker2.jpg,Images/Speaker3.jpg,Images/Speaker4.jpg,Audio/Speaker3_En/P3-10-En.wav,Speaker3,گوینده۳,,,,,,,,,,,,,,,,0,0,0,73,0,43,43,49,,,,,209.48796304200005,,,,,,,,,,,,,,,,,,,,,,,,,,,,,,,,,,,,,,,,,,,,,209.46433779200015,209.48796304200005,209.48796304200005,209.48796304200005,209.48796304200005,209.49595750033455,209.48796304200005,209.48796304200005,210.86112954200144,Correct! صحیح است,1,1,3,1.367176167001162,None,210.86498175000088,210.87645270899884,,212.8695683750011,,,,,,,,,,,,,,,,,,,,,,,,,,,,,106290,001,2024-07-01_21h09.58.231,5-24,2024.1.4,None,2024-07-01 21h10.03.014992 +0900,
Images/Speaker1.jpg,Images/Speaker2.jpg,Images/Speaker3.jpg,Images/Speaker4.jpg,Audio/Speaker3_En/P3-9-En.wav,Speaker3,گوینده۳,,,,,,,,,,,,,,,,0,0,0,73,0,44,44,48,,,,,212.89326150000124,,,,,,,,,,,,,,,,,,,,,,,,,,,,,,,,,,,,,,,,,,,,,212.8701660000006,212.89326150000124,212.89326150000124,212.89326150000124,212.89326150000124,212.90272495833466,212.89326150000124,212.89326150000124,214.43210108399944,Correct! صحیح است,1,1,3,1.5355139999992389,None,214.43621508399883,214.4476519589989,216.4554595840018,216.43361766700036,,,,,,,,,,,,,,,,,,,,,,,,,,,,,106290,001,2024-07-01_21h09.58.231,5-24,2024.1.4,None,2024-07-01 21h10.03.014992 +0900,
Images/Speaker1.jpg,Images/Speaker2.jpg,Images/Speaker3.jpg,Images/Speaker4.jpg,Audio/Speaker3_En/P3-4-En.wav,Speaker3,گوینده۳,,,,,,,,,,,,,,,,0,0,0,73,0,45,45,43,,,,,216.4554595840018,,,,,,,,,,,,,,,,,,,,,,,,,,,,,,,,,,,,,,,,,,,,,216.43377237499953,216.4554595840018,216.4554595840018,216.4554595840018,216.4554595840018,216.4500058756678,216.4554595840018,216.4554595840018,217.90402666700174,Correct! صحیح است,1,1,3,1.4399388330020884,None,217.9081701670002,217.9175485420019,219.92629262500122,219.90497391700046,,,,,,,,,,,,,,,,,,,,,,,,,,,,,106290,001,2024-07-01_21h09.58.231,5-24,2024.1.4,None,2024-07-01 21h10.03.014992 +0900,
Images/Speaker1.jpg,Images/Speaker2.jpg,Images/Speaker3.jpg,Images/Speaker4.jpg,Audio/Speaker4_En/P4-8-En.wav,Speaker4,گوینده۴,,,,,,,,,,,,,,,,0,0,0,73,0,46,46,67,,,,,219.92629262500122,,,,,,,,,,,,,,,,,,,,,,,,,,,,,,,,,,,,,,,,,,,,,219.90515454200067,219.92629262500122,219.92629262500122,219.92629262500122,219.92629262500122,219.9213641256686,219.92629262500122,219.92629262500122,221.3602788749995,Correct! صحیح است,1,1,4,1.4236073749998468,None,221.36415120899983,221.37561566699878,223.38813687500078,223.362137084001,,,,,,,,,,,,,,,,,,,,,,,,,,,,,106290,001,2024-07-01_21h09.58.231,5-24,2024.1.4,None,2024-07-01 21h10.03.014992 +0900,
Images/Speaker1.jpg,Images/Speaker2.jpg,Images/Speaker3.jpg,Images/Speaker4.jpg,Audio/Speaker4_En/P4-2-En.wav,Speaker4,گوینده۴,,,,,,,,,,,,,,,,0,0,0,73,0,47,47,61,,,,,223.38813687500078,,,,,,,,,,,,,,,,,,,,,,,,,,,,,,,,,,,,,,,,,,,,,223.36271733399917,223.38813687500078,223.38813687500078,223.38813687500078,223.38813687500078,223.3946076253347,223.38813687500078,223.38813687500078,224.62007554199954,Correct! صحیح است,1,1,4,1.2250527500000317,None,224.62381475000075,224.63532095900155,226.6449066669993,226.62322804200085,,,,,,,,,,,,,,,,,,,,,,,,,,,,,106290,001,2024-07-01_21h09.58.231,5-24,2024.1.4,None,2024-07-01 21h10.03.014992 +0900,
Images/Speaker1.jpg,Images/Speaker2.jpg,Images/Speaker3.jpg,Images/Speaker4.jpg,Audio/Speaker2_En/P2-19-En.wav,Speaker2,گوینده۲,,,,,,,,,,,,,,,,0,0,0,73,0,48,48,38,,,,,226.6449066669993,,,,,,,,,,,,,,,,,,,,,,,,,,,,,,,,,,,,,,,,,,,,,226.6234074999993,226.6449066669993,226.6449066669993,226.6449066669993,226.6449066669993,226.63959466666736,226.6449066669993,226.6449066669993,227.91647616699993,Correct! صحیح است,1,1,2,1.2627817499997036,None,227.92038300000058,227.9319281249991,229.93602170899976,229.9148212500004,,,,,,,,,,,,,,,,,,,,,,,,,,,,,106290,001,2024-07-01_21h09.58.231,5-24,2024.1.4,None,2024-07-01 21h10.03.014992 +0900,
Images/Speaker1.jpg,Images/Speaker2.jpg,Images/Speaker3.jpg,Images/Speaker4.jpg,Audio/Speaker1_En/P1-3-En.wav,Speaker1,گوینده ۱,,,,,,,,,,,,,,,,0,0,0,73,0,49,49,2,,,,,229.93602170899976,,,,,,,,,,,,,,,,,,,,,,,,,,,,,,,,,,,,,,,,,,,,,229.914989375,229.93602170899976,229.93602170899976,229.93602170899976,229.93602170899976,229.9312379166661,229.93602170899976,229.93602170899976,231.21900316699976,Correct! صحیح است,1,1,1,1.276424916999531,None,231.22287545899962,231.2349424999993,233.23946433400124,233.21764724999957,,,,,,,,,,,,,,,,,,,,,,,,,,,,,106290,001,2024-07-01_21h09.58.231,5-24,2024.1.4,None,2024-07-01 21h10.03.014992 +0900,
Images/Speaker1.jpg,Images/Speaker2.jpg,Images/Speaker3.jpg,Images/Speaker4.jpg,Audio/Speaker3_En/P3-6-En.wav,Speaker3,گوینده۳,,,,,,,,,,,,,,,,0,0,0,73,0,50,50,45,,,,,233.23946433400124,,,,,,,,,,,,,,,,,,,,,,,,,,,,,,,,,,,,,,,,,,,,,233.21786016700207,233.23946433400124,233.23946433400124,233.23946433400124,233.23946433400124,233.23405087566815,233.23946433400124,233.23946433400124,234.89550800000143,Correct! صحیح است,1,1,3,1.6531134590004513,None,234.8997843340003,234.91102895899894,,236.9008488340005,,,,,,,,,,,,,,,,,,,,,,,,,,,,,106290,001,2024-07-01_21h09.58.231,5-24,2024.1.4,None,2024-07-01 21h10.03.014992 +0900,
Images/Speaker1.jpg,Images/Speaker2.jpg,Images/Speaker3.jpg,Images/Speaker4.jpg,Audio/Speaker3_En/P3-7-En.wav,Speaker3,گوینده۳,,,,,,,,,,,,,,,,0,0,0,73,0,51,51,46,,,,,236.92246520900153,,,,,,,,,,,,,,,,,,,,,,,,,,,,,,,,,,,,,,,,,,,,,236.90102220900008,236.92246520900153,236.92246520900153,236.92246520900153,236.92246520900153,236.91746054166677,236.92246520900153,236.92246520900153,238.02375233400016,Correct! صحیح است,1,1,3,1.098450249999587,None,238.02761654200003,238.0390192090017,240.04998045899993,240.02333370899942,,,,,,,,,,,,,,,,,,,,,,,,,,,,,106290,001,2024-07-01_21h09.58.231,5-24,2024.1.4,None,2024-07-01 21h10.03.014992 +0900,
Images/Speaker1.jpg,Images/Speaker2.jpg,Images/Speaker3.jpg,Images/Speaker4.jpg,Audio/Speaker2_En/P2-8-En.wav,Speaker2,گوینده۲,,,,,,,,,,,,,,,,0,0,0,73,0,52,52,27,,,,,240.04998045899993,,,,,,,,,,,,,,,,,,,,,,,,,,,,,,,,,,,,,,,,,,,,,240.02430150000146,240.04998045899993,240.04998045899993,240.04998045899993,240.04998045899993,240.05573337533548,240.04998045899993,240.04998045899993,241.2234414170016,Correct! صحیح است,1,1,2,1.1724651670010644,None,241.22731574999852,241.23843175000002,243.2471480839995,243.2222891249985,,,,,,,,,,,,,,,,,,,,,,,,,,,,,106290,001,2024-07-01_21h09.58.231,5-24,2024.1.4,None,2024-07-01 21h10.03.014992 +0900,
Images/Speaker1.jpg,Images/Speaker2.jpg,Images/Speaker3.jpg,Images/Speaker4.jpg,Audio/Speaker2_En/P2-1-En.wav,Speaker2,گوینده۲,,,,,,,,,,,,,,,,0,0,0,73,0,53,53,20,,,,,243.2471480839995,,,,,,,,,,,,,,,,,,,,,,,,,,,,,,,,,,,,,,,,,,,,,243.22322845899907,243.2471480839995,243.2471480839995,243.2471480839995,243.2471480839995,243.25471175033505,243.2471480839995,243.2471480839995,244.84363550000126,Correct! صحیح است,1,1,2,1.5894855000005919,None,244.84856833400045,244.86142883399953,246.8700582499987,246.84810704200208,,,,,,,,,,,,,,,,,,,,,,,,,,,,,106290,001,2024-07-01_21h09.58.231,5-24,2024.1.4,None,2024-07-01 21h10.03.014992 +0900,
Images/Speaker1.jpg,Images/Speaker2.jpg,Images/Speaker3.jpg,Images/Speaker4.jpg,Audio/Speaker1_En/P1-15-En.wav,Speaker1,گوینده ۱,,,,,,,,,,,,,,,,0,0,0,73,0,54,54,14,,,,,246.8700582499987,,,,,,,,,,,,,,,,,,,,,,,,,,,,,,,,,,,,,,,,,,,,,246.8482771250019,246.8700582499987,246.8700582499987,246.8700582499987,246.8700582499987,246.86446120866847,246.8700582499987,246.8700582499987,248.16077704200143,Correct! صحیح است,1,1,1,1.283992542001215,None,248.16454441699898,248.17663162499957,,250.16861679200156,,,,,,,,,,,,,,,,,,,,,,,,,,,,,106290,001,2024-07-01_21h09.58.231,5-24,2024.1.4,None,2024-07-01 21h10.03.014992 +0900,
Images/Speaker1.jpg,Images/Speaker2.jpg,Images/Speaker3.jpg,Images/Speaker4.jpg,Audio/Speaker1_En/P1-8-En.wav,Speaker1,گوینده ۱,,,,,,,,,,,,,,,,0,0,0,73,0,55,55,7,,,,,250.1930275420018,,,,,,,,,,,,,,,,,,,,,,,,,,,,,,,,,,,,,,,,,,,,,250.16928262500005,250.1930275420018,250.1930275420018,250.1930275420018,250.1930275420018,250.20177666733485,250.1930275420018,250.1930275420018,251.452405,Correct! صحیح است,1,1,1,1.2581897909985855,None,251.45728370900179,251.47004516699963,,253.45959458400102,,,,,,,,,,,,,,,,,,,,,,,,,,,,,106290,001,2024-07-01_21h09.58.231,5-24,2024.1.4,None,2024-07-01 21h10.03.014992 +0900,
Images/Speaker1.jpg,Images/Speaker2.jpg,Images/Speaker3.jpg,Images/Speaker4.jpg,Audio/Speaker1_En/P1-9-En.wav,Speaker1,گوینده ۱,,,,,,,,,,,,,,,,0,0,0,73,0,56,56,8,,,,,253.4821250419991,,,,,,,,,,,,,,,,,,,,,,,,,,,,,,,,,,,,,,,,,,,,,253.4597895420011,253.4821250419991,253.4821250419991,253.4821250419991,253.4821250419991,253.47622704166523,253.4821250419991,253.4821250419991,255.08685804199922,Correct! صحیح است,1,1,1,1.6033347500015225,None,255.0908246250001,255.10211995899954,,257.0957047920019,,,,,,,,,,,,,,,,,,,,,,,,,,,,,106290,001,2024-07-01_21h09.58.231,5-24,2024.1.4,None,2024-07-01 21h10.03.014992 +0900,
Images/Speaker1.jpg,Images/Speaker2.jpg,Images/Speaker3.jpg,Images/Speaker4.jpg,Audio/Speaker2_En/P2-15-En.wav,Speaker2,گوینده۲,,,,,,,,,,,,,,,,0,0,0,73,0,57,57,34,,,,,257.11854049999965,,,,,,,,,,,,,,,,,,,,,,,,,,,,,,,,,,,,,,,,,,,,,257.0958923340004,257.11854049999965,257.11854049999965,257.11854049999965,257.11854049999965,257.1289847923331,257.11854049999965,257.11854049999965,258.2834703340013,Correct! صحیح است,1,1,2,1.1636799590014562,None,258.2884496250008,258.3012696670012,,260.2933019170014,,,,,,,,,,,,,,,,,,,,,,,,,,,,,106290,001,2024-07-01_21h09.58.231,5-24,2024.1.4,None,2024-07-01 21h10.03.014992 +0900,
Images/Speaker1.jpg,Images/Speaker2.jpg,Images/Speaker3.jpg,Images/Speaker4.jpg,Audio/Speaker3_En/P3-18-En.wav,Speaker3,گوینده۳,,,,,,,,,,,,,,,,0,0,0,73,0,58,58,57,,,,,260.31379620900043,,,,,,,,,,,,,,,,,,,,,,,,,,,,,,,,,,,,,,,,,,,,,260.2934801250012,260.31379620900043,260.31379620900043,260.31379620900043,260.31379620900043,260.3099347916652,260.31379620900043,260.31379620900043,261.66053883399945,Correct! صحیح است,1,1,3,1.3347433750022901,None,261.6642977090014,261.67552470900046,263.6854921250015,263.66322245899937,,,,,,,,,,,,,,,,,,,,,,,,,,,,,106290,001,2024-07-01_21h09.58.231,5-24,2024.1.4,None,2024-07-01 21h10.03.014992 +0900,
Images/Speaker1.jpg,Images/Speaker2.jpg,Images/Speaker3.jpg,Images/Speaker4.jpg,Audio/Speaker2_En/P2-20-En.wav,Speaker2,گوینده۲,,,,,,,,,,,,,,,,0,0,0,73,0,59,59,39,,,,,263.6854921250015,,,,,,,,,,,,,,,,,,,,,,,,,,,,,,,,,,,,,,,,,,,,,263.6642246670017,263.6854921250015,263.6854921250015,263.6854921250015,263.6854921250015,263.695591500335,263.6854921250015,263.6854921250015,265.9712735840003,Correct! صحیح است,1,1,2,2.275344249999762,None,265.97559141700185,265.987886875002,,267.9764142919994,,,,,,,,,,,,,,,,,,,,,,,,,,,,,106290,001,2024-07-01_21h09.58.231,5-24,2024.1.4,None,2024-07-01 21h10.03.014992 +0900,
Images/Speaker1.jpg,Images/Speaker2.jpg,Images/Speaker3.jpg,Images/Speaker4.jpg,Audio/Speaker3_En/P3-2-En.wav,Speaker3,گوینده۳,,,,,,,,,,,,,,,,0,0,0,73,0,60,60,41,,,,,267.99884479200045,,,,,,,,,,,,,,,,,,,,,,,,,,,,,,,,,,,,,,,,,,,,,267.97659908399874,267.99884479200045,267.99884479200045,267.99884479200045,267.99884479200045,267.9930380416665,267.99884479200045,267.99884479200045,269.83219620900127,Correct! صحیح است,1,1,3,1.8308974589999707,None,269.8362230419989,269.8476502920021,271.8604290840012,271.8357989169999,,,,,,,,,,,,,,,,,,,,,,,,,,,,,106290,001,2024-07-01_21h09.58.231,5-24,2024.1.4,None,2024-07-01 21h10.03.014992 +0900,
Images/Speaker1.jpg,Images/Speaker2.jpg,Images/Speaker3.jpg,Images/Speaker4.jpg,Audio/Speaker1_En/P1-18-En.wav,Speaker1,گوینده ۱,,,,,,,,,,,,,,,,0,0,0,73,0,61,61,17,,,,,271.8604290840012,,,,,,,,,,,,,,,,,,,,,,,,,,,,,,,,,,,,,,,,,,,,,271.83676962499885,271.8604290840012,271.8604290840012,271.8604290840012,271.8604290840012,271.86832583333353,271.8604290840012,271.8604290840012,273.1649132499988,Correct! صحیح است,1,1,1,1.3011846250010421,None,273.1687210000018,273.1801800840003,275.18823300000076,275.16504154200084,,,,,,,,,,,,,,,,,,,,,,,,,,,,,106290,001,2024-07-01_21h09.58.231,5-24,2024.1.4,None,2024-07-01 21h10.03.014992 +0900,
Images/Speaker1.jpg,Images/Speaker2.jpg,Images/Speaker3.jpg,Images/Speaker4.jpg,Audio/Speaker2_En/P2-16-En.wav,Speaker2,گوینده۲,,,,,,,,,,,,,,,,0,0,0,73,0,62,62,35,,,,,275.18823300000076,,,,,,,,,,,,,,,,,,,,,,,,,,,,,,,,,,,,,,,,,,,,,275.1660158340019,275.18823300000076,275.18823300000076,275.18823300000076,275.18823300000076,275.1974044173335,275.18823300000076,275.18823300000076,276.7480962920017,Correct! صحیح است,1,1,2,1.558179374998872,None,276.75210566700116,276.76331879200006,278.7728815420014,278.7520782920001,,,,,,,,,,,,,,,,,,,,,,,,,,,,,106290,001,2024-07-01_21h09.58.231,5-24,2024.1.4,None,2024-07-01 21h10.03.014992 +0900,
Images/Speaker1.jpg,Images/Speaker2.jpg,Images/Speaker3.jpg,Images/Speaker4.jpg,Audio/Speaker2_En/P2-5-En.wav,Speaker2,گوینده۲,,,,,,,,,,,,,,,,0,0,0,73,0,63,63,24,,,,,278.7728815420014,,,,,,,,,,,,,,,,,,,,,,,,,,,,,,,,,,,,,,,,,,,,,278.7522324999991,278.7728815420014,278.7728815420014,278.7728815420014,278.7728815420014,278.76844445866686,278.7728815420014,278.7728815420014,280.4700084590004,Correct! صحیح است,1,1,2,1.6926887910012738,None,280.473763375001,280.4847475839997,282.4950241250008,282.4711680420005,,,,,,,,,,,,,,,,,,,,,,,,,,,,,106290,001,2024-07-01_21h09.58.231,5-24,2024.1.4,None,2024-07-01 21h10.03.014992 +0900,
Images/Speaker1.jpg,Images/Speaker2.jpg,Images/Speaker3.jpg,Images/Speaker4.jpg,Audio/Speaker3_En/P3-17-En.wav,Speaker3,گوینده۳,,,,,,,,,,,,,,,,0,0,0,73,0,64,64,56,,,,,282.4950241250008,,,,,,,,,,,,,,,,,,,,,,,,,,,,,,,,,,,,,,,,,,,,,282.4718637090009,282.4950241250008,282.4950241250008,282.4950241250008,282.4950241250008,282.5035469173349,282.4950241250008,282.4950241250008,284.63869912500013,Correct! صحیح است,1,1,3,2.1314149999998335,None,284.64284054200107,284.655074667,,286.64722783400066,,,,,,,,,,,,,,,,,,,,,,,,,,,,,106290,001,2024-07-01_21h09.58.231,5-24,2024.1.4,None,2024-07-01 21h10.03.014992 +0900,
Images/Speaker1.jpg,Images/Speaker2.jpg,Images/Speaker3.jpg,Images/Speaker4.jpg,Audio/Speaker4_En/P4-14-En.wav,Speaker4,گوینده۴,,,,,,,,,,,,,,,,0,0,0,73,0,65,65,73,,,,,286.66929891700056,,,,,,,,,,,,,,,,,,,,,,,,,,,,,,,,,,,,,,,,,,,,,286.64740191700184,286.66929891700056,286.66929891700056,286.66929891700056,286.66929891700056,286.6638613756661,286.66929891700056,286.66929891700056,288.23305070900096,Correct! صحیح است,1,1,4,1.5607111249992158,None,288.23683504200017,288.248235209001,290.2594201669999,290.2375882919987,,,,,,,,,,,,,,,,,,,,,,,,,,,,,106290,001,2024-07-01_21h09.58.231,5-24,2024.1.4,None,2024-07-01 21h10.03.014992 +0900,
Images/Speaker1.jpg,Images/Speaker2.jpg,Images/Speaker3.jpg,Images/Speaker4.jpg,Audio/Speaker4_En/P4-18-En.wav,Speaker4,گوینده۴,,,,,,,,,,,,,,,,0,0,0,73,0,66,66,77,,,,,290.2594201669999,,,,,,,,,,,,,,,,,,,,,,,,,,,,,,,,,,,,,,,,,,,,,290.23846129199956,290.2594201669999,290.2594201669999,290.2594201669999,290.2594201669999,290.2533387916667,290.2594201669999,290.2594201669999,291.5867890420013,Correct! صحیح است,1,1,4,1.323789250000118,None,291.5908356250002,291.60217820899925,,293.5935485420014,,,,,,,,,,,,,,,,,,,,,,,,,,,,,106290,001,2024-07-01_21h09.58.231,5-24,2024.1.4,None,2024-07-01 21h10.03.014992 +0900,
Images/Speaker1.jpg,Images/Speaker2.jpg,Images/Speaker3.jpg,Images/Speaker4.jpg,Audio/Speaker1_En/P1-10-En.wav,Speaker1,گوینده ۱,,,,,,,,,,,,,,,,0,0,0,73,0,67,67,9,,,,,293.6167803749995,,,,,,,,,,,,,,,,,,,,,,,,,,,,,,,,,,,,,,,,,,,,,293.59414570900117,293.6167803749995,293.6167803749995,293.6167803749995,293.6167803749995,293.62671416733474,293.6167803749995,293.6167803749995,295.26833350000015,Correct! صحیح است,1,1,1,1.6488073750006151,None,295.2722247919992,295.2838451669995,297.2940485420004,297.2724198750002,,,,,,,,,,,,,,,,,,,,,,,,,,,,,106290,001,2024-07-01_21h09.58.231,5-24,2024.1.4,None,2024-07-01 21h10.03.014992 +0900,
Images/Speaker1.jpg,Images/Speaker2.jpg,Images/Speaker3.jpg,Images/Speaker4.jpg,Audio/Speaker3_En/P3-3-En.wav,Speaker3,گوینده۳,,,,,,,,,,,,,,,,0,0,0,73,0,68,68,42,,,,,297.2940485420004,,,,,,,,,,,,,,,,,,,,,,,,,,,,,,,,,,,,,,,,,,,,,297.2726016669985,297.2940485420004,297.2940485420004,297.2940485420004,297.2940485420004,297.2888132506671,297.2940485420004,297.2940485420004,299.4242790419994,Correct! صحیح است,1,1,3,2.118887583998003,None,299.4285763750013,299.4373541249988,301.44539641699885,301.42099895900174,,,,,,,,,,,,,,,,,,,,,,,,,,,,,106290,001,2024-07-01_21h09.58.231,5-24,2024.1.4,None,2024-07-01 21h10.03.014992 +0900,
Images/Speaker1.jpg,Images/Speaker2.jpg,Images/Speaker3.jpg,Images/Speaker4.jpg,Audio/Speaker4_En/P4-6-En.wav,Speaker4,گوینده۴,,,,,,,,,,,,,,,,0,0,0,73,0,69,69,65,,,,,301.44539641699885,,,,,,,,,,,,,,,,,,,,,,,,,,,,,,,,,,,,,,,,,,,,,301.42178404199876,301.44539641699885,301.44539641699885,301.44539641699885,301.44539641699885,301.4534996253319,301.44539641699885,301.44539641699885,303.07783729199946,Correct! صحیح است,1,1,4,1.6228327919998264,None,303.0819886249992,303.0940074169994,305.09947116699914,305.0785504170017,,,,,,,,,,,,,,,,,,,,,,,,,,,,,106290,001,2024-07-01_21h09.58.231,5-24,2024.1.4,None,2024-07-01 21h10.03.014992 +0900,
Images/Speaker1.jpg,Images/Speaker2.jpg,Images/Speaker3.jpg,Images/Speaker4.jpg,Audio/Speaker2_En/P2-3-En.wav,Speaker2,گوینده۲,,,,,,,,,,,,,,,,0,0,0,73,0,70,70,22,,,,,305.09947116699914,,,,,,,,,,,,,,,,,,,,,,,,,,,,,,,,,,,,,,,,,,,,,305.0787587090017,305.09947116699914,305.09947116699914,305.09947116699914,305.09947116699914,305.0949275416681,305.09947116699914,305.09947116699914,306.53226454200194,Correct! صحیح است,1,1,2,1.4252862499997718,None,306.53616966700065,306.5441983749988,308.5501201670013,308.5272581669997,,,,,,,,,,,,,,,,,,,,,,,,,,,,,106290,001,2024-07-01_21h09.58.231,5-24,2024.1.4,None,2024-07-01 21h10.03.014992 +0900,
Images/Speaker1.jpg,Images/Speaker2.jpg,Images/Speaker3.jpg,Images/Speaker4.jpg,Audio/Speaker3_En/P3-20-En.wav,Speaker3,گوینده۳,,,,,,,,,,,,,,,,0,0,0,73,0,71,71,59,,,,,308.5501201670013,,,,,,,,,,,,,,,,,,,,,,,,,,,,,,,,,,,,,,,,,,,,,308.527463041999,308.5501201670013,308.5501201670013,308.5501201670013,308.5501201670013,308.5603674583331,308.5501201670013,308.5501201670013,310.86062287499954,Correct! صحیح است,1,1,3,2.3064509160030866,None,310.86084279200077,310.87226416699923,,312.8629624589994,,,,,,,,,,,,,,,,,,,,,,,,,,,,,106290,001,2024-07-01_21h09.58.231,5-24,2024.1.4,None,2024-07-01 21h10.03.014992 +0900,
Images/Speaker1.jpg,Images/Speaker2.jpg,Images/Speaker3.jpg,Images/Speaker4.jpg,Audio/Speaker2_En/P2-2-En.wav,Speaker2,گوینده۲,,,,,,,,,,,,,,,,0,0,0,73,0,72,72,21,,,,,312.88783004200013,,,,,,,,,,,,,,,,,,,,,,,,,,,,,,,,,,,,,,,,,,,,,312.86361016700175,312.88783004200013,312.88783004200013,312.88783004200013,312.88783004200013,312.89609291733404,312.88783004200013,312.88783004200013,314.98343591700177,Correct! صحیح است,1,1,2,2.0882758749976347,None,314.9876443339999,314.9968684999985,317.0079262920008,316.9855160420011,,,,,,,,,,,,,,,,,,,,,,,,,,,,,106290,001,2024-07-01_21h09.58.231,5-24,2024.1.4,None,2024-07-01 21h10.03.014992 +0900,
Images/Speaker1.jpg,Images/Speaker2.jpg,Images/Speaker3.jpg,Images/Speaker4.jpg,Audio/Speaker1_En/P1-7-En.wav,Speaker1,گوینده ۱,,,,,,,,,,,,,,,,0,0,0,73,0,73,73,6,,,,,317.0079262920008,,,,,,,,,,,,,,,,,,,,,,,,,,,,,,,,,,,,,,,,,,,,,316.98629333400095,317.0079262920008,317.0079262920008,317.0079262920008,317.0079262920008,317.0013550836668,317.0079262920008,317.0079262920008,318.3617547089998,Correct! صحیح است,1,1,1,1.3505258750010398,None,318.3654947920004,318.3768941669987,320.3821008750019,320.3613557919998,,,,,,,,,,,,,,,,,,,,,,,,,,,,,106290,001,2024-07-01_21h09.58.231,5-24,2024.1.4,None,2024-07-01 21h10.03.014992 +0900,
Images/Speaker1.jpg,Images/Speaker2.jpg,Images/Speaker3.jpg,Images/Speaker4.jpg,Audio/Speaker1_En/P1-17-En.wav,Speaker1,گوینده ۱,,,,,,,,,,,,,,,,0,0,0,73,0,74,74,16,,,,,320.3821008750019,,,,,,,,,,,,,,,,,,,,,,,,,,,,,,,,,,,,,,,,,,,,,320.3615636249997,320.3821008750019,320.3821008750019,320.3821008750019,320.3821008750019,320.37779883366625,320.3821008750019,320.3821008750019,321.6733568749987,Correct! صحیح است,1,1,1,1.2893242919999466,None,321.6773489170009,321.6889273750021,323.70125774999906,323.67704370900174,,,,,,,,,,,,,,,,,,,,,,,,,,,,,106290,001,2024-07-01_21h09.58.231,5-24,2024.1.4,None,2024-07-01 21h10.03.014992 +0900,
Images/Speaker1.jpg,Images/Speaker2.jpg,Images/Speaker3.jpg,Images/Speaker4.jpg,Audio/Speaker2_En/P2-14-En.wav,Speaker2,گوینده۲,,,,,,,,,,,,,,,,0,0,0,73,0,75,75,33,,,,,323.70125774999906,,,,,,,,,,,,,,,,,,,,,,,,,,,,,,,,,,,,,,,,,,,,,323.677867041999,323.70125774999906,323.70125774999906,323.70125774999906,323.70125774999906,323.7094967503331,323.70125774999906,323.70125774999906,325.21907612499854,Correct! صحیح است,1,1,2,1.5072337499987043,None,325.2242429170001,325.2364946250018,,327.23030604200176,,,,,,,,,,,,,,,,,,,,,,,,,,,,,106290,001,2024-07-01_21h09.58.231,5-24,2024.1.4,None,2024-07-01 21h10.03.014992 +0900,
Images/Speaker1.jpg,Images/Speaker2.jpg,Images/Speaker3.jpg,Images/Speaker4.jpg,Audio/Speaker2_En/P2-12-En.wav,Speaker2,گوینده۲,,,,,,,,,,,,,,,,0,0,0,73,0,76,76,31,,,,,327.2542513340013,,,,,,,,,,,,,,,,,,,,,,,,,,,,,,,,,,,,,,,,,,,,,327.2309874999992,327.2542513340013,327.2542513340013,327.2542513340013,327.2542513340013,327.2634898333349,327.2542513340013,327.2542513340013,329.9788244170013,Correct! صحیح است,1,1,2,2.716923708001559,None,329.9790289590019,329.9881078340004,332.00037808400157,331.97650950000025,,,,,,,,,,,,,,,,,,,,,,,,,,,,,106290,001,2024-07-01_21h09.58.231,5-24,2024.1.4,None,2024-07-01 21h10.03.014992 +0900,
Images/Speaker1.jpg,Images/Speaker2.jpg,Images/Speaker3.jpg,Images/Speaker4.jpg,Audio/Speaker1_En/P1-19-En.wav,Speaker1,گوینده ۱,,,,,,,,,,,,,,,,0,0,0,73,0,77,77,18,,,,,332.00037808400157,,,,,,,,,,,,,,,,,,,,,,,,,,,,,,,,,,,,,,,,,,,,,331.9769349999988,332.00037808400157,332.00037808400157,332.00037808400157,332.00037808400157,332.0091578333345,332.00037808400157,332.00037808400157,333.9572064169988,Correct! صحیح است,1,1,1,1.9557464169993182,None,333.9612002499998,333.97256208399995,335.9860242499999,335.9614419999998,,,,,,,,,,,,,,,,,,,,,,,,,,,,,106290,001,2024-07-01_21h09.58.231,5-24,2024.1.4,None,2024-07-01 21h10.03.014992 +0900,
Images/Speaker1.jpg,Images/Speaker2.jpg,Images/Speaker3.jpg,Images/Speaker4.jpg,Audio/Speaker2_En/P2-13-En.wav,Speaker2,گوینده۲,,,,,,,,,,,,,,,,0,0,0,73,0,78,78,32,,,,,335.9860242499999,,,,,,,,,,,,,,,,,,,,,,,,,,,,,,,,,,,,,,,,,,,,,335.9619882920015,335.9860242499999,335.9860242499999,335.9860242499999,335.9860242499999,335.99388141733334,335.9860242499999,335.9860242499999,339.012758249999,Correct! صحیح است,1,1,2,3.0187825829998474,None,339.0129928339993,339.0245654169994,341.03321370900085,341.01260750000074,,,,,,,,,,,,,,,,,,,,,,,,,,,,,106290,001,2024-07-01_21h09.58.231,5-24,2024.1.4,None,2024-07-01 21h10.03.014992 +0900,
Images/Speaker1.jpg,Images/Speaker2.jpg,Images/Speaker3.jpg,Images/Speaker4.jpg,Audio/Speaker3_En/P3-12-En.wav,Speaker3,گوینده۳,,,,,,,,,,,,,,,,0,0,0,73,0,79,79,51,,,,,341.03321370900085,,,,,,,,,,,,,,,,,,,,,,,,,,,,,,,,,,,,,,,,,,,,,341.0127974169991,341.03321370900085,341.03321370900085,341.03321370900085,341.03321370900085,341.0289412916684,341.03321370900085,341.03321370900085,343.2190121249987,Correct! صحیح است,1,1,3,2.1831764160015155,None,343.2231238339991,343.23501395900166,345.2259592920018,345.21992899999896,,,,,,,,,,,,,,,,,,,,,,,,,,,,,106290,001,2024-07-01_21h09.58.231,5-24,2024.1.4,None,2024-07-01 21h10.03.014992 +0900,
Images/Speaker1.jpg,Images/Speaker2.jpg,Images/Speaker3.jpg,Images/Speaker4.jpg,Audio/Speaker4_En/P4-14-En.wav,Speaker4,گوینده۴,,,,,,,,,,,,,,,,0,0,0,73,,,,,,,,,,,,,,,,,,,,,,,,,,,,,,,,,,,,,,,,,,,,,,,,,,,,,,,,,,,,,,,,,,,,,,,,,345.2200250419992,1.0,True,345.22021954199954,,,,,,,,,,,,,,,,,,,,,,,,,106290,001,2024-07-01_21h09.58.231,5-24,2024.1.4,None,2024-07-01 21h10.03.014992 +0900,
,,,,,,,,,,,,,,,,,,,,,,,,,,,,,,,,,,,,,,,,,,,,,,,,,,,,,,,,,,,,,,,,,,,,,,,,,,,,,,,,,,,,,,,,,,,,,,,,,,,,,,345.22024958399925,345.2259592920018,350.2590354999993,350.2136474170002,,,,,,,,,,,,,,,,,,,,,106290,001,2024-07-01_21h09.58.231,5-24,2024.1.4,None,2024-07-01 21h10.03.014992 +0900,
,,,,,,,Images/Speaker1.jpg,Images/Speaker2.jpg,Images/Speaker3.jpg,Images/Speaker4.jpg,Audio/Speaker3_Per/P3-7-Per.wav,Speaker3,گوینده۳,,,,,,,,,,,,,,,,,0,0,0,46,350.2590354999993,,,,,,,,,,,,,,,,,,,,,,,,,,,,,,,,,,,,,,,,,,,,,,,,,,,,,,,,,,,,,,,,,,,,,,,,350.23485462499957,350.2590354999993,350.2590354999993,350.2590354999993,350.2590354999993,350.26279091700127,350.2590354999993,350.2590354999993,356.48821566699917,3,6.2270550839966745,None,3,Images/Speaker1.jpg,Images/Speaker2.jpg,Images/Speaker3.jpg,Images/Speaker4.jpg,Audio/Speaker3_Per/P3-7-Per.wav,Speaker3,گوینده۳,106290,001,2024-07-01_21h09.58.231,5-24,2024.1.4,None,2024-07-01 21h10.03.014992 +0900,
,,,,,,,Images/Speaker1.jpg,Images/Speaker2.jpg,Images/Speaker3.jpg,Images/Speaker4.jpg,Audio/Speaker1_Per/P1-18-Per.wav,Speaker1,گوینده ۱,,,,,,,,,,,,,,,,,0,1,1,17,356.5142870419986,,,,,,,,,,,,,,,,,,,,,,,,,,,,,,,,,,,,,,,,,,,,,,,,,,,,,,,,,,,,,,,,,,,,,,,,356.488837334,356.5142870419986,356.5142870419986,356.5142870419986,356.5142870419986,356.52070662533197,356.5142870419986,356.5142870419986,358.6686405420005,1,2.151465167000424,None,1,Images/Speaker1.jpg,Images/Speaker2.jpg,Images/Speaker3.jpg,Images/Speaker4.jpg,Audio/Speaker1_Per/P1-18-Per.wav,Speaker3,گوینده۳,106290,001,2024-07-01_21h09.58.231,5-24,2024.1.4,None,2024-07-01 21h10.03.014992 +0900,
,,,,,,,Images/Speaker1.jpg,Images/Speaker2.jpg,Images/Speaker3.jpg,Images/Speaker4.jpg,Audio/Speaker4_Per/P4-6-Per.wav,Speaker4,گوینده۴,,,,,,,,,,,,,,,,,0,2,2,65,358.69817941699876,,,,,,,,,,,,,,,,,,,,,,,,,,,,,,,,,,,,,,,,,,,,,,,,,,,,,,,,,,,,,,,,,,,,,,,,358.67303212499974,358.69817941699876,358.69817941699876,358.69817941699876,358.69817941699876,358.70117462533426,358.69817941699876,358.69817941699876,361.6033956249994,4,2.8964132080000127,None,4,Images/Speaker1.jpg,Images/Speaker2.jpg,Images/Speaker3.jpg,Images/Speaker4.jpg,Audio/Speaker4_Per/P4-6-Per.wav,Speaker3,گوینده۳,106290,001,2024-07-01_21h09.58.231,5-24,2024.1.4,None,2024-07-01 21h10.03.014992 +0900,
,,,,,,,,,,,,,,,,,,,,,,,,,,,,,,,,,,361.6366442090002,,,,,,,,,,,,,,,,,,,,,,,,,,,,,,,,,,,,,,,,,,,,,,,,,,,,,,,,,,,,,,,,,,,,,,,,361.6087213339997,361.6366442090002,361.6366442090002,361.6366442090002,361.6366442090002,361.63569262533247,361.6366442090002,361.6366442090002,,,,,,,,,,,,,,,,,,,,
