SpeakerImage1,SpeakerImage2,SpeakerImage3,SpeakerImage4,TrainingSound,EnglishCorrectAnswer,PersianCorrectAnswer,TrainingLoopGroup1.thisRepN,TrainingLoopGroup1.thisTrialN,TrainingLoopGroup1.thisN,TrainingLoopGroup1.thisIndex,TrainingLoopGroup2.thisRepN,TrainingLoopGroup2.thisTrialN,TrainingLoopGroup2.thisN,TrainingLoopGroup2.thisIndex,Repeat_TrainingLoopGroup3.thisRepN,Repeat_TrainingLoopGroup3.thisTrialN,Repeat_TrainingLoopGroup3.thisN,Repeat_TrainingLoopGroup3.thisIndex,TrainingLoopGroup3.thisRepN,TrainingLoopGroup3.thisTrialN,TrainingLoopGroup3.thisN,TrainingLoopGroup3.thisIndex,thisRow.t,notes,trial.started,trial.stopped,GroupSelection.started,GroupInstructions.started,key_resp.started,GroupSelection.stopped,key_resp.keys,key_resp.rt,key_resp.duration,Introduction.started,text_2.started,image.started,sound_7.started,text_4.started,text_2.stopped,sound_8.started,image.stopped,text_4.stopped,image_7.started,sound_9.started,text_5.started,sound_10.started,image_7.stopped,text_5.stopped,image_8.started,sound_11.started,text_6.started,sound_12.started,image_8.stopped,text_6.stopped,image_9.started,sound_13.started,text_7.started,sound_14.started,image_9.stopped,text_7.stopped,Introduction.stopped,Instructions.started,InstructionText.started,InstructionText.stopped,Instructions.stopped,InitializeExperiment.started,InitializeExperiment.stopped,TrainingGroup3.started,SpeakerPicture3.started,image_15.started,image_16.started,image_17.started,Sound3.started,Instruction3.started,Response3.started,TrainingGroup3.stopped,feedbackText,Response3.keys,Response3.rt,Response3.duration,correct_responses_group3,total_trials_group3,FeedbackRoutine3.started,FeedbackText3.started,FeedbackRoutine3.stopped,FeedbackText3.stopped,CheckAccuracy3.started,participant,session,date,expName,psychopyVersion,frameRate,expStart,
,,,,,,,,,,,,,,,,,,,,,,,,,0.009273208000195154,0.009596957999747247,,,,,,,,,,,,,,,,,,,,,,,,,,,,,,,,,,,,,,,,,,,,,,,,,,,,,,,,,,,,,,112250,001,2024-07-01_18h02.16.024,5-26,2024.1.4,None,2024-07-01 18h02.20.902244 +0900,
,,,,,,,,,,,,,,,,,,,,,,,,,,,0.00961741700029961,0.015207166999971378,0.015207166999971378,0.8441598749996047,3,0.7897205420003957,None,,,,,,,,,,,,,,,,,,,,,,,,,,,,,,,,,,,,,,,,,,,,,,,,,,,,,,,112250,001,2024-07-01_18h02.16.024,5-26,2024.1.4,None,2024-07-01 18h02.20.902244 +0900,
,,,,,,,,,,,,,,,,,,,,,,,,,,,,,,,,,,0.8441869580001367,0.9008551669994631,5.836767666999549,5.84602099966675,5.836767666999549,5.90406483300012,10.853160249666205,15.832233541999813,15.832233541999813,15.842790208000224,15.84890020866648,15.842790208000224,20.853839041666347,25.839134124999873,25.839134124999873,25.839134124999873,25.850680083666944,25.839134124999873,30.85050995866665,35.8350779579996,35.8350779579996,35.842495750000126,35.85174462466627,35.842495750000126,40.85411279166625,45.83873958299955,45.83873958299955,45.8354467500003,,,,,,,,,,,,,,,,,,,,,,,,,,,112250,001,2024-07-01_18h02.16.024,5-26,2024.1.4,None,2024-07-01 18h02.20.902244 +0900,
,,,,,,,,,,,,,,,,,,,,,,,,,,,,,,,,,,,,,,,,,,,,,,,,,,,,,,,,,,,,,,45.83546712499992,45.83873958299955,46.926599458000055,46.82706945799964,,,,,,,,,,,,,,,,,,,,,,,112250,001,2024-07-01_18h02.16.024,5-26,2024.1.4,None,2024-07-01 18h02.20.902244 +0900,
,,,,,,,,,,,,,,,,,,,,,,,,,,,,,,,,,,,,,,,,,,,,,,,,,,,,,,,,,,,,,,,,,,46.82711041699986,46.82750641700022,,,,,,,,,,,,,,,,,,,,,112250,001,2024-07-01_18h02.16.024,5-26,2024.1.4,None,2024-07-01 18h02.20.902244 +0900,
Images/Speaker1.jpg,Images/Speaker2.jpg,Images/Speaker3.jpg,Images/Speaker4.jpg,Audio/Speaker1_En/P1-5-En.wav,Speaker1,گوینده ۱,,,,,,,,,0,0,0,19,0,0,0,4,46.926599458000055,,,,,,,,,,,,,,,,,,,,,,,,,,,,,,,,,,,,,,,,,,,,,46.89967608299958,46.926599458000055,46.926599458000055,46.926599458000055,46.926599458000055,46.92628187499995,46.926599458000055,46.926599458000055,51.90434300000015,Correct! صحیح است,1,4.974266416999853,None,0,1,51.9048337080003,51.91759504199945,53.91185787499944,,,112250,001,2024-07-01_18h02.16.024,5-26,2024.1.4,None,2024-07-01 18h02.20.902244 +0900,
Images/Speaker1.jpg,Images/Speaker2.jpg,Images/Speaker3.jpg,Images/Speaker4.jpg,Audio/Speaker2_En/P2-11-En.wav,Speaker2,گوینده۲,,,,,,,,,0,0,0,19,0,1,1,30,53.93807300000026,,,,,,,,,,,,,,,,,,,,,,,,,,,,,,,,,,,,,,,,,,,,,53.91253704199971,53.93807300000026,53.93807300000026,53.93807300000026,53.93807300000026,53.944976916333445,53.93807300000026,53.93807300000026,54.169017874999554,Incorrect! The correct answer is Speaker2. نادرست! پاسخ صحیح گوینده۲ است,1,0.22569916700012982,None,0,2,54.173082582999996,54.19202383299944,56.17776712500017,,,112250,001,2024-07-01_18h02.16.024,5-26,2024.1.4,None,2024-07-01 18h02.20.902244 +0900,
Images/Speaker1.jpg,Images/Speaker2.jpg,Images/Speaker3.jpg,Images/Speaker4.jpg,Audio/Speaker3_En/P3-11-En.wav,Speaker3,گوینده۳,,,,,,,,,0,0,0,19,0,2,2,50,56.203137333000086,,,,,,,,,,,,,,,,,,,,,,,,,,,,,,,,,,,,,,,,,,,,,56.17793391699979,56.203137333000086,56.203137333000086,56.203137333000086,56.203137333000086,56.21105925033365,56.203137333000086,56.203137333000086,56.42028762500013,Incorrect! The correct answer is Speaker3. نادرست! پاسخ صحیح گوینده۳ است,1,0.21212895799999387,None,0,3,56.425075999999535,56.43843500000003,58.42217504200016,58.44825654200031,,112250,001,2024-07-01_18h02.16.024,5-26,2024.1.4,None,2024-07-01 18h02.20.902244 +0900,
Images/Speaker1.jpg,Images/Speaker2.jpg,Images/Speaker3.jpg,Images/Speaker4.jpg,Audio/Speaker4_En/P4-6-En.wav,Speaker4,گوینده۴,,,,,,,,,0,0,0,19,0,3,3,65,58.44825654200031,,,,,,,,,,,,,,,,,,,,,,,,,,,,,,,,,,,,,,,,,,,,,58.422347875000014,58.44825654200031,58.44825654200031,58.44825654200031,58.44825654200031,58.43865312466666,58.44825654200031,58.44825654200031,58.448880666999685,Incorrect! The correct answer is Speaker4. نادرست! پاسخ صحیح گوینده۴ است,1,2.22973945800004,None,0,4,58.449198457999955,58.45937870800026,60.45527120800034,,,112250,001,2024-07-01_18h02.16.024,5-26,2024.1.4,None,2024-07-01 18h02.20.902244 +0900,
Images/Speaker1.jpg,Images/Speaker2.jpg,Images/Speaker3.jpg,Images/Speaker4.jpg,Audio/Speaker1_En/P1-2-En.wav,Speaker1,گوینده ۱,,,,,,,,,0,0,0,19,0,4,4,1,60.48072524999952,,,,,,,,,,,,,,,,,,,,,,,,,,,,,,,,,,,,,,,,,,,,,60.45544950000021,60.48072524999952,60.48072524999952,60.48072524999952,60.48072524999952,60.48856350033341,60.48072524999952,60.48072524999952,60.653572833,Correct! صحیح است,1,0.16111933299998782,None,0,5,60.65765837500021,60.66799291699954,62.660274625000056,,,112250,001,2024-07-01_18h02.16.024,5-26,2024.1.4,None,2024-07-01 18h02.20.902244 +0900,
Images/Speaker1.jpg,Images/Speaker2.jpg,Images/Speaker3.jpg,Images/Speaker4.jpg,Audio/Speaker2_En/P2-7-En.wav,Speaker2,گوینده۲,,,,,,,,,0,0,0,19,0,5,5,26,62.683456457999455,,,,,,,,,,,,,,,,,,,,,,,,,,,,,,,,,,,,,,,,,,,,,62.660449125000014,62.683456457999455,62.683456457999455,62.683456457999455,62.683456457999455,62.676901583666464,62.683456457999455,62.683456457999455,62.908782083000006,Incorrect! The correct answer is Speaker2. نادرست! پاسخ صحیح گوینده۲ است,1,0.21336354200047936,None,0,6,62.912699749999774,62.92320620800001,64.91488045799997,,,112250,001,2024-07-01_18h02.16.024,5-26,2024.1.4,None,2024-07-01 18h02.20.902244 +0900,
Images/Speaker1.jpg,Images/Speaker2.jpg,Images/Speaker3.jpg,Images/Speaker4.jpg,Audio/Speaker3_En/P3-17-En.wav,Speaker3,گوینده۳,,,,,,,,,0,0,0,19,0,6,6,56,64.93767649999972,,,,,,,,,,,,,,,,,,,,,,,,,,,,,,,,,,,,,,,,,,,,,64.91505187500024,64.93767649999972,64.93767649999972,64.93767649999972,64.93767649999972,64.93150841666672,64.93767649999972,64.93767649999972,64.93828508299976,Incorrect! The correct answer is Speaker3. نادرست! پاسخ صحیح گوینده۳ است,1,2.1887915000006615,None,0,7,64.94233895799971,64.95233483299944,66.94236850000016,66.96494654199978,,112250,001,2024-07-01_18h02.16.024,5-26,2024.1.4,None,2024-07-01 18h02.20.902244 +0900,
Images/Speaker1.jpg,Images/Speaker2.jpg,Images/Speaker3.jpg,Images/Speaker4.jpg,Audio/Speaker1_En/P1-16-En.wav,Speaker1,گوینده ۱,,,,,,,,,0,0,0,19,0,7,7,15,66.96494654199978,,,,,,,,,,,,,,,,,,,,,,,,,,,,,,,,,,,,,,,,,,,,,66.94253949999984,66.96494654199978,66.96494654199978,66.96494654199978,66.96494654199978,66.9588214996668,66.96494654199978,66.96494654199978,67.16082995800025,Correct! صحیح است,1,0.19038458399973024,None,0,8,67.16457666699989,67.17566699999952,69.16005508299986,69.1890765420003,,112250,001,2024-07-01_18h02.16.024,5-26,2024.1.4,None,2024-07-01 18h02.20.902244 +0900,
Images/Speaker1.jpg,Images/Speaker2.jpg,Images/Speaker3.jpg,Images/Speaker4.jpg,Audio/Speaker3_En/P3-9-En.wav,Speaker3,گوینده۳,,,,,,,,,0,0,0,19,0,8,8,48,69.1890765420003,,,,,,,,,,,,,,,,,,,,,,,,,,,,,,,,,,,,,,,,,,,,,69.1610298329997,69.1890765420003,69.1890765420003,69.1890765420003,69.1890765420003,69.1925520413329,69.1890765420003,69.1890765420003,69.29470433299957,Incorrect! The correct answer is Speaker3. نادرست! پاسخ صحیح گوینده۳ است,1,0.10443095800019364,None,0,9,69.29863762500008,69.31152429200029,71.29754658299953,71.32626424999944,,112250,001,2024-07-01_18h02.16.024,5-26,2024.1.4,None,2024-07-01 18h02.20.902244 +0900,
Images/Speaker1.jpg,Images/Speaker2.jpg,Images/Speaker3.jpg,Images/Speaker4.jpg,Audio/Speaker1_En/P1-13-En.wav,Speaker1,گوینده ۱,,,,,,,,,0,0,0,19,0,9,9,12,71.32626424999944,,,,,,,,,,,,,,,,,,,,,,,,,,,,,,,,,,,,,,,,,,,,,71.2984779999997,71.32626424999944,71.32626424999944,71.32626424999944,71.32626424999944,71.3300088333331,71.32626424999944,71.32626424999944,71.63637699999981,Correct! صحیح است,1,0.30069087500032765,None,0,10,71.64057616700029,71.64945337500012,73.64254274999985,,,112250,001,2024-07-01_18h02.16.024,5-26,2024.1.4,None,2024-07-01 18h02.20.902244 +0900,
Images/Speaker1.jpg,Images/Speaker2.jpg,Images/Speaker3.jpg,Images/Speaker4.jpg,Audio/Speaker1_En/P1-8-En.wav,Speaker1,گوینده ۱,,,,,,,,,0,0,0,19,0,10,10,7,73.66485120800007,,,,,,,,,,,,,,,,,,,,,,,,,,,,,,,,,,,,,,,,,,,,,73.64271566699972,73.66485120800007,73.66485120800007,73.66485120800007,73.66485120800007,73.65917920866674,73.66485120800007,73.66485120800007,73.94897437500003,Correct! صحیح است,1,0.2821354160005285,None,0,11,73.95272508299968,73.96383033300026,75.9489709999998,75.97363283300001,,112250,001,2024-07-01_18h02.16.024,5-26,2024.1.4,None,2024-07-01 18h02.20.902244 +0900,
Images/Speaker1.jpg,Images/Speaker2.jpg,Images/Speaker3.jpg,Images/Speaker4.jpg,Audio/Speaker3_En/P3-13-En.wav,Speaker3,گوینده۳,,,,,,,,,0,0,0,19,0,11,11,52,75.97363283300001,,,,,,,,,,,,,,,,,,,,,,,,,,,,,,,,,,,,,,,,,,,,,75.9495641249996,75.97363283300001,75.97363283300001,75.97363283300001,75.97363283300001,75.9814411253333,75.97363283300001,75.97363283300001,76.14761249999992,Incorrect! The correct answer is Speaker3. نادرست! پاسخ صحیح گوینده۳ است,1,0.16980112500004907,None,0,12,76.15146283299964,76.16406895799992,78.15747954200015,,,112250,001,2024-07-01_18h02.16.024,5-26,2024.1.4,None,2024-07-01 18h02.20.902244 +0900,
Images/Speaker1.jpg,Images/Speaker2.jpg,Images/Speaker3.jpg,Images/Speaker4.jpg,Audio/Speaker4_En/P4-18-En.wav,Speaker4,گوینده۴,,,,,,,,,0,0,0,19,0,12,12,77,78.18064924999999,,,,,,,,,,,,,,,,,,,,,,,,,,,,,,,,,,,,,,,,,,,,,78.15768287500032,78.18064924999999,78.18064924999999,78.18064924999999,78.18064924999999,78.17408816666672,78.18064924999999,78.18064924999999,78.3682313749996,Incorrect! The correct answer is Speaker4. نادرست! پاسخ صحیح گوینده۴ است,1,0.17824600000039936,None,0,13,78.37246620800033,78.38343499999974,80.36880254199968,80.39503845800027,,112250,001,2024-07-01_18h02.16.024,5-26,2024.1.4,None,2024-07-01 18h02.20.902244 +0900,
Images/Speaker1.jpg,Images/Speaker2.jpg,Images/Speaker3.jpg,Images/Speaker4.jpg,Audio/Speaker3_En/P3-14-En.wav,Speaker3,گوینده۳,,,,,,,,,0,0,0,19,0,13,13,53,80.39503845800027,,,,,,,,,,,,,,,,,,,,,,,,,,,,,,,,,,,,,,,,,,,,,80.3697615000001,80.39503845800027,80.39503845800027,80.39503845800027,80.39503845800027,80.4012850413333,80.39503845800027,80.39503845800027,80.47189141699982,Incorrect! The correct answer is Speaker3. نادرست! پاسخ صحیح گوینده۳ است,1,0.0732077089996892,None,0,14,80.47587570799988,80.48902995800017,82.47233466699981,82.49855633300012,,112250,001,2024-07-01_18h02.16.024,5-26,2024.1.4,None,2024-07-01 18h02.20.902244 +0900,
Images/Speaker1.jpg,Images/Speaker2.jpg,Images/Speaker3.jpg,Images/Speaker4.jpg,Audio/Speaker2_En/P2-16-En.wav,Speaker2,گوینده۲,,,,,,,,,0,0,0,19,0,14,14,35,82.49855633300012,,,,,,,,,,,,,,,,,,,,,,,,,,,,,,,,,,,,,,,,,,,,,82.47282691700002,82.49855633300012,82.49855633300012,82.49855633300012,82.49855633300012,82.50505870833288,82.49855633300012,82.49855633300012,82.71208295799988,Incorrect! The correct answer is Speaker2. نادرست! پاسخ صحیح گوینده۲ است,1,0.20745145799992315,None,0,15,82.71590250000008,82.72837675000028,84.71311462500034,84.73589704200003,,112250,001,2024-07-01_18h02.16.024,5-26,2024.1.4,None,2024-07-01 18h02.20.902244 +0900,
Images/Speaker1.jpg,Images/Speaker2.jpg,Images/Speaker3.jpg,Images/Speaker4.jpg,Audio/Speaker3_En/P3-19-En.wav,Speaker3,گوینده۳,,,,,,,,,0,0,0,19,0,15,15,58,84.73589704200003,,,,,,,,,,,,,,,,,,,,,,,,,,,,,,,,,,,,,,,,,,,,,84.71331516699956,84.73589704200003,84.73589704200003,84.73589704200003,84.73589704200003,84.72956454166639,84.73589704200003,84.73589704200003,84.91358175000005,Incorrect! The correct answer is Speaker3. نادرست! پاسخ صحیح گوینده۳ است,1,0.16824929199992766,None,0,16,84.91743004199998,84.92987520800034,86.92317124999954,,,112250,001,2024-07-01_18h02.16.024,5-26,2024.1.4,None,2024-07-01 18h02.20.902244 +0900,
Images/Speaker1.jpg,Images/Speaker2.jpg,Images/Speaker3.jpg,Images/Speaker4.jpg,Audio/Speaker4_En/P4-19-En.wav,Speaker4,گوینده۴,,,,,,,,,0,0,0,19,0,16,16,78,86.95047675000023,,,,,,,,,,,,,,,,,,,,,,,,,,,,,,,,,,,,,,,,,,,,,86.92387220799992,86.95047675000023,86.95047675000023,86.95047675000023,86.95047675000023,86.95630120833314,86.95047675000023,86.95047675000023,87.12781745800021,Incorrect! The correct answer is Speaker4. نادرست! پاسخ صحیح گوینده۴ است,1,0.17464591699990706,None,0,17,87.13152629199976,87.14435887499985,89.13223504199959,89.15705229200012,,112250,001,2024-07-01_18h02.16.024,5-26,2024.1.4,None,2024-07-01 18h02.20.902244 +0900,
Images/Speaker1.jpg,Images/Speaker2.jpg,Images/Speaker3.jpg,Images/Speaker4.jpg,Audio/Speaker3_En/P3-20-En.wav,Speaker3,گوینده۳,,,,,,,,,0,0,0,19,0,17,17,59,89.15705229200012,,,,,,,,,,,,,,,,,,,,,,,,,,,,,,,,,,,,,,,,,,,,,89.13280945800034,89.15705229200012,89.15705229200012,89.15705229200012,89.15705229200012,89.16471287533344,89.15705229200012,89.15705229200012,89.34699258299952,Incorrect! The correct answer is Speaker3. نادرست! پاسخ صحیح گوینده۳ است,1,0.18630270799985738,None,0,18,89.35127074999946,89.36420029199962,91.35142345799977,,,112250,001,2024-07-01_18h02.16.024,5-26,2024.1.4,None,2024-07-01 18h02.20.902244 +0900,
Images/Speaker1.jpg,Images/Speaker2.jpg,Images/Speaker3.jpg,Images/Speaker4.jpg,Audio/Speaker4_En/P4-3-En.wav,Speaker4,گوینده۴,,,,,,,,,0,0,0,19,0,18,18,62,91.37460591699983,,,,,,,,,,,,,,,,,,,,,,,,,,,,,,,,,,,,,,,,,,,,,91.35163704200022,91.37460591699983,91.37460591699983,91.37460591699983,91.37460591699983,91.3680062916667,91.37460591699983,91.37460591699983,91.53076845800024,Incorrect! The correct answer is Speaker4. نادرست! پاسخ صحیح گوینده۴ است,1,0.1501694589996987,None,0,19,91.53503804199954,91.54864983300013,93.53188487500029,93.5554703329999,,112250,001,2024-07-01_18h02.16.024,5-26,2024.1.4,None,2024-07-01 18h02.20.902244 +0900,
Images/Speaker1.jpg,Images/Speaker2.jpg,Images/Speaker3.jpg,Images/Speaker4.jpg,Audio/Speaker1_En/P1-6-En.wav,Speaker1,گوینده ۱,,,,,,,,,0,0,0,19,0,19,19,5,93.5554703329999,,,,,,,,,,,,,,,,,,,,,,,,,,,,,,,,,,,,,,,,,,,,,93.53208220800025,93.5554703329999,93.5554703329999,93.5554703329999,93.5554703329999,93.5650152913336,93.5554703329999,93.5554703329999,93.65672050000012,Correct! صحیح است,1,0.10032645899991621,None,0,20,93.66065037499993,93.67156449999948,95.66353504200015,,,112250,001,2024-07-01_18h02.16.024,5-26,2024.1.4,None,2024-07-01 18h02.20.902244 +0900,
Images/Speaker1.jpg,Images/Speaker2.jpg,Images/Speaker3.jpg,Images/Speaker4.jpg,Audio/Speaker3_En/P3-2-En.wav,Speaker3,گوینده۳,,,,,,,,,0,0,0,19,0,20,20,41,95.68815316699965,,,,,,,,,,,,,,,,,,,,,,,,,,,,,,,,,,,,,,,,,,,,,95.66371704199992,95.68815316699965,95.68815316699965,95.68815316699965,95.68815316699965,95.6968339583332,95.68815316699965,95.68815316699965,95.84839291699973,Incorrect! The correct answer is Speaker3. نادرست! پاسخ صحیح گوینده۳ است,1,0.15108841599976586,None,0,21,95.85252729199965,95.86523874999966,97.85307020799974,97.87970362499982,,112250,001,2024-07-01_18h02.16.024,5-26,2024.1.4,None,2024-07-01 18h02.20.902244 +0900,
Images/Speaker1.jpg,Images/Speaker2.jpg,Images/Speaker3.jpg,Images/Speaker4.jpg,Audio/Speaker2_En/P2-19-En.wav,Speaker2,گوینده۲,,,,,,,,,0,0,0,19,0,21,21,38,97.87970362499982,,,,,,,,,,,,,,,,,,,,,,,,,,,,,,,,,,,,,,,,,,,,,97.8541023329999,97.87970362499982,97.87970362499982,97.87970362499982,97.87970362499982,97.88552412533366,97.87970362499982,97.87970362499982,97.88881212500019,Incorrect! The correct answer is Speaker2. نادرست! پاسخ صحیح گوینده۲ است,1,0.0009547500003463938,None,0,22,97.8925215829995,97.9022091249999,99.88659104199996,99.90862308299984,,112250,001,2024-07-01_18h02.16.024,5-26,2024.1.4,None,2024-07-01 18h02.20.902244 +0900,
Images/Speaker1.jpg,Images/Speaker2.jpg,Images/Speaker3.jpg,Images/Speaker4.jpg,Audio/Speaker2_En/P2-2-En.wav,Speaker2,گوینده۲,,,,,,,,,0,0,0,19,0,22,22,21,99.90862308299984,,,,,,,,,,,,,,,,,,,,,,,,,,,,,,,,,,,,,,,,,,,,,99.88677974999973,99.90862308299984,99.90862308299984,99.90862308299984,99.90862308299984,99.90306429166618,99.90862308299984,99.90862308299984,100.10635137499958,Incorrect! The correct answer is Speaker2. نادرست! پاسخ صحیح گوینده۲ است,1,0.1953654170001755,None,0,23,100.11065320800026,100.12347166699965,102.11428458299997,,,112250,001,2024-07-01_18h02.16.024,5-26,2024.1.4,None,2024-07-01 18h02.20.902244 +0900,
Images/Speaker1.jpg,Images/Speaker2.jpg,Images/Speaker3.jpg,Images/Speaker4.jpg,Audio/Speaker4_En/P4-8-En.wav,Speaker4,گوینده۴,,,,,,,,,0,0,0,19,0,23,23,67,102.13795174999996,,,,,,,,,,,,,,,,,,,,,,,,,,,,,,,,,,,,,,,,,,,,,102.11447954199957,102.13795174999996,102.13795174999996,102.13795174999996,102.13795174999996,102.1475817913329,102.13795174999996,102.13795174999996,102.22007733299961,Incorrect! The correct answer is Speaker4. نادرست! پاسخ صحیح گوینده۴ است,1,0.0773297920004552,None,0,24,102.22381024999959,102.2371927080003,104.2323778330001,,,112250,001,2024-07-01_18h02.16.024,5-26,2024.1.4,None,2024-07-01 18h02.20.902244 +0900,
Images/Speaker1.jpg,Images/Speaker2.jpg,Images/Speaker3.jpg,Images/Speaker4.jpg,Audio/Speaker4_En/P4-17-En.wav,Speaker4,گوینده۴,,,,,,,,,0,0,0,19,0,24,24,76,104.25993929200013,,,,,,,,,,,,,,,,,,,,,,,,,,,,,,,,,,,,,,,,,,,,,104.2331750000003,104.25993929200013,104.25993929200013,104.25993929200013,104.25993929200013,104.26552404133284,104.25993929200013,104.25993929200013,104.35277874999974,Incorrect! The correct answer is Speaker4. نادرست! پاسخ صحیح گوینده۴ است,1,0.09132462500019756,None,0,25,104.35660195800028,104.36938149999969,106.35763637499986,,,112250,001,2024-07-01_18h02.16.024,5-26,2024.1.4,None,2024-07-01 18h02.20.902244 +0900,
Images/Speaker1.jpg,Images/Speaker2.jpg,Images/Speaker3.jpg,Images/Speaker4.jpg,Audio/Speaker2_En/P2-12-En.wav,Speaker2,گوینده۲,,,,,,,,,0,0,0,19,0,25,25,31,106.38235004200033,,,,,,,,,,,,,,,,,,,,,,,,,,,,,,,,,,,,,,,,,,,,,106.35783937499946,106.38235004200033,106.38235004200033,106.38235004200033,106.38235004200033,106.37422908366649,106.38235004200033,106.38235004200033,106.48811537500023,Incorrect! The correct answer is Speaker2. نادرست! پاسخ صحیح گوینده۲ است,1,None,None,0,26,106.49232270799985,106.50329987500027,108.49289245799991,108.51958204199946,,112250,001,2024-07-01_18h02.16.024,5-26,2024.1.4,None,2024-07-01 18h02.20.902244 +0900,
Images/Speaker1.jpg,Images/Speaker2.jpg,Images/Speaker3.jpg,Images/Speaker4.jpg,Audio/Speaker2_En/P2-18-En.wav,Speaker2,گوینده۲,,,,,,,,,0,0,0,19,0,26,26,37,108.51958204199946,,,,,,,,,,,,,,,,,,,,,,,,,,,,,,,,,,,,,,,,,,,,,108.49384754199946,108.51958204199946,108.51958204199946,108.51958204199946,108.51958204199946,108.52535345833306,108.51958204199946,108.51958204199946,108.64252466699963,Incorrect! The correct answer is Speaker2. نادرست! پاسخ صحیح گوینده۲ است,1,0.11502341699997487,None,0,27,108.64661950000027,108.65936816700014,110.64669470799981,,,112250,001,2024-07-01_18h02.16.024,5-26,2024.1.4,None,2024-07-01 18h02.20.902244 +0900,
Images/Speaker1.jpg,Images/Speaker2.jpg,Images/Speaker3.jpg,Images/Speaker4.jpg,Audio/Speaker2_En/P2-17-En.wav,Speaker2,گوینده۲,,,,,,,,,0,0,0,19,0,27,27,36,110.66945820799992,,,,,,,,,,,,,,,,,,,,,,,,,,,,,,,,,,,,,,,,,,,,,110.64686891699967,110.66945820799992,110.66945820799992,110.66945820799992,110.66945820799992,110.66332370866645,110.66945820799992,110.66945820799992,110.67002225000033,Incorrect! The correct answer is Speaker2. نادرست! پاسخ صحیح گوینده۲ است,1,2.072591750000356,None,0,28,110.67411370799982,110.68432179199954,112.67540920800002,,,112250,001,2024-07-01_18h02.16.024,5-26,2024.1.4,None,2024-07-01 18h02.20.902244 +0900,
Images/Speaker1.jpg,Images/Speaker2.jpg,Images/Speaker3.jpg,Images/Speaker4.jpg,Audio/Speaker3_En/P3-8-En.wav,Speaker3,گوینده۳,,,,,,,,,0,0,0,19,0,28,28,47,112.69798716700006,,,,,,,,,,,,,,,,,,,,,,,,,,,,,,,,,,,,,,,,,,,,,112.67558908299998,112.69798716700006,112.69798716700006,112.69798716700006,112.69798716700006,112.69202824966693,112.69798716700006,112.69798716700006,112.72511066700008,Incorrect! The correct answer is Speaker3. نادرست! پاسخ صحیح گوینده۳ است,1,0.023858166000536585,None,0,29,112.7287515830003,112.74136570799965,114.7253892079998,114.74932650000028,,112250,001,2024-07-01_18h02.16.024,5-26,2024.1.4,None,2024-07-01 18h02.20.902244 +0900,
Images/Speaker1.jpg,Images/Speaker2.jpg,Images/Speaker3.jpg,Images/Speaker4.jpg,Audio/Speaker1_En/P1-15-En.wav,Speaker1,گوینده ۱,,,,,,,,,0,0,0,19,0,29,29,14,114.74932650000028,,,,,,,,,,,,,,,,,,,,,,,,,,,,,,,,,,,,,,,,,,,,,114.72558462500001,114.74932650000028,114.74932650000028,114.74932650000028,114.74932650000028,114.75847391633354,114.74932650000028,114.74932650000028,114.8716252080003,Correct! صحیح است,1,0.11274574999970355,None,0,30,114.87569549999989,114.88696145799986,116.87221070800024,116.89493004199994,,112250,001,2024-07-01_18h02.16.024,5-26,2024.1.4,None,2024-07-01 18h02.20.902244 +0900,
Images/Speaker1.jpg,Images/Speaker2.jpg,Images/Speaker3.jpg,Images/Speaker4.jpg,Audio/Speaker1_En/P1-18-En.wav,Speaker1,گوینده ۱,,,,,,,,,0,0,0,19,0,30,30,17,116.89493004199994,,,,,,,,,,,,,,,,,,,,,,,,,,,,,,,,,,,,,,,,,,,,,116.8723977919999,116.89493004199994,116.89493004199994,116.89493004199994,116.89493004199994,116.90526904133324,116.89493004199994,116.89493004199994,116.94932724999944,Correct! صحیح است,1,0.052590375000363565,None,0,31,116.95339375000003,116.96363470799952,118.95951420799975,,,112250,001,2024-07-01_18h02.16.024,5-26,2024.1.4,None,2024-07-01 18h02.20.902244 +0900,
Images/Speaker1.jpg,Images/Speaker2.jpg,Images/Speaker3.jpg,Images/Speaker4.jpg,Audio/Speaker1_En/P1-4-En.wav,Speaker1,گوینده ۱,,,,,,,,,0,0,0,19,0,31,31,3,118.98731045800014,,,,,,,,,,,,,,,,,,,,,,,,,,,,,,,,,,,,,,,,,,,,,118.96014416700018,118.98731045800014,118.98731045800014,118.98731045800014,118.98731045800014,118.99266750033306,118.98731045800014,118.98731045800014,118.99847783299992,Correct! صحیح است,1,0.0095722919995751,None,0,32,119.0023079169996,119.01323445799972,121.00931291699999,,,112250,001,2024-07-01_18h02.16.024,5-26,2024.1.4,None,2024-07-01 18h02.20.902244 +0900,
Images/Speaker1.jpg,Images/Speaker2.jpg,Images/Speaker3.jpg,Images/Speaker4.jpg,Audio/Speaker2_En/P2-4-En.wav,Speaker2,گوینده۲,,,,,,,,,0,0,0,19,0,32,32,23,121.03602225000031,,,,,,,,,,,,,,,,,,,,,,,,,,,,,,,,,,,,,,,,,,,,,121.00997916699998,121.03602225000031,121.03602225000031,121.03602225000031,121.03602225000031,121.04248550033347,121.03602225000031,121.03602225000031,121.04257929199957,Incorrect! The correct answer is Speaker2. نادرست! پاسخ صحیح گوینده۲ است,1,0.005479750000631611,None,0,33,121.04636258299979,121.0587883749995,123.0444763329997,123.06805325000005,,112250,001,2024-07-01_18h02.16.024,5-26,2024.1.4,None,2024-07-01 18h02.20.902244 +0900,
Images/Speaker1.jpg,Images/Speaker2.jpg,Images/Speaker3.jpg,Images/Speaker4.jpg,Audio/Speaker4_En/P4-1-En.wav,Speaker4,گوینده۴,,,,,,,,,0,0,0,19,0,33,33,60,123.06805325000005,,,,,,,,,,,,,,,,,,,,,,,,,,,,,,,,,,,,,,,,,,,,,123.0446793330002,123.06805325000005,123.06805325000005,123.06805325000005,123.06805325000005,123.07761758333302,123.06805325000005,123.06805325000005,123.28766674999952,Incorrect! The correct answer is Speaker4. نادرست! پاسخ صحیح گوینده۴ است,1,0.21232700000018667,None,0,34,123.29173645799983,123.30255295799998,125.30022070799987,,,112250,001,2024-07-01_18h02.16.024,5-26,2024.1.4,None,2024-07-01 18h02.20.902244 +0900,
Images/Speaker1.jpg,Images/Speaker2.jpg,Images/Speaker3.jpg,Images/Speaker4.jpg,Audio/Speaker2_En/P2-1-En.wav,Speaker2,گوینده۲,,,,,,,,,0,0,0,19,0,34,34,20,125.32568183300009,,,,,,,,,,,,,,,,,,,,,,,,,,,,,,,,,,,,,,,,,,,,,125.30039000000033,125.32568183300009,125.32568183300009,125.32568183300009,125.32568183300009,125.31685229166693,125.32568183300009,125.32568183300009,125.32629645799989,Incorrect! The correct answer is Speaker2. نادرست! پاسخ صحیح گوینده۲ است,1,2.2290840420000677,None,0,35,125.33014845799971,125.34056279200013,127.32717312499972,127.3509307080003,,112250,001,2024-07-01_18h02.16.024,5-26,2024.1.4,None,2024-07-01 18h02.20.902244 +0900,
Images/Speaker1.jpg,Images/Speaker2.jpg,Images/Speaker3.jpg,Images/Speaker4.jpg,Audio/Speaker1_En/P1-11-En.wav,Speaker1,گوینده ۱,,,,,,,,,0,0,0,19,0,35,35,10,127.3509307080003,,,,,,,,,,,,,,,,,,,,,,,,,,,,,,,,,,,,,,,,,,,,,127.3273415829999,127.3509307080003,127.3509307080003,127.3509307080003,127.3509307080003,127.36026841633296,127.3509307080003,127.3509307080003,127.37703191699984,Correct! صحیح است,1,0.02469645800010767,None,0,36,127.3807938330001,127.39187775000028,129.385194167,,,112250,001,2024-07-01_18h02.16.024,5-26,2024.1.4,None,2024-07-01 18h02.20.902244 +0900,
Images/Speaker1.jpg,Images/Speaker2.jpg,Images/Speaker3.jpg,Images/Speaker4.jpg,Audio/Speaker4_En/P4-5-En.wav,Speaker4,گوینده۴,,,,,,,,,0,0,0,19,0,36,36,64,129.40914845800035,,,,,,,,,,,,,,,,,,,,,,,,,,,,,,,,,,,,,,,,,,,,,129.3853585830002,129.40914845800035,129.40914845800035,129.40914845800035,129.40914845800035,129.41849691633303,129.40914845800035,129.40914845800035,129.40975358299966,Incorrect! The correct answer is Speaker4. نادرست! پاسخ صحیح گوینده۴ است,1,1.997723208000025,None,0,37,129.4101331669999,129.42023812499974,131.40453029200035,131.4292089999999,,112250,001,2024-07-01_18h02.16.024,5-26,2024.1.4,None,2024-07-01 18h02.20.902244 +0900,
Images/Speaker1.jpg,Images/Speaker2.jpg,Images/Speaker3.jpg,Images/Speaker4.jpg,Audio/Speaker4_En/P4-10-En.wav,Speaker4,گوینده۴,,,,,,,,,0,0,0,19,0,37,37,69,131.4292089999999,,,,,,,,,,,,,,,,,,,,,,,,,,,,,,,,,,,,,,,,,,,,,131.40471637500013,131.4292089999999,131.4292089999999,131.4292089999999,131.4292089999999,131.4209757086667,131.4292089999999,131.4292089999999,131.59036254199964,Incorrect! The correct answer is Speaker4. نادرست! پاسخ صحیح گوینده۴ است,1,None,None,0,38,131.59422724999968,131.60476404200017,133.59611916700032,,,112250,001,2024-07-01_18h02.16.024,5-26,2024.1.4,None,2024-07-01 18h02.20.902244 +0900,
Images/Speaker1.jpg,Images/Speaker2.jpg,Images/Speaker3.jpg,Images/Speaker4.jpg,Audio/Speaker4_En/P4-14-En.wav,Speaker4,گوینده۴,,,,,,,,,0,0,0,19,0,38,38,73,133.6228354169998,,,,,,,,,,,,,,,,,,,,,,,,,,,,,,,,,,,,,,,,,,,,,133.59676441699958,133.6228354169998,133.6228354169998,133.6228354169998,133.6228354169998,133.6292710413332,133.6228354169998,133.6228354169998,133.779733458,Incorrect! The correct answer is Speaker4. نادرست! پاسخ صحیح گوینده۴ است,1,0.14259091599979,None,0,39,133.78394154200032,133.79425708300005,135.7822462080003,135.8058083750002,,112250,001,2024-07-01_18h02.16.024,5-26,2024.1.4,None,2024-07-01 18h02.20.902244 +0900,
Images/Speaker1.jpg,Images/Speaker2.jpg,Images/Speaker3.jpg,Images/Speaker4.jpg,Audio/Speaker1_En/P1-17-En.wav,Speaker1,گوینده ۱,,,,,,,,,0,0,0,19,0,39,39,16,135.8058083750002,,,,,,,,,,,,,,,,,,,,,,,,,,,,,,,,,,,,,,,,,,,,,135.7825095420003,135.8058083750002,135.8058083750002,135.8058083750002,135.8058083750002,135.813308833333,135.8058083750002,135.8058083750002,135.9455899579998,Correct! صحیح است,1,0.1366161670002839,None,0,40,135.94956941700002,135.96045725000022,137.94416533299955,137.9682024169997,,112250,001,2024-07-01_18h02.16.024,5-26,2024.1.4,None,2024-07-01 18h02.20.902244 +0900,
Images/Speaker1.jpg,Images/Speaker2.jpg,Images/Speaker3.jpg,Images/Speaker4.jpg,Audio/Speaker2_En/P2-3-En.wav,Speaker2,گوینده۲,,,,,,,,,0,0,0,19,0,40,40,22,137.9682024169997,,,,,,,,,,,,,,,,,,,,,,,,,,,,,,,,,,,,,,,,,,,,,137.94522470799984,137.9682024169997,137.9682024169997,137.9682024169997,137.9682024169997,137.97669395833287,137.9682024169997,137.9682024169997,138.17088049999984,Incorrect! The correct answer is Speaker2. نادرست! پاسخ صحیح گوینده۲ است,1,0.19858587499948044,None,0,41,138.17486304199974,138.18759687500005,140.17100299999947,140.19730699999946,,112250,001,2024-07-01_18h02.16.024,5-26,2024.1.4,None,2024-07-01 18h02.20.902244 +0900,
Images/Speaker1.jpg,Images/Speaker2.jpg,Images/Speaker3.jpg,Images/Speaker4.jpg,Audio/Speaker2_En/P2-9-En.wav,Speaker2,گوینده۲,,,,,,,,,0,0,0,19,0,41,41,28,140.19730699999946,,,,,,,,,,,,,,,,,,,,,,,,,,,,,,,,,,,,,,,,,,,,,140.17155170800015,140.19730699999946,140.19730699999946,140.19730699999946,140.19730699999946,140.20343908333285,140.19730699999946,140.19730699999946,140.30909283300025,Incorrect! The correct answer is Speaker2. نادرست! پاسخ صحیح گوینده۲ است,1,0.10409358400011115,None,0,42,140.3130140000003,140.32390099999975,142.31243662499946,142.33885220799948,,112250,001,2024-07-01_18h02.16.024,5-26,2024.1.4,None,2024-07-01 18h02.20.902244 +0900,
Images/Speaker1.jpg,Images/Speaker2.jpg,Images/Speaker3.jpg,Images/Speaker4.jpg,Audio/Speaker2_En/P2-13-En.wav,Speaker2,گوینده۲,,,,,,,,,0,0,0,19,0,42,42,32,142.33885220799948,,,,,,,,,,,,,,,,,,,,,,,,,,,,,,,,,,,,,,,,,,,,,142.31309254200005,142.33885220799948,142.33885220799948,142.33885220799948,142.33885220799948,142.34486195833284,142.33885220799948,142.33885220799948,142.551290333,Incorrect! The correct answer is Speaker2. نادرست! پاسخ صحیح گوینده۲ است,1,0.21122366700001294,None,0,43,142.55621758300003,142.57052195799952,144.55533449999984,144.58323674999974,,112250,001,2024-07-01_18h02.16.024,5-26,2024.1.4,None,2024-07-01 18h02.20.902244 +0900,
Images/Speaker1.jpg,Images/Speaker2.jpg,Images/Speaker3.jpg,Images/Speaker4.jpg,Audio/Speaker3_En/P3-16-En.wav,Speaker3,گوینده۳,,,,,,,,,0,0,0,19,0,43,43,55,144.58323674999974,,,,,,,,,,,,,,,,,,,,,,,,,,,,,,,,,,,,,,,,,,,,,144.5562264580003,144.58323674999974,144.58323674999974,144.58323674999974,144.58323674999974,144.5878553333328,144.58323674999974,144.58323674999974,144.74850366699957,Incorrect! The correct answer is Speaker3. نادرست! پاسخ صحیح گوینده۳ است,1,0.1643026669999017,None,0,44,144.75330574999953,144.76734512500025,146.75457062500027,,,112250,001,2024-07-01_18h02.16.024,5-26,2024.1.4,None,2024-07-01 18h02.20.902244 +0900,
Images/Speaker1.jpg,Images/Speaker2.jpg,Images/Speaker3.jpg,Images/Speaker4.jpg,Audio/Speaker4_En/P4-7-En.wav,Speaker4,گوینده۴,,,,,,,,,0,0,0,19,0,44,44,66,146.77777437500026,,,,,,,,,,,,,,,,,,,,,,,,,,,,,,,,,,,,,,,,,,,,,146.75474354200014,146.77777437500026,146.77777437500026,146.77777437500026,146.77777437500026,146.7711892496666,146.77777437500026,146.77777437500026,146.89538712499962,Incorrect! The correct answer is Speaker4. نادرست! پاسخ صحیح گوینده۴ است,1,0.11485133300084271,None,0,45,146.89929858300002,146.91210241699991,148.89567437499954,148.92135266700006,,112250,001,2024-07-01_18h02.16.024,5-26,2024.1.4,None,2024-07-01 18h02.20.902244 +0900,
Images/Speaker1.jpg,Images/Speaker2.jpg,Images/Speaker3.jpg,Images/Speaker4.jpg,Audio/Speaker3_En/P3-12-En.wav,Speaker3,گوینده۳,,,,,,,,,0,0,0,19,0,45,45,51,148.92135266700006,,,,,,,,,,,,,,,,,,,,,,,,,,,,,,,,,,,,,,,,,,,,,148.89627808299974,148.92135266700006,148.92135266700006,148.92135266700006,148.92135266700006,148.92805487533366,148.92135266700006,148.92135266700006,148.95335158299986,Incorrect! The correct answer is Speaker3. نادرست! پاسخ صحیح گوینده۳ است,1,0.024362875000406348,None,0,46,148.9574306249997,148.96994345799976,150.95827008299966,,,112250,001,2024-07-01_18h02.16.024,5-26,2024.1.4,None,2024-07-01 18h02.20.902244 +0900,
Images/Speaker1.jpg,Images/Speaker2.jpg,Images/Speaker3.jpg,Images/Speaker4.jpg,Audio/Speaker3_En/P3-3-En.wav,Speaker3,گوینده۳,,,,,,,,,0,0,0,19,0,46,46,42,150.98572516700006,,,,,,,,,,,,,,,,,,,,,,,,,,,,,,,,,,,,,,,,,,,,,150.95888749999995,150.98572516700006,150.98572516700006,150.98572516700006,150.98572516700006,150.99145558333345,150.98572516700006,150.98572516700006,151.15515233299993,Incorrect! The correct answer is Speaker3. نادرست! پاسخ صحیح گوینده۳ است,1,0.16029995799999597,None,0,47,151.1590327920003,151.17192166699988,153.15580095800033,153.17935341700013,,112250,001,2024-07-01_18h02.16.024,5-26,2024.1.4,None,2024-07-01 18h02.20.902244 +0900,
Images/Speaker1.jpg,Images/Speaker2.jpg,Images/Speaker3.jpg,Images/Speaker4.jpg,Audio/Speaker3_En/P3-5-En.wav,Speaker3,گوینده۳,,,,,,,,,0,0,0,19,0,47,47,44,153.17935341700013,,,,,,,,,,,,,,,,,,,,,,,,,,,,,,,,,,,,,,,,,,,,,153.15596858299978,153.17935341700013,153.17935341700013,153.17935341700013,153.17935341700013,153.18890933333347,153.17935341700013,153.17935341700013,153.36021716699997,Incorrect! The correct answer is Speaker3. نادرست! پاسخ صحیح گوینده۳ است,1,0.17637629199998628,None,0,48,153.36436912499994,153.3772147919999,155.35985054199955,155.38395812499948,,112250,001,2024-07-01_18h02.16.024,5-26,2024.1.4,None,2024-07-01 18h02.20.902244 +0900,
Images/Speaker1.jpg,Images/Speaker2.jpg,Images/Speaker3.jpg,Images/Speaker4.jpg,Audio/Speaker4_En/P4-15-En.wav,Speaker4,گوینده۴,,,,,,,,,0,0,0,19,0,48,48,74,155.38395812499948,,,,,,,,,,,,,,,,,,,,,,,,,,,,,,,,,,,,,,,,,,,,,155.36002333299984,155.38395812499948,155.38395812499948,155.38395812499948,155.38395812499948,155.39289675033302,155.38395812499948,155.38395812499948,155.63081966699974,Incorrect! The correct answer is Speaker4. نادرست! پاسخ صحیح گوینده۴ است,1,0.238279875000444,None,0,49,155.63467929200033,155.6451426249996,157.6296529579995,157.65355691700006,,112250,001,2024-07-01_18h02.16.024,5-26,2024.1.4,None,2024-07-01 18h02.20.902244 +0900,
Images/Speaker1.jpg,Images/Speaker2.jpg,Images/Speaker3.jpg,Images/Speaker4.jpg,Audio/Speaker2_En/P2-6-En.wav,Speaker2,گوینده۲,,,,,,,,,0,0,0,19,0,49,49,25,157.65355691700006,,,,,,,,,,,,,,,,,,,,,,,,,,,,,,,,,,,,,,,,,,,,,157.6298520829996,157.65355691700006,157.65355691700006,157.65355691700006,157.65355691700006,157.66277895833315,157.65355691700006,157.65355691700006,157.65425620800033,Incorrect! The correct answer is Speaker2. نادرست! پاسخ صحیح گوینده۲ است,1,2.1214583340006357,None,0,50,157.65465137499996,157.66421154199998,159.64748837499974,159.67063679199964,,112250,001,2024-07-01_18h02.16.024,5-26,2024.1.4,None,2024-07-01 18h02.20.902244 +0900,
Images/Speaker1.jpg,Images/Speaker2.jpg,Images/Speaker3.jpg,Images/Speaker4.jpg,Audio/Speaker2_En/P2-5-En.wav,Speaker2,گوینده۲,,,,,,,,,0,0,0,19,0,50,50,24,159.67063679199964,,,,,,,,,,,,,,,,,,,,,,,,,,,,,,,,,,,,,,,,,,,,,159.6476884169997,159.67063679199964,159.67063679199964,159.67063679199964,159.67063679199964,159.68060479133288,159.67063679199964,159.67063679199964,159.8490549170001,Incorrect! The correct answer is Speaker2. نادرست! پاسخ صحیح گوینده۲ است,1,0.17604887499965116,None,0,51,159.85279224999977,159.86542399999962,161.85352220799996,,,112250,001,2024-07-01_18h02.16.024,5-26,2024.1.4,None,2024-07-01 18h02.20.902244 +0900,
Images/Speaker1.jpg,Images/Speaker2.jpg,Images/Speaker3.jpg,Images/Speaker4.jpg,Audio/Speaker3_En/P3-6-En.wav,Speaker3,گوینده۳,,,,,,,,,0,0,0,19,0,51,51,45,161.87951079199956,,,,,,,,,,,,,,,,,,,,,,,,,,,,,,,,,,,,,,,,,,,,,161.85410666699954,161.87951079199956,161.87951079199956,161.87951079199956,161.87951079199956,161.8866600003335,161.87951079199956,161.87951079199956,161.9743884999998,Incorrect! The correct answer is Speaker3. نادرست! پاسخ صحیح گوینده۳ است,1,0.0872285830000692,None,0,52,161.97843208299946,161.98822087499957,163.97851354199975,,,112250,001,2024-07-01_18h02.16.024,5-26,2024.1.4,None,2024-07-01 18h02.20.902244 +0900,
Images/Speaker1.jpg,Images/Speaker2.jpg,Images/Speaker3.jpg,Images/Speaker4.jpg,Audio/Speaker1_En/P1-7-En.wav,Speaker1,گوینده ۱,,,,,,,,,0,0,0,19,0,52,52,6,164.00124229199992,,,,,,,,,,,,,,,,,,,,,,,,,,,,,,,,,,,,,,,,,,,,,163.9787141249999,164.00124229199992,164.00124229199992,164.00124229199992,164.00124229199992,163.99513020866678,164.00124229199992,164.00124229199992,164.04579133300012,Correct! صحیح است,1,0.03835395799978869,None,0,53,164.04999941699953,164.06081108299986,166.04778641699977,166.07429016700007,,112250,001,2024-07-01_18h02.16.024,5-26,2024.1.4,None,2024-07-01 18h02.20.902244 +0900,
Images/Speaker1.jpg,Images/Speaker2.jpg,Images/Speaker3.jpg,Images/Speaker4.jpg,Audio/Speaker1_En/P1-20-En.wav,Speaker1,گوینده ۱,,,,,,,,,0,0,0,19,0,53,53,19,166.07429016700007,,,,,,,,,,,,,,,,,,,,,,,,,,,,,,,,,,,,,,,,,,,,,166.04882550000002,166.07429016700007,166.07429016700007,166.07429016700007,166.07429016700007,166.08003141633304,166.07429016700007,166.07429016700007,166.25423137500002,Correct! صحیح است,1,0.1752946670003439,None,0,54,166.25846600000023,166.2703812079999,168.261427292,,,112250,001,2024-07-01_18h02.16.024,5-26,2024.1.4,None,2024-07-01 18h02.20.902244 +0900,
Images/Speaker1.jpg,Images/Speaker2.jpg,Images/Speaker3.jpg,Images/Speaker4.jpg,Audio/Speaker4_En/P4-16-En.wav,Speaker4,گوینده۴,,,,,,,,,0,0,0,19,0,54,54,75,168.28705883299972,,,,,,,,,,,,,,,,,,,,,,,,,,,,,,,,,,,,,,,,,,,,,168.26214637500016,168.28705883299972,168.28705883299972,168.28705883299972,168.28705883299972,168.29458554133322,168.28705883299972,168.28705883299972,168.40440316700005,Incorrect! The correct answer is Speaker4. نادرست! پاسخ صحیح گوینده۴ است,1,0.11412775000007969,None,0,55,168.40846545800014,168.4210440830002,170.40567866699985,170.42943729200033,,112250,001,2024-07-01_18h02.16.024,5-26,2024.1.4,None,2024-07-01 18h02.20.902244 +0900,
Images/Speaker1.jpg,Images/Speaker2.jpg,Images/Speaker3.jpg,Images/Speaker4.jpg,Audio/Speaker3_En/P3-1-En.wav,Speaker3,گوینده۳,,,,,,,,,0,0,0,19,0,55,55,40,170.42943729200033,,,,,,,,,,,,,,,,,,,,,,,,,,,,,,,,,,,,,,,,,,,,,170.40587895799945,170.42943729200033,170.42943729200033,170.42943729200033,170.42943729200033,170.4387869163334,170.42943729200033,170.42943729200033,170.5132505419997,Incorrect! The correct answer is Speaker3. نادرست! پاسخ صحیح گوینده۳ است,1,0.0820310420003807,None,0,56,170.5172295000002,170.5296462919996,172.5127576670002,172.53822966699954,,112250,001,2024-07-01_18h02.16.024,5-26,2024.1.4,None,2024-07-01 18h02.20.902244 +0900,
Images/Speaker1.jpg,Images/Speaker2.jpg,Images/Speaker3.jpg,Images/Speaker4.jpg,Audio/Speaker3_En/P3-15-En.wav,Speaker3,گوینده۳,,,,,,,,,0,0,0,19,0,56,56,54,172.53822966699954,,,,,,,,,,,,,,,,,,,,,,,,,,,,,,,,,,,,,,,,,,,,,172.51295324999955,172.53822966699954,172.53822966699954,172.53822966699954,172.53822966699954,172.54578766633364,172.53822966699954,172.53822966699954,172.64315987499958,Incorrect! The correct answer is Speaker3. نادرست! پاسخ صحیح گوینده۳ است,1,0.10271245799958706,None,0,57,172.6469024170001,172.65899154199997,174.64538625000023,174.66836245800005,,112250,001,2024-07-01_18h02.16.024,5-26,2024.1.4,None,2024-07-01 18h02.20.902244 +0900,
Images/Speaker1.jpg,Images/Speaker2.jpg,Images/Speaker3.jpg,Images/Speaker4.jpg,Audio/Speaker1_En/P1-10-En.wav,Speaker1,گوینده ۱,,,,,,,,,0,0,0,19,0,57,57,9,174.66836245800005,,,,,,,,,,,,,,,,,,,,,,,,,,,,,,,,,,,,,,,,,,,,,174.64558995799962,174.66836245800005,174.66836245800005,174.66836245800005,174.66836245800005,174.67844291633315,174.66836245800005,174.66836245800005,174.78636141700008,Correct! صحیح است,1,0.11207945800015295,None,0,58,174.79007124999953,174.80098445800013,176.79346941699987,,,112250,001,2024-07-01_18h02.16.024,5-26,2024.1.4,None,2024-07-01 18h02.20.902244 +0900,
Images/Speaker1.jpg,Images/Speaker2.jpg,Images/Speaker3.jpg,Images/Speaker4.jpg,Audio/Speaker2_En/P2-20-En.wav,Speaker2,گوینده۲,,,,,,,,,0,0,0,19,0,58,58,39,176.8164419579998,,,,,,,,,,,,,,,,,,,,,,,,,,,,,,,,,,,,,,,,,,,,,176.79365125000004,176.8164419579998,176.8164419579998,176.8164419579998,176.8164419579998,176.81009299966652,176.8164419579998,176.8164419579998,176.8874501250002,Incorrect! The correct answer is Speaker2. نادرست! پاسخ صحیح گوینده۲ است,1,0.06445424999947136,None,0,59,176.89131058299972,176.90408987499995,178.88915333299974,178.91412670799946,,112250,001,2024-07-01_18h02.16.024,5-26,2024.1.4,None,2024-07-01 18h02.20.902244 +0900,
Images/Speaker1.jpg,Images/Speaker2.jpg,Images/Speaker3.jpg,Images/Speaker4.jpg,Audio/Speaker4_En/P4-4-En.wav,Speaker4,گوینده۴,,,,,,,,,0,0,0,19,0,59,59,63,178.91412670799946,,,,,,,,,,,,,,,,,,,,,,,,,,,,,,,,,,,,,,,,,,,,,178.88996137499998,178.91412670799946,178.91412670799946,178.91412670799946,178.91412670799946,178.9216457913331,178.91412670799946,178.91412670799946,179.07037904200024,Incorrect! The correct answer is Speaker4. نادرست! پاسخ صحیح گوینده۴ است,1,0.14995075000024372,None,0,60,179.07446945799984,179.08749762499974,181.07159595800022,181.09427116699953,,112250,001,2024-07-01_18h02.16.024,5-26,2024.1.4,None,2024-07-01 18h02.20.902244 +0900,
Images/Speaker1.jpg,Images/Speaker2.jpg,Images/Speaker3.jpg,Images/Speaker4.jpg,Audio/Speaker3_En/P3-18-En.wav,Speaker3,گوینده۳,,,,,,,,,0,0,0,19,0,60,60,57,181.09427116699953,,,,,,,,,,,,,,,,,,,,,,,,,,,,,,,,,,,,,,,,,,,,,181.07178441700034,181.09427116699953,181.09427116699953,181.09427116699953,181.09427116699953,181.08806545866653,181.09427116699953,181.09427116699953,181.24662429199998,Incorrect! The correct answer is Speaker3. نادرست! پاسخ صحیح گوینده۳ است,1,0.14666687499993714,None,0,61,181.25137191700014,181.2643042919999,183.25149204199988,,,112250,001,2024-07-01_18h02.16.024,5-26,2024.1.4,None,2024-07-01 18h02.20.902244 +0900,
Images/Speaker1.jpg,Images/Speaker2.jpg,Images/Speaker3.jpg,Images/Speaker4.jpg,Audio/Speaker4_En/P4-9-En.wav,Speaker4,گوینده۴,,,,,,,,,0,0,0,19,0,61,61,68,183.27792220799984,,,,,,,,,,,,,,,,,,,,,,,,,,,,,,,,,,,,,,,,,,,,,183.25218029200005,183.27792220799984,183.27792220799984,183.27792220799984,183.27792220799984,183.2846697503333,183.27792220799984,183.27792220799984,183.41814345799958,Incorrect! The correct answer is Speaker4. نادرست! پاسخ صحیح گوینده۴ است,1,0.13917408299948875,None,0,62,183.42196295800022,183.43514762499944,185.42218024999966,185.44609750000018,,112250,001,2024-07-01_18h02.16.024,5-26,2024.1.4,None,2024-07-01 18h02.20.902244 +0900,
Images/Speaker1.jpg,Images/Speaker2.jpg,Images/Speaker3.jpg,Images/Speaker4.jpg,Audio/Speaker4_En/P4-12-En.wav,Speaker4,گوینده۴,,,,,,,,,0,0,0,19,0,62,62,71,185.44609750000018,,,,,,,,,,,,,,,,,,,,,,,,,,,,,,,,,,,,,,,,,,,,,185.42305975,185.44609750000018,185.44609750000018,185.44609750000018,185.44609750000018,185.4546510003334,185.44609750000018,185.44609750000018,185.54674045799948,Incorrect! The correct answer is Speaker4. نادرست! پاسخ صحیح گوینده۴ است,1,0.0892318329997579,None,0,63,185.55071041700012,185.56330637500014,187.55045279200021,187.5725438749996,,112250,001,2024-07-01_18h02.16.024,5-26,2024.1.4,None,2024-07-01 18h02.20.902244 +0900,
Images/Speaker1.jpg,Images/Speaker2.jpg,Images/Speaker3.jpg,Images/Speaker4.jpg,Audio/Speaker1_En/P1-4-En.wav,Speaker1,گوینده ۱,,,,,,,,,0,0,0,19,0,63,63,13,187.5725438749996,,,,,,,,,,,,,,,,,,,,,,,,,,,,,,,,,,,,,,,,,,,,,187.55067379199954,187.5725438749996,187.5725438749996,187.5725438749996,187.5725438749996,187.56686674966684,187.5725438749996,187.5725438749996,187.74516841700006,Correct! صحیح است,1,0.1627209580001363,None,0,64,187.7488655420002,187.76009675000023,189.74389970799984,189.7675779579995,,112250,001,2024-07-01_18h02.16.024,5-26,2024.1.4,None,2024-07-01 18h02.20.902244 +0900,
Images/Speaker1.jpg,Images/Speaker2.jpg,Images/Speaker3.jpg,Images/Speaker4.jpg,Audio/Speaker2_En/P2-10-En.wav,Speaker2,گوینده۲,,,,,,,,,0,0,0,19,0,64,64,29,189.7675779579995,,,,,,,,,,,,,,,,,,,,,,,,,,,,,,,,,,,,,,,,,,,,,189.7448294579999,189.7675779579995,189.7675779579995,189.7675779579995,189.7675779579995,189.7763121663334,189.7675779579995,189.7675779579995,190.00152445799995,Incorrect! The correct answer is Speaker2. نادرست! پاسخ صحیح گوینده۲ است,1,0.23171437499968306,None,0,65,190.0057482080001,190.01830320799945,192.01326637500006,,,112250,001,2024-07-01_18h02.16.024,5-26,2024.1.4,None,2024-07-01 18h02.20.902244 +0900,
Images/Speaker1.jpg,Images/Speaker2.jpg,Images/Speaker3.jpg,Images/Speaker4.jpg,Audio/Speaker1_En/P1-3-En.wav,Speaker1,گوینده ۱,,,,,,,,,0,0,0,19,0,65,65,2,192.0390510420002,,,,,,,,,,,,,,,,,,,,,,,,,,,,,,,,,,,,,,,,,,,,,192.01389333299994,192.0390510420002,192.0390510420002,192.0390510420002,192.0390510420002,192.04642016633312,192.0390510420002,192.0390510420002,192.14998345799995,Correct! صحیح است,1,0.10971554100069625,None,0,66,192.15389637499993,192.1647631249998,194.15185070799998,194.17598137499954,,112250,001,2024-07-01_18h02.16.024,5-26,2024.1.4,None,2024-07-01 18h02.20.902244 +0900,
Images/Speaker1.jpg,Images/Speaker2.jpg,Images/Speaker3.jpg,Images/Speaker4.jpg,Audio/Speaker1_En/P1-19-En.wav,Speaker1,گوینده ۱,,,,,,,,,0,0,0,19,0,66,66,18,194.17598137499954,,,,,,,,,,,,,,,,,,,,,,,,,,,,,,,,,,,,,,,,,,,,,194.15201737499956,194.17598137499954,194.17598137499954,194.17598137499954,194.17598137499954,194.1849451253334,194.17598137499954,194.17598137499954,194.17665620800017,Correct! صحیح است,1,2.084227207999902,None,0,67,194.176994208,194.18546241700005,196.17033187499965,196.19304312500026,,112250,001,2024-07-01_18h02.16.024,5-26,2024.1.4,None,2024-07-01 18h02.20.902244 +0900,
Images/Speaker1.jpg,Images/Speaker2.jpg,Images/Speaker3.jpg,Images/Speaker4.jpg,Audio/Speaker1_En/P1-1-En.wav,Speaker1,گوینده ۱,,,,,,,,,0,0,0,19,0,67,67,0,196.19304312500026,,,,,,,,,,,,,,,,,,,,,,,,,,,,,,,,,,,,,,,,,,,,,196.17050608299996,196.19304312500026,196.19304312500026,196.19304312500026,196.19304312500026,196.2033486253336,196.19304312500026,196.19304312500026,196.23735874999966,Correct! صحیح است,1,0.04128458299965132,None,0,68,196.24126233300012,196.25171195799976,198.23529079200034,198.25808700000016,,112250,001,2024-07-01_18h02.16.024,5-26,2024.1.4,None,2024-07-01 18h02.20.902244 +0900,
Images/Speaker1.jpg,Images/Speaker2.jpg,Images/Speaker3.jpg,Images/Speaker4.jpg,Audio/Speaker2_En/P2-15-En.wav,Speaker2,گوینده۲,,,,,,,,,0,0,0,19,0,68,68,34,198.25808700000016,,,,,,,,,,,,,,,,,,,,,,,,,,,,,,,,,,,,,,,,,,,,,198.23549770799946,198.25808700000016,198.25808700000016,198.25808700000016,198.25808700000016,198.251728999667,198.25808700000016,198.25808700000016,198.3688640829996,Incorrect! The correct answer is Speaker2. نادرست! پاسخ صحیح گوینده۲ است,1,0.0990595419998499,None,0,69,198.37298929200006,198.38576687499972,200.37795904199993,,,112250,001,2024-07-01_18h02.16.024,5-26,2024.1.4,None,2024-07-01 18h02.20.902244 +0900,
Images/Speaker1.jpg,Images/Speaker2.jpg,Images/Speaker3.jpg,Images/Speaker4.jpg,Audio/Speaker1_En/P1-12-En.wav,Speaker1,گوینده ۱,,,,,,,,,0,0,0,19,0,69,69,11,200.406686583,,,,,,,,,,,,,,,,,,,,,,,,,,,,,,,,,,,,,,,,,,,,,200.37870754199957,200.406686583,200.406686583,200.406686583,200.406686583,200.41109700033354,200.406686583,200.406686583,200.40731695799968,Correct! صحیح است,1,2.135407082999336,None,0,70,200.40768129200023,200.4163486669995,202.4078093749995,202.43565504199978,,112250,001,2024-07-01_18h02.16.024,5-26,2024.1.4,None,2024-07-01 18h02.20.902244 +0900,
Images/Speaker1.jpg,Images/Speaker2.jpg,Images/Speaker3.jpg,Images/Speaker4.jpg,Audio/Speaker3_En/P3-10-En.wav,Speaker3,گوینده۳,,,,,,,,,0,0,0,19,0,70,70,49,202.43565504199978,,,,,,,,,,,,,,,,,,,,,,,,,,,,,,,,,,,,,,,,,,,,,202.40889683299974,202.43565504199978,202.43565504199978,202.43565504199978,202.43565504199978,202.44001095833352,202.43565504199978,202.43565504199978,202.66523016700012,Incorrect! The correct answer is Speaker3. نادرست! پاسخ صحیح گوینده۳ است,1,0.2218630839997786,None,0,71,202.67019691699988,202.68409583299945,204.6685318330001,204.69409474999975,,112250,001,2024-07-01_18h02.16.024,5-26,2024.1.4,None,2024-07-01 18h02.20.902244 +0900,
Images/Speaker1.jpg,Images/Speaker2.jpg,Images/Speaker3.jpg,Images/Speaker4.jpg,Audio/Speaker3_En/P3-7-En.wav,Speaker3,گوینده۳,,,,,,,,,0,0,0,19,0,71,71,46,204.69409474999975,,,,,,,,,,,,,,,,,,,,,,,,,,,,,,,,,,,,,,,,,,,,,204.6695171250003,204.69409474999975,204.69409474999975,204.69409474999975,204.69409474999975,204.70077600033306,204.69409474999975,204.69409474999975,204.9037289580001,Incorrect! The correct answer is Speaker3. نادرست! پاسخ صحیح گوینده۳ است,1,0.20044170900018798,None,0,72,204.90772141700018,204.91832412500025,206.9023501669999,206.92871058299988,,112250,001,2024-07-01_18h02.16.024,5-26,2024.1.4,None,2024-07-01 18h02.20.902244 +0900,
Images/Speaker1.jpg,Images/Speaker2.jpg,Images/Speaker3.jpg,Images/Speaker4.jpg,Audio/Speaker4_En/P4-13-En.wav,Speaker4,گوینده۴,,,,,,,,,0,0,0,19,0,72,72,72,206.92871058299988,,,,,,,,,,,,,,,,,,,,,,,,,,,,,,,,,,,,,,,,,,,,,206.90335779199995,206.92871058299988,206.92871058299988,206.92871058299988,206.92871058299988,206.9344701663336,206.92871058299988,206.92871058299988,207.13078691699957,Incorrect! The correct answer is Speaker4. نادرست! پاسخ صحیح گوینده۴ است,1,0.1945727079992139,None,0,73,207.13456829200004,207.1475688749997,209.13184137499957,209.1548538750003,,112250,001,2024-07-01_18h02.16.024,5-26,2024.1.4,None,2024-07-01 18h02.20.902244 +0900,
Images/Speaker1.jpg,Images/Speaker2.jpg,Images/Speaker3.jpg,Images/Speaker4.jpg,Audio/Speaker1_En/P1-9-En.wav,Speaker1,گوینده ۱,,,,,,,,,0,0,0,19,0,73,73,8,209.1548538750003,,,,,,,,,,,,,,,,,,,,,,,,,,,,,,,,,,,,,,,,,,,,,209.13201845799995,209.1548538750003,209.1548538750003,209.1548538750003,209.1548538750003,209.16494820833356,209.1548538750003,209.1548538750003,209.28164979200028,Correct! صحیح است,1,0.12181954200059408,None,0,74,209.28554020799947,209.29655704200013,211.29226633300004,,,112250,001,2024-07-01_18h02.16.024,5-26,2024.1.4,None,2024-07-01 18h02.20.902244 +0900,
Images/Speaker1.jpg,Images/Speaker2.jpg,Images/Speaker3.jpg,Images/Speaker4.jpg,Audio/Speaker4_En/P4-11-En.wav,Speaker4,گوینده۴,,,,,,,,,0,0,0,19,0,74,74,70,211.31522250000035,,,,,,,,,,,,,,,,,,,,,,,,,,,,,,,,,,,,,,,,,,,,,211.29242774999966,211.31522250000035,211.31522250000035,211.31522250000035,211.31522250000035,211.3089005416662,211.31522250000035,211.31522250000035,211.466545667,Incorrect! The correct answer is Speaker4. نادرست! پاسخ صحیح گوینده۴ است,1,0.1413259159999143,None,0,75,211.47055124999952,211.4830012499997,213.46765058300025,213.4910449580002,,112250,001,2024-07-01_18h02.16.024,5-26,2024.1.4,None,2024-07-01 18h02.20.902244 +0900,
Images/Speaker1.jpg,Images/Speaker2.jpg,Images/Speaker3.jpg,Images/Speaker4.jpg,Audio/Speaker2_En/P2-14-En.wav,Speaker2,گوینده۲,,,,,,,,,0,0,0,19,0,75,75,33,213.4910449580002,,,,,,,,,,,,,,,,,,,,,,,,,,,,,,,,,,,,,,,,,,,,,213.4678397079997,213.4910449580002,213.4910449580002,213.4910449580002,213.4910449580002,213.50077062533325,213.4910449580002,213.4910449580002,213.50197579199994,Incorrect! The correct answer is Speaker2. نادرست! پاسخ صحیح گوینده۲ است,1,0.009754665999935241,None,0,76,213.506183083,213.51837937500022,215.5060839580001,215.53025329199954,,112250,001,2024-07-01_18h02.16.024,5-26,2024.1.4,None,2024-07-01 18h02.20.902244 +0900,
Images/Speaker1.jpg,Images/Speaker2.jpg,Images/Speaker3.jpg,Images/Speaker4.jpg,Audio/Speaker4_En/P4-20-En.wav,Speaker4,گوینده۴,,,,,,,,,0,0,0,19,0,76,76,79,215.53025329199954,,,,,,,,,,,,,,,,,,,,,,,,,,,,,,,,,,,,,,,,,,,,,215.5062411250001,215.53025329199954,215.53025329199954,215.53025329199954,215.53025329199954,215.53920991633328,215.53025329199954,215.53025329199954,215.7094772499995,Incorrect! The correct answer is Speaker4. نادرست! پاسخ صحیح گوینده۴ است,1,0.1736217919997216,None,0,77,215.71337008299997,215.72617045799961,217.71012108299965,217.735280375,,112250,001,2024-07-01_18h02.16.024,5-26,2024.1.4,None,2024-07-01 18h02.20.902244 +0900,
Images/Speaker1.jpg,Images/Speaker2.jpg,Images/Speaker3.jpg,Images/Speaker4.jpg,Audio/Speaker2_En/P2-8-En.wav,Speaker2,گوینده۲,,,,,,,,,0,0,0,19,0,77,77,27,217.735280375,,,,,,,,,,,,,,,,,,,,,,,,,,,,,,,,,,,,,,,,,,,,,217.7108879999996,217.735280375,217.735280375,217.735280375,217.735280375,217.74271900033324,217.735280375,217.735280375,217.84056933299962,Incorrect! The correct answer is Speaker2. نادرست! پاسخ صحیح گوینده۲ است,1,0.10237383300045622,None,0,78,217.8443347499997,217.85593983299987,219.84041824999986,219.86428120799974,,112250,001,2024-07-01_18h02.16.024,5-26,2024.1.4,None,2024-07-01 18h02.20.902244 +0900,
Images/Speaker1.jpg,Images/Speaker2.jpg,Images/Speaker3.jpg,Images/Speaker4.jpg,Audio/Speaker3_En/P3-4-En.wav,Speaker3,گوینده۳,,,,,,,,,0,0,0,19,0,78,78,43,219.86428120799974,,,,,,,,,,,,,,,,,,,,,,,,,,,,,,,,,,,,,,,,,,,,,219.84058045799975,219.86428120799974,219.86428120799974,219.86428120799974,219.86428120799974,219.87349329133355,219.86428120799974,219.86428120799974,219.9312404579996,Incorrect! The correct answer is Speaker3. نادرست! پاسخ صحیح گوینده۳ است,1,0.06556195800021669,None,0,79,219.9352145419998,219.9474669579995,221.9414406249998,,,112250,001,2024-07-01_18h02.16.024,5-26,2024.1.4,None,2024-07-01 18h02.20.902244 +0900,
Images/Speaker1.jpg,Images/Speaker2.jpg,Images/Speaker3.jpg,Images/Speaker4.jpg,Audio/Speaker4_En/P4-2-En.wav,Speaker4,گوینده۴,,,,,,,,,0,0,0,19,0,79,79,61,221.96729979199972,,,,,,,,,,,,,,,,,,,,,,,,,,,,,,,,,,,,,,,,,,,,,221.9420229999996,221.96729979199972,221.96729979199972,221.96729979199972,221.96729979199972,221.97457187533342,221.96729979199972,221.96729979199972,222.92076045799968,Incorrect! The correct answer is Speaker4. نادرست! پاسخ صحیح گوینده۴ است,1,0.9494093329994939,None,0,80,222.92510333300015,222.93786483300028,224.92428570799984,,,112250,001,2024-07-01_18h02.16.024,5-26,2024.1.4,None,2024-07-01 18h02.20.902244 +0900,
,,,,,,,,,,,,,,,,,,,,,,,,,,,,,,,,,,,,,,,,,,,,,,,,,,,,,,,,,,,,,,,,,,,,,,,,,,,,,,,,,,,,,,,224.9245229170001,,,,,,,,
