SpeakerImage1,SpeakerImage2,SpeakerImage3,SpeakerImage4,TrainingSound,EnglishCorrectAnswer,PersianCorrectAnswer,SpeakerPhoto1,SpeakerPhoto2,SpeakerPhoto3,SpeakerPhoto4,TestingSound,EnglishCorrectResponse,PersianCorrectResponse,TrainingLoopGroup1.thisRepN,TrainingLoopGroup1.thisTrialN,TrainingLoopGroup1.thisN,TrainingLoopGroup1.thisIndex,TrainingLoopGroup2.thisRepN,TrainingLoopGroup2.thisTrialN,TrainingLoopGroup2.thisN,TrainingLoopGroup2.thisIndex,TrainingLoopGroup3.thisRepN,TrainingLoopGroup3.thisTrialN,TrainingLoopGroup3.thisN,TrainingLoopGroup3.thisIndex,testPhase1Loop.thisRepN,testPhase1Loop.thisTrialN,testPhase1Loop.thisN,testPhase1Loop.thisIndex,testPhase2Loop.thisRepN,testPhase2Loop.thisTrialN,testPhase2Loop.thisN,testPhase2Loop.thisIndex,testPhase3Loop.thisRepN,testPhase3Loop.thisTrialN,testPhase3Loop.thisN,testPhase3Loop.thisIndex,thisRow.t,notes,trial.started,trial.stopped,GroupSelection.started,GroupInstructions.started,key_resp.started,GroupSelection.stopped,key_resp.keys,key_resp.rt,key_resp.duration,Introduction.started,text_2.started,image.started,sound_7.started,text_4.started,text_2.stopped,sound_8.started,image.stopped,text_4.stopped,image_7.started,sound_9.started,text_5.started,sound_10.started,image_7.stopped,text_5.stopped,image_8.started,sound_11.started,text_6.started,sound_12.started,image_8.stopped,text_6.stopped,image_9.started,sound_13.started,text_7.started,sound_14.started,image_9.stopped,text_7.stopped,Introduction.stopped,Instructions.started,InstructionText.started,InstructionText.stopped,Instructions.stopped,InitializeExperiment.started,InitializeExperiment.stopped,TrainingGroup3.started,SpeakerPicture3.started,image_15.started,image_16.started,image_17.started,Sound3.started,Instruction3.started,Response3.started,TrainingGroup3.stopped,feedbackText,Response3.keys,Response3.rt,Response3.duration,correct_responses_group3,total_trials_group3,FeedbackRoutine3.started,FeedbackText3.started,FeedbackRoutine3.stopped,FeedbackText3.stopped,CheckAccuracy.started,accuracy_group1,accuracy_group2,accuracy_group3,proceed_to_test,CheckAccuracy.stopped,WelcomeTest.started,text_12.started,text_12.stopped,WelcomeTest.stopped,TestPhase1.started,TestPhase1.stopped,test1_response_keyboard.keys,test1_response,test1_image_file1,test1_image_file2,test1_image_file3,test1_image_file4,test1_sound_file,english_correct_answer,persian_correct_answer,TestPhase2.started,TestPhase2.stopped,test2_response_keyboard.keys,test2_response,test2_image_file1,test2_image_file2,test2_image_file3,test2_image_file4,test2_sound_file,TestPhase3.started,TestPhase3.stopped,test3_response_keyboard.keys,test3_response,test3_image_file1,test3_image_file2,test3_image_file3,test3_image_file4,test3_sound_file,participant,session,date,expName,psychopyVersion,frameRate,expStart,
,,,,,,,,,,,,,,,,,,,,,,,,,,,,,,,,,,,,,,,,0.009630833003029693,0.009967166002752492,,,,,,,,,,,,,,,,,,,,,,,,,,,,,,,,,,,,,,,,,,,,,,,,,,,,,,,,,,,,,,,,,,,,,,,,,,,,,,,,,,,,,,,,,,,,,,,,,,,,112639,001,2024-06-30_17h30.29.801,5-24,2024.1.4,None,2024-06-30 17h30.34.868528 +0900,
,,,,,,,,,,,,,,,,,,,,,,,,,,,,,,,,,,,,,,,,,,0.009985374999814667,0.014419625000300584,0.014419625000300584,1.5874702080000134,3,1.5376162079992355,None,,,,,,,,,,,,,,,,,,,,,,,,,,,,,,,,,,,,,,,,,,,,,,,,,,,,,,,,,,,,,,,,,,,,,,,,,,,,,,,,,,,,,,,,,,,,,112639,001,2024-06-30_17h30.29.801,5-24,2024.1.4,None,2024-06-30 17h30.34.868528 +0900,
,,,,,,,,,,,,,,,,,,,,,,,,,,,,,,,,,,,,,,,,,,,,,,,,,1.5874993750003341,1.6402107080029964,6.587840291002067,6.597456832667619,6.587840291002067,6.635022083002696,11.59777529166992,16.57999062500312,16.57999062500312,16.57999062500312,16.591478374666863,16.57999062500312,21.588810666668238,26.56743175000156,26.56743175000156,26.587383625002985,26.598899124667028,26.587383625002985,31.596278582667097,36.576791250001406,36.576791250001406,36.576791250001406,36.58742229166843,36.576791250001406,41.60026012466939,46.57506183300211,46.57506183300211,46.56119058300101,,,,,,,,,,,,,,,,,,,,,,,,,,,,,,,,,,,,,,,,,,,,,,,,,,,,,,,,,,,,,,,,,112639,001,2024-06-30_17h30.29.801,5-24,2024.1.4,None,2024-06-30 17h30.34.868528 +0900,
,,,,,,,,,,,,,,,,,,,,,,,,,,,,,,,,,,,,,,,,,,,,,,,,,,,,,,,,,,,,,,,,,,,,,,,,,,,,,46.56120470800306,46.58124725000016,47.65835933299968,47.574625208002544,,,,,,,,,,,,,,,,,,,,,,,,,,,,,,,,,,,,,,,,,,,,,,,,,,,,,,,,,,,,,112639,001,2024-06-30_17h30.29.801,5-24,2024.1.4,None,2024-06-30 17h30.34.868528 +0900,
,,,,,,,,,,,,,,,,,,,,,,,,,,,,,,,,,,,,,,,,,,,,,,,,,,,,,,,,,,,,,,,,,,,,,,,,,,,,,,,,,47.57466054100223,47.57494600000064,,,,,,,,,,,,,,,,,,,,,,,,,,,,,,,,,,,,,,,,,,,,,,,,,,,,,,,,,,,112639,001,2024-06-30_17h30.29.801,5-24,2024.1.4,None,2024-06-30 17h30.34.868528 +0900,
Images/Speaker1.jpg,Images/Speaker2.jpg,Images/Speaker3.jpg,Images/Speaker4.jpg,Audio/Speaker4_En/P4-11-En.wav,Speaker4,گوینده۴,,,,,,,,,,,,,,,,0,0,0,70,,,,,,,,,,,,,47.65835933299968,,,,,,,,,,,,,,,,,,,,,,,,,,,,,,,,,,,,,,,,,,,,,47.630541875001654,47.65835933299968,47.65835933299968,47.65835933299968,47.65835933299968,47.65692383333347,47.65835933299968,47.65835933299968,48.4439393749999,Incorrect! The correct answer is Speaker4. نادرست! پاسخ صحیح گوینده۴ است,1,0.7797198339976603,None,0,1,48.44847520800249,48.4617622500009,50.45716929100308,,,,,,,,,,,,,,,,,,,,,,,,,,,,,,,,,,,,,,,,,112639,001,2024-06-30_17h30.29.801,5-24,2024.1.4,None,2024-06-30 17h30.34.868528 +0900,
Images/Speaker1.jpg,Images/Speaker2.jpg,Images/Speaker3.jpg,Images/Speaker4.jpg,Audio/Speaker4_En/P4-20-En.wav,Speaker4,گوینده۴,,,,,,,,,,,,,,,,0,1,1,79,,,,,,,,,,,,,50.4797315830001,,,,,,,,,,,,,,,,,,,,,,,,,,,,,,,,,,,,,,,,,,,,,50.457335708000755,50.4797315830001,50.4797315830001,50.4797315830001,50.4797315830001,50.473795082667735,50.4797315830001,50.4797315830001,50.82316666600309,Incorrect! The correct answer is Speaker4. نادرست! پاسخ صحیح گوینده۴ است,1,0.3346081250019779,None,0,2,50.82730650000303,50.84542912500183,52.83484545800093,,,,,,,,,,,,,,,,,,,,,,,,,,,,,,,,,,,,,,,,,112639,001,2024-06-30_17h30.29.801,5-24,2024.1.4,None,2024-06-30 17h30.34.868528 +0900,
Images/Speaker1.jpg,Images/Speaker2.jpg,Images/Speaker3.jpg,Images/Speaker4.jpg,Audio/Speaker4_En/P4-6-En.wav,Speaker4,گوینده۴,,,,,,,,,,,,,,,,0,2,2,65,,,,,,,,,,,,,52.86156295800174,,,,,,,,,,,,,,,,,,,,,,,,,,,,,,,,,,,,,,,,,,,,,52.83547370800079,52.86156295800174,52.86156295800174,52.86156295800174,52.86156295800174,52.86799999933331,52.86156295800174,52.86156295800174,53.415109000001394,Incorrect! The correct answer is Speaker4. نادرست! پاسخ صحیح گوینده۴ است,1,0.5518184579996159,None,0,3,53.42011870799979,53.43318858299972,55.424787541000114,,,,,,,,,,,,,,,,,,,,,,,,,,,,,,,,,,,,,,,,,112639,001,2024-06-30_17h30.29.801,5-24,2024.1.4,None,2024-06-30 17h30.34.868528 +0900,
Images/Speaker1.jpg,Images/Speaker2.jpg,Images/Speaker3.jpg,Images/Speaker4.jpg,Audio/Speaker1_En/P1-19-En.wav,Speaker1,گوینده ۱,,,,,,,,,,,,,,,,0,3,3,18,,,,,,,,,,,,,55.4502387499997,,,,,,,,,,,,,,,,,,,,,,,,,,,,,,,,,,,,,,,,,,,,,55.42539170800228,55.4502387499997,55.4502387499997,55.4502387499997,55.4502387499997,55.457918458334944,55.4502387499997,55.4502387499997,55.45087095800045,Correct! صحیح است,1,2.52429637500245,None,0,4,55.45132658300281,55.46089550000033,57.444023500000185,57.467080458001874,,,,,,,,,,,,,,,,,,,,,,,,,,,,,,,,,,,,,,,,112639,001,2024-06-30_17h30.29.801,5-24,2024.1.4,None,2024-06-30 17h30.34.868528 +0900,
Images/Speaker1.jpg,Images/Speaker2.jpg,Images/Speaker3.jpg,Images/Speaker4.jpg,Audio/Speaker3_En/P3-10-En.wav,Speaker3,گوینده۳,,,,,,,,,,,,,,,,0,4,4,49,,,,,,,,,,,,,57.467080458001874,,,,,,,,,,,,,,,,,,,,,,,,,,,,,,,,,,,,,,,,,,,,,57.444189958001516,57.467080458001874,57.467080458001874,57.467080458001874,57.467080458001874,57.47711845833376,57.467080458001874,57.467080458001874,57.72628804100168,Incorrect! The correct answer is Speaker3. نادرست! پاسخ صحیح گوینده۳ است,1,0.24741366699890932,None,0,5,57.73043150000012,57.74269929100046,59.732497500001045,,,,,,,,,,,,,,,,,,,,,,,,,,,,,,,,,,,,,,,,,112639,001,2024-06-30_17h30.29.801,5-24,2024.1.4,None,2024-06-30 17h30.34.868528 +0900,
Images/Speaker1.jpg,Images/Speaker2.jpg,Images/Speaker3.jpg,Images/Speaker4.jpg,Audio/Speaker4_En/P4-5-En.wav,Speaker4,گوینده۴,,,,,,,,,,,,,,,,0,5,5,64,,,,,,,,,,,,,59.75877308300187,,,,,,,,,,,,,,,,,,,,,,,,,,,,,,,,,,,,,,,,,,,,,59.73316524999973,59.75877308300187,59.75877308300187,59.75877308300187,59.75877308300187,59.76568837433345,59.75877308300187,59.75877308300187,59.99982295800146,Incorrect! The correct answer is Speaker4. نادرست! پاسخ صحیح گوینده۴ است,1,0.23463129199808463,None,0,6,60.00471216600272,60.01861279100194,62.009426791002625,,,,,,,,,,,,,,,,,,,,,,,,,,,,,,,,,,,,,,,,,112639,001,2024-06-30_17h30.29.801,5-24,2024.1.4,None,2024-06-30 17h30.34.868528 +0900,
Images/Speaker1.jpg,Images/Speaker2.jpg,Images/Speaker3.jpg,Images/Speaker4.jpg,Audio/Speaker1_En/P1-5-En.wav,Speaker1,گوینده ۱,,,,,,,,,,,,,,,,0,6,6,4,,,,,,,,,,,,,62.03567133300021,,,,,,,,,,,,,,,,,,,,,,,,,,,,,,,,,,,,,,,,,,,,,62.010024708000856,62.03567133300021,62.03567133300021,62.03567133300021,62.03567133300021,62.04259141633568,62.03567133300021,62.03567133300021,62.23362100000304,Correct! صحیح است,1,0.19013158300003852,None,0,7,62.237664166001196,62.24592470800053,64.2299149160026,64.25594541600003,,,,,,,,,,,,,,,,,,,,,,,,,,,,,,,,,,,,,,,,112639,001,2024-06-30_17h30.29.801,5-24,2024.1.4,None,2024-06-30 17h30.34.868528 +0900,
Images/Speaker1.jpg,Images/Speaker2.jpg,Images/Speaker3.jpg,Images/Speaker4.jpg,Audio/Speaker3_En/P3-7-En.wav,Speaker3,گوینده۳,,,,,,,,,,,,,,,,0,7,7,46,,,,,,,,,,,,,64.25594541600003,,,,,,,,,,,,,,,,,,,,,,,,,,,,,,,,,,,,,,,,,,,,,64.23050225000043,64.25594541600003,64.25594541600003,64.25594541600003,64.25594541600003,64.26244233333321,64.25594541600003,64.25594541600003,64.32166754100035,Incorrect! The correct answer is Speaker3. نادرست! پاسخ صحیح گوینده۳ است,1,0.05530758299937588,None,0,8,64.32576287499978,64.33835379100128,66.33076916600112,,,,,,,,,,,,,,,,,,,,,,,,,,,,,,,,,,,,,,,,,112639,001,2024-06-30_17h30.29.801,5-24,2024.1.4,None,2024-06-30 17h30.34.868528 +0900,
Images/Speaker1.jpg,Images/Speaker2.jpg,Images/Speaker3.jpg,Images/Speaker4.jpg,Audio/Speaker3_En/P3-19-En.wav,Speaker3,گوینده۳,,,,,,,,,,,,,,,,0,8,8,58,,,,,,,,,,,,,66.35536475000117,,,,,,,,,,,,,,,,,,,,,,,,,,,,,,,,,,,,,,,,,,,,,66.33093991600254,66.35536475000117,66.35536475000117,66.35536475000117,66.35536475000117,66.36406624933491,66.35536475000117,66.35536475000117,66.51744616600263,Incorrect! The correct answer is Speaker3. نادرست! پاسخ صحیح گوینده۳ است,1,0.15809566600000835,None,0,9,66.52173495800162,66.53395295800146,68.51737137500095,68.54469470800177,,,,,,,,,,,,,,,,,,,,,,,,,,,,,,,,,,,,,,,,112639,001,2024-06-30_17h30.29.801,5-24,2024.1.4,None,2024-06-30 17h30.34.868528 +0900,
Images/Speaker1.jpg,Images/Speaker2.jpg,Images/Speaker3.jpg,Images/Speaker4.jpg,Audio/Speaker2_En/P2-15-En.wav,Speaker2,گوینده۲,,,,,,,,,,,,,,,,0,9,9,34,,,,,,,,,,,,,68.54469470800177,,,,,,,,,,,,,,,,,,,,,,,,,,,,,,,,,,,,,,,,,,,,,68.51831783300076,68.54469470800177,68.54469470800177,68.54469470800177,68.54469470800177,68.54982099933525,68.54469470800177,68.54469470800177,68.55627304100199,Incorrect! The correct answer is Speaker2. نادرست! پاسخ صحیح گوینده۲ است,1,0.008546082997781923,None,0,10,68.56017695800256,68.57244254100078,70.56464200000119,,,,,,,,,,,,,,,,,,,,,,,,,,,,,,,,,,,,,,,,,112639,001,2024-06-30_17h30.29.801,5-24,2024.1.4,None,2024-06-30 17h30.34.868528 +0900,
Images/Speaker1.jpg,Images/Speaker2.jpg,Images/Speaker3.jpg,Images/Speaker4.jpg,Audio/Speaker2_En/P2-12-En.wav,Speaker2,گوینده۲,,,,,,,,,,,,,,,,0,10,10,31,,,,,,,,,,,,,70.58743962500012,,,,,,,,,,,,,,,,,,,,,,,,,,,,,,,,,,,,,,,,,,,,,70.56481033300224,70.58743962500012,70.58743962500012,70.58743962500012,70.58743962500012,70.5812720416691,70.58743962500012,70.58743962500012,70.79603866600155,Incorrect! The correct answer is Speaker2. نادرست! پاسخ صحیح گوینده۲ است,1,0.20658999999795924,None,0,11,70.80019787499987,70.81550045800032,72.79952112500177,72.82660420800312,,,,,,,,,,,,,,,,,,,,,,,,,,,,,,,,,,,,,,,,112639,001,2024-06-30_17h30.29.801,5-24,2024.1.4,None,2024-06-30 17h30.34.868528 +0900,
Images/Speaker1.jpg,Images/Speaker2.jpg,Images/Speaker3.jpg,Images/Speaker4.jpg,Audio/Speaker1_En/P1-18-En.wav,Speaker1,گوینده ۱,,,,,,,,,,,,,,,,0,11,11,17,,,,,,,,,,,,,72.82660420800312,,,,,,,,,,,,,,,,,,,,,,,,,,,,,,,,,,,,,,,,,,,,,72.8001017500028,72.82660420800312,72.82660420800312,72.82660420800312,72.82660420800312,72.83191004133599,72.82660420800312,72.82660420800312,72.9994378750016,Correct! صحیح است,1,0.1675388749972626,None,0,12,73.00363458300126,73.0142736250018,75.00768487500318,,,,,,,,,,,,,,,,,,,,,,,,,,,,,,,,,,,,,,,,,112639,001,2024-06-30_17h30.29.801,5-24,2024.1.4,None,2024-06-30 17h30.34.868528 +0900,
Images/Speaker1.jpg,Images/Speaker2.jpg,Images/Speaker3.jpg,Images/Speaker4.jpg,Audio/Speaker2_En/P2-20-En.wav,Speaker2,گوینده۲,,,,,,,,,,,,,,,,0,12,12,39,,,,,,,,,,,,,75.03254337500039,,,,,,,,,,,,,,,,,,,,,,,,,,,,,,,,,,,,,,,,,,,,,75.00833083300313,75.03254337500039,75.03254337500039,75.03254337500039,75.03254337500039,75.04082416633585,75.03254337500039,75.03254337500039,75.37797433300148,Incorrect! The correct answer is Speaker2. نادرست! پاسخ صحیح گوینده۲ است,1,0.3423065420029161,None,0,13,75.3821182080028,75.39501766600006,77.3827349580024,,,,,,,,,,,,,,,,,,,,,,,,,,,,,,,,,,,,,,,,,112639,001,2024-06-30_17h30.29.801,5-24,2024.1.4,None,2024-06-30 17h30.34.868528 +0900,
Images/Speaker1.jpg,Images/Speaker2.jpg,Images/Speaker3.jpg,Images/Speaker4.jpg,Audio/Speaker3_En/P3-12-En.wav,Speaker3,گوینده۳,,,,,,,,,,,,,,,,0,13,13,51,,,,,,,,,,,,,77.40568970800086,,,,,,,,,,,,,,,,,,,,,,,,,,,,,,,,,,,,,,,,,,,,,77.38294170800145,77.40568970800086,77.40568970800086,77.40568970800086,77.40568970800086,77.39935524966883,77.40568970800086,77.40568970800086,77.77973329100132,Incorrect! The correct answer is Speaker3. نادرست! پاسخ صحیح گوینده۳ است,1,0.3668203339984757,None,0,14,77.78393258300275,77.7967157910025,79.78957287500089,,,,,,,,,,,,,,,,,,,,,,,,,,,,,,,,,,,,,,,,,112639,001,2024-06-30_17h30.29.801,5-24,2024.1.4,None,2024-06-30 17h30.34.868528 +0900,
Images/Speaker1.jpg,Images/Speaker2.jpg,Images/Speaker3.jpg,Images/Speaker4.jpg,Audio/Speaker4_En/P4-14-En.wav,Speaker4,گوینده۴,,,,,,,,,,,,,,,,0,14,14,73,,,,,,,,,,,,,79.81459200000245,,,,,,,,,,,,,,,,,,,,,,,,,,,,,,,,,,,,,,,,,,,,,79.789731416,79.81459200000245,79.81459200000245,79.81459200000245,79.81459200000245,79.82286799933402,79.81459200000245,79.81459200000245,80.09030125000208,Incorrect! The correct answer is Speaker4. نادرست! پاسخ صحیح گوینده۴ است,1,0.26741908399708336,None,0,15,80.09429937500317,80.10723454100298,82.09433066600104,82.12089570800163,,,,,,,,,,,,,,,,,,,,,,,,,,,,,,,,,,,,,,,,112639,001,2024-06-30_17h30.29.801,5-24,2024.1.4,None,2024-06-30 17h30.34.868528 +0900,
Images/Speaker1.jpg,Images/Speaker2.jpg,Images/Speaker3.jpg,Images/Speaker4.jpg,Audio/Speaker2_En/P2-4-En.wav,Speaker2,گوینده۲,,,,,,,,,,,,,,,,0,15,15,23,,,,,,,,,,,,,82.12089570800163,,,,,,,,,,,,,,,,,,,,,,,,,,,,,,,,,,,,,,,,,,,,,82.0953338750005,82.12089570800163,82.12089570800163,82.12089570800163,82.12089570800163,82.12666270833554,82.12089570800163,82.12089570800163,82.37934804100223,Incorrect! The correct answer is Speaker2. نادرست! پاسخ صحیح گوینده۲ است,1,0.25336158299978706,None,0,16,82.38404066600197,82.39849587500066,84.38436170800196,84.4093924580011,,,,,,,,,,,,,,,,,,,,,,,,,,,,,,,,,,,,,,,,112639,001,2024-06-30_17h30.29.801,5-24,2024.1.4,None,2024-06-30 17h30.34.868528 +0900,
Images/Speaker1.jpg,Images/Speaker2.jpg,Images/Speaker3.jpg,Images/Speaker4.jpg,Audio/Speaker3_En/P3-4-En.wav,Speaker3,گوینده۳,,,,,,,,,,,,,,,,0,16,16,43,,,,,,,,,,,,,84.4093924580011,,,,,,,,,,,,,,,,,,,,,,,,,,,,,,,,,,,,,,,,,,,,,84.38519762500073,84.4093924580011,84.4093924580011,84.4093924580011,84.4093924580011,84.41679087433343,84.4093924580011,84.4093924580011,84.63452145799965,Incorrect! The correct answer is Speaker3. نادرست! پاسخ صحیح گوینده۳ است,1,0.21190916699924855,None,0,17,84.63864808300059,84.65092566600288,86.63543770800243,86.65900845800206,,,,,,,,,,,,,,,,,,,,,,,,,,,,,,,,,,,,,,,,112639,001,2024-06-30_17h30.29.801,5-24,2024.1.4,None,2024-06-30 17h30.34.868528 +0900,
Images/Speaker1.jpg,Images/Speaker2.jpg,Images/Speaker3.jpg,Images/Speaker4.jpg,Audio/Speaker4_En/P4-16-En.wav,Speaker4,گوینده۴,,,,,,,,,,,,,,,,0,17,17,75,,,,,,,,,,,,,86.65900845800206,,,,,,,,,,,,,,,,,,,,,,,,,,,,,,,,,,,,,,,,,,,,,86.6355865000005,86.65900845800206,86.65900845800206,86.65900845800206,86.65900845800206,86.66856691633487,86.65900845800206,86.65900845800206,87.15509366600236,Incorrect! The correct answer is Speaker4. نادرست! پاسخ صحیح گوینده۴ است,1,0.49015808300100616,None,0,18,87.1590221660008,87.17175975000282,89.15885558300215,89.18539612500172,,,,,,,,,,,,,,,,,,,,,,,,,,,,,,,,,,,,,,,,112639,001,2024-06-30_17h30.29.801,5-24,2024.1.4,None,2024-06-30 17h30.34.868528 +0900,
Images/Speaker1.jpg,Images/Speaker2.jpg,Images/Speaker3.jpg,Images/Speaker4.jpg,Audio/Speaker1_En/P1-12-En.wav,Speaker1,گوینده ۱,,,,,,,,,,,,,,,,0,18,18,11,,,,,,,,,,,,,89.18539612500172,,,,,,,,,,,,,,,,,,,,,,,,,,,,,,,,,,,,,,,,,,,,,89.15936733300259,89.18539612500172,89.18539612500172,89.18539612500172,89.18539612500172,89.19142483333465,89.18539612500172,89.18539612500172,89.34619595800177,Correct! صحیح است,1,0.15912512500290177,None,0,19,89.35027725000327,89.36141212500297,91.34971316600058,91.37332004100244,,,,,,,,,,,,,,,,,,,,,,,,,,,,,,,,,,,,,,,,112639,001,2024-06-30_17h30.29.801,5-24,2024.1.4,None,2024-06-30 17h30.34.868528 +0900,
Images/Speaker1.jpg,Images/Speaker2.jpg,Images/Speaker3.jpg,Images/Speaker4.jpg,Audio/Speaker2_En/P2-3-En.wav,Speaker2,گوینده۲,,,,,,,,,,,,,,,,0,19,19,22,,,,,,,,,,,,,91.37332004100244,,,,,,,,,,,,,,,,,,,,,,,,,,,,,,,,,,,,,,,,,,,,,91.35022037500312,91.37332004100244,91.37332004100244,91.37332004100244,91.37332004100244,91.38200433333307,91.37332004100244,91.37332004100244,91.4235047910006,Incorrect! The correct answer is Speaker2. نادرست! پاسخ صحیح گوینده۲ است,1,0.049215166000067256,None,0,20,91.42778462500064,91.44018508299996,93.4242722500021,93.44675724999979,,,,,,,,,,,,,,,,,,,,,,,,,,,,,,,,,,,,,,,,112639,001,2024-06-30_17h30.29.801,5-24,2024.1.4,None,2024-06-30 17h30.34.868528 +0900,
Images/Speaker1.jpg,Images/Speaker2.jpg,Images/Speaker3.jpg,Images/Speaker4.jpg,Audio/Speaker3_En/P3-5-En.wav,Speaker3,گوینده۳,,,,,,,,,,,,,,,,0,20,20,44,,,,,,,,,,,,,93.44675724999979,,,,,,,,,,,,,,,,,,,,,,,,,,,,,,,,,,,,,,,,,,,,,93.42444466600136,93.44675724999979,93.44675724999979,93.44675724999979,93.44675724999979,93.4406742076683,93.44675724999979,93.44675724999979,93.72830429100213,Incorrect! The correct answer is Speaker3. نادرست! پاسخ صحیح گوینده۳ است,1,0.2805659999976342,None,0,21,93.73217883300094,93.74489591600286,95.73144579099971,95.75418937500217,,,,,,,,,,,,,,,,,,,,,,,,,,,,,,,,,,,,,,,,112639,001,2024-06-30_17h30.29.801,5-24,2024.1.4,None,2024-06-30 17h30.34.868528 +0900,
Images/Speaker1.jpg,Images/Speaker2.jpg,Images/Speaker3.jpg,Images/Speaker4.jpg,Audio/Speaker4_En/P4-3-En.wav,Speaker4,گوینده۴,,,,,,,,,,,,,,,,0,21,21,62,,,,,,,,,,,,,95.75418937500217,,,,,,,,,,,,,,,,,,,,,,,,,,,,,,,,,,,,,,,,,,,,,95.73160075000123,95.75418937500217,95.75418937500217,95.75418937500217,95.75418937500217,95.74785933266709,95.75418937500217,95.75418937500217,97.97388708300059,Correct! صحیح است,4,2.208399792001728,None,0,22,97.97783466600231,97.98852195800282,99.97638262500186,100.00245050000012,,,,,,,,,,,,,,,,,,,,,,,,,,,,,,,,,,,,,,,,112639,001,2024-06-30_17h30.29.801,5-24,2024.1.4,None,2024-06-30 17h30.34.868528 +0900,
Images/Speaker1.jpg,Images/Speaker2.jpg,Images/Speaker3.jpg,Images/Speaker4.jpg,Audio/Speaker2_En/P2-9-En.wav,Speaker2,گوینده۲,,,,,,,,,,,,,,,,0,22,22,28,,,,,,,,,,,,,100.00245050000012,,,,,,,,,,,,,,,,,,,,,,,,,,,,,,,,,,,,,,,,,,,,,99.97726029100158,100.00245050000012,100.00245050000012,100.00245050000012,100.00245050000012,100.00890537433636,100.00245050000012,100.00245050000012,100.51188512500084,Incorrect! The correct answer is Speaker2. نادرست! پاسخ صحیح گوینده۲ است,1,0.5065253749999101,None,0,23,100.5156487910026,100.52850616599972,102.5238902500023,,,,,,,,,,,,,,,,,,,,,,,,,,,,,,,,,,,,,,,,,112639,001,2024-06-30_17h30.29.801,5-24,2024.1.4,None,2024-06-30 17h30.34.868528 +0900,
Images/Speaker1.jpg,Images/Speaker2.jpg,Images/Speaker3.jpg,Images/Speaker4.jpg,Audio/Speaker2_En/P2-16-En.wav,Speaker2,گوینده۲,,,,,,,,,,,,,,,,0,23,23,35,,,,,,,,,,,,,102.55057029100135,,,,,,,,,,,,,,,,,,,,,,,,,,,,,,,,,,,,,,,,,,,,,102.52464375000272,102.55057029100135,102.55057029100135,102.55057029100135,102.55057029100135,102.55706258333569,102.55057029100135,102.55057029100135,102.9397852080001,Incorrect! The correct answer is Speaker2. نادرست! پاسخ صحیح گوینده۲ است,1,0.3843564160015376,None,0,24,102.94378208300259,102.95642054100244,104.9480291660002,,,,,,,,,,,,,,,,,,,,,,,,,,,,,,,,,,,,,,,,,112639,001,2024-06-30_17h30.29.801,5-24,2024.1.4,None,2024-06-30 17h30.34.868528 +0900,
Images/Speaker1.jpg,Images/Speaker2.jpg,Images/Speaker3.jpg,Images/Speaker4.jpg,Audio/Speaker1_En/P1-2-En.wav,Speaker1,گوینده ۱,,,,,,,,,,,,,,,,0,24,24,1,,,,,,,,,,,,,104.97472720800215,,,,,,,,,,,,,,,,,,,,,,,,,,,,,,,,,,,,,,,,,,,,,104.94860875000086,104.97472720800215,104.97472720800215,104.97472720800215,104.97472720800215,104.98120012433404,104.97472720800215,104.97472720800215,105.2114440410005,Correct! صحیح است,1,0.23456133299987414,None,0,25,105.21534195800268,105.22605983300309,107.2144968749999,107.24051479100308,,,,,,,,,,,,,,,,,,,,,,,,,,,,,,,,,,,,,,,,112639,001,2024-06-30_17h30.29.801,5-24,2024.1.4,None,2024-06-30 17h30.34.868528 +0900,
Images/Speaker1.jpg,Images/Speaker2.jpg,Images/Speaker3.jpg,Images/Speaker4.jpg,Audio/Speaker2_En/P2-7-En.wav,Speaker2,گوینده۲,,,,,,,,,,,,,,,,0,25,25,26,,,,,,,,,,,,,107.24051479100308,,,,,,,,,,,,,,,,,,,,,,,,,,,,,,,,,,,,,,,,,,,,,107.21466549999968,107.24051479100308,107.24051479100308,107.24051479100308,107.24051479100308,107.24719141633298,107.24051479100308,107.24051479100308,107.24119758300003,Incorrect! The correct answer is Speaker2. نادرست! پاسخ صحیح گوینده۲ است,1,2.2374160409999604,None,0,26,107.24157787500008,107.25161770799969,109.23516387500058,109.25824004100286,,,,,,,,,,,,,,,,,,,,,,,,,,,,,,,,,,,,,,,,112639,001,2024-06-30_17h30.29.801,5-24,2024.1.4,None,2024-06-30 17h30.34.868528 +0900,
Images/Speaker1.jpg,Images/Speaker2.jpg,Images/Speaker3.jpg,Images/Speaker4.jpg,Audio/Speaker2_En/P2-13-En.wav,Speaker2,گوینده۲,,,,,,,,,,,,,,,,0,26,26,32,,,,,,,,,,,,,109.25824004100286,,,,,,,,,,,,,,,,,,,,,,,,,,,,,,,,,,,,,,,,,,,,,109.23533558300187,109.25824004100286,109.25824004100286,109.25824004100286,109.25824004100286,109.25163512466703,109.25824004100286,109.25824004100286,109.5303308750008,Incorrect! The correct answer is Speaker2. نادرست! پاسخ صحیح گوینده۲ است,1,0.2671580000023823,None,0,27,109.53410208300193,109.54609641600109,111.54027583300194,,,,,,,,,,,,,,,,,,,,,,,,,,,,,,,,,,,,,,,,,112639,001,2024-06-30_17h30.29.801,5-24,2024.1.4,None,2024-06-30 17h30.34.868528 +0900,
Images/Speaker1.jpg,Images/Speaker2.jpg,Images/Speaker3.jpg,Images/Speaker4.jpg,Audio/Speaker2_En/P2-8-En.wav,Speaker2,گوینده۲,,,,,,,,,,,,,,,,0,27,27,27,,,,,,,,,,,,,111.56482083300216,,,,,,,,,,,,,,,,,,,,,,,,,,,,,,,,,,,,,,,,,,,,,111.54088741600208,111.56482083300216,111.56482083300216,111.56482083300216,111.56482083300216,111.57345287433466,111.56482083300216,111.56482083300216,111.8604290000003,Incorrect! The correct answer is Speaker2. نادرست! پاسخ صحیح گوینده۲ است,1,0.2858584999994491,None,0,28,111.86524641600045,111.87904216600145,113.86891054100124,,,,,,,,,,,,,,,,,,,,,,,,,,,,,,,,,,,,,,,,,112639,001,2024-06-30_17h30.29.801,5-24,2024.1.4,None,2024-06-30 17h30.34.868528 +0900,
Images/Speaker1.jpg,Images/Speaker2.jpg,Images/Speaker3.jpg,Images/Speaker4.jpg,Audio/Speaker1_En/P1-4-En.wav,Speaker1,گوینده ۱,,,,,,,,,,,,,,,,0,28,28,3,,,,,,,,,,,,,113.89923199999976,,,,,,,,,,,,,,,,,,,,,,,,,,,,,,,,,,,,,,,,,,,,,113.86955350000062,113.89923199999976,113.89923199999976,113.89923199999976,113.89923199999976,113.90205729133643,113.89923199999976,113.89923199999976,113.89990150000085,Correct! صحیح است,1,2.30545762499969,None,0,29,113.9041380000017,113.91217945800236,115.90762770800211,,,,,,,,,,,,,,,,,,,,,,,,,,,,,,,,,,,,,,,,,112639,001,2024-06-30_17h30.29.801,5-24,2024.1.4,None,2024-06-30 17h30.34.868528 +0900,
Images/Speaker1.jpg,Images/Speaker2.jpg,Images/Speaker3.jpg,Images/Speaker4.jpg,Audio/Speaker1_En/P1-7-En.wav,Speaker1,گوینده ۱,,,,,,,,,,,,,,,,0,29,29,6,,,,,,,,,,,,,115.93039691600279,,,,,,,,,,,,,,,,,,,,,,,,,,,,,,,,,,,,,,,,,,,,,115.9078409160029,115.93039691600279,115.93039691600279,115.93039691600279,115.93039691600279,115.92425399966693,115.93039691600279,115.93039691600279,116.09274016600102,Correct! صحیح است,1,0.15519399999902816,None,0,30,116.09791708300327,116.10965904100158,118.09412587500265,118.11701150000226,,,,,,,,,,,,,,,,,,,,,,,,,,,,,,,,,,,,,,,,112639,001,2024-06-30_17h30.29.801,5-24,2024.1.4,None,2024-06-30 17h30.34.868528 +0900,
Images/Speaker1.jpg,Images/Speaker2.jpg,Images/Speaker3.jpg,Images/Speaker4.jpg,Audio/Speaker1_En/P1-3-En.wav,Speaker1,گوینده ۱,,,,,,,,,,,,,,,,0,30,30,2,,,,,,,,,,,,,118.11701150000226,,,,,,,,,,,,,,,,,,,,,,,,,,,,,,,,,,,,,,,,,,,,,118.09517816600055,118.11701150000226,118.11701150000226,118.11701150000226,118.11701150000226,118.12640149933625,118.11701150000226,118.11701150000226,118.27970829100013,Correct! صحیح است,1,0.15560200000254554,None,0,31,118.28352566600006,118.29252612500204,120.2837268330004,,,,,,,,,,,,,,,,,,,,,,,,,,,,,,,,,,,,,,,,,112639,001,2024-06-30_17h30.29.801,5-24,2024.1.4,None,2024-06-30 17h30.34.868528 +0900,
Images/Speaker1.jpg,Images/Speaker2.jpg,Images/Speaker3.jpg,Images/Speaker4.jpg,Audio/Speaker4_En/P4-4-En.wav,Speaker4,گوینده۴,,,,,,,,,,,,,,,,0,31,31,63,,,,,,,,,,,,,120.31339695800125,,,,,,,,,,,,,,,,,,,,,,,,,,,,,,,,,,,,,,,,,,,,,120.28430712500267,120.31339695800125,120.31339695800125,120.31339695800125,120.31339695800125,120.31689883333505,120.31339695800125,120.31339695800125,120.31406120800239,Incorrect! The correct answer is Speaker4. نادرست! پاسخ صحیح گوینده۴ است,1,2.156743916002597,None,0,32,120.31793458300308,120.32826991600086,122.31872625000324,,,,,,,,,,,,,,,,,,,,,,,,,,,,,,,,,,,,,,,,,112639,001,2024-06-30_17h30.29.801,5-24,2024.1.4,None,2024-06-30 17h30.34.868528 +0900,
Images/Speaker1.jpg,Images/Speaker2.jpg,Images/Speaker3.jpg,Images/Speaker4.jpg,Audio/Speaker4_En/P4-13-En.wav,Speaker4,گوینده۴,,,,,,,,,,,,,,,,0,32,32,72,,,,,,,,,,,,,122.34336475000237,,,,,,,,,,,,,,,,,,,,,,,,,,,,,,,,,,,,,,,,,,,,,122.31889229100125,122.34336475000237,122.34336475000237,122.34336475000237,122.34336475000237,122.35202741633523,122.34336475000237,122.34336475000237,122.34413858300104,Incorrect! The correct answer is Speaker4. نادرست! پاسخ صحیح گوینده۴ است,1,1.9239401249978982,None,0,33,122.34447337500023,122.35473804100184,124.34373045800021,124.3672610829999,,,,,,,,,,,,,,,,,,,,,,,,,,,,,,,,,,,,,,,,112639,001,2024-06-30_17h30.29.801,5-24,2024.1.4,None,2024-06-30 17h30.34.868528 +0900,
Images/Speaker1.jpg,Images/Speaker2.jpg,Images/Speaker3.jpg,Images/Speaker4.jpg,Audio/Speaker2_En/P2-14-En.wav,Speaker2,گوینده۲,,,,,,,,,,,,,,,,0,33,33,33,,,,,,,,,,,,,124.3672610829999,,,,,,,,,,,,,,,,,,,,,,,,,,,,,,,,,,,,,,,,,,,,,124.3438759160017,124.3672610829999,124.3672610829999,124.3672610829999,124.3672610829999,124.37684304133339,124.3672610829999,124.3672610829999,124.36782941600177,Incorrect! The correct answer is Speaker2. نادرست! پاسخ صحیح گوینده۲ است,1,1.9162977089981723,None,0,34,124.36822825000127,124.37772858300013,126.37014887500118,,,,,,,,,,,,,,,,,,,,,,,,,,,,,,,,,,,,,,,,,112639,001,2024-06-30_17h30.29.801,5-24,2024.1.4,None,2024-06-30 17h30.34.868528 +0900,
Images/Speaker1.jpg,Images/Speaker2.jpg,Images/Speaker3.jpg,Images/Speaker4.jpg,Audio/Speaker4_En/P4-8-En.wav,Speaker4,گوینده۴,,,,,,,,,,,,,,,,0,34,34,67,,,,,,,,,,,,,126.3964322080028,,,,,,,,,,,,,,,,,,,,,,,,,,,,,,,,,,,,,,,,,,,,,126.37035304100209,126.3964322080028,126.3964322080028,126.3964322080028,126.3964322080028,126.38677529166695,126.3964322080028,126.3964322080028,126.39708020800026,Incorrect! The correct answer is Speaker4. نادرست! پاسخ صحیح گوینده۴ است,1,1.9893965830015077,None,0,35,126.4007422499999,126.41075633299988,128.40062420800314,128.42601095800273,,,,,,,,,,,,,,,,,,,,,,,,,,,,,,,,,,,,,,,,112639,001,2024-06-30_17h30.29.801,5-24,2024.1.4,None,2024-06-30 17h30.34.868528 +0900,
Images/Speaker1.jpg,Images/Speaker2.jpg,Images/Speaker3.jpg,Images/Speaker4.jpg,Audio/Speaker4_En/P4-1-En.wav,Speaker4,گوینده۴,,,,,,,,,,,,,,,,0,35,35,60,,,,,,,,,,,,,128.42601095800273,,,,,,,,,,,,,,,,,,,,,,,,,,,,,,,,,,,,,,,,,,,,,128.40140579100262,128.42601095800273,128.42601095800273,128.42601095800273,128.42601095800273,128.43309662433654,128.42601095800273,128.42601095800273,128.46878783300053,Incorrect! The correct answer is Speaker4. نادرست! پاسخ صحیح گوینده۴ است,1,0.03963570799896843,None,0,36,128.4727305410015,128.4857891660031,130.46865783300018,130.49143266600004,,,,,,,,,,,,,,,,,,,,,,,,,,,,,,,,,,,,,,,,112639,001,2024-06-30_17h30.29.801,5-24,2024.1.4,None,2024-06-30 17h30.34.868528 +0900,
Images/Speaker1.jpg,Images/Speaker2.jpg,Images/Speaker3.jpg,Images/Speaker4.jpg,Audio/Speaker2_En/P2-17-En.wav,Speaker2,گوینده۲,,,,,,,,,,,,,,,,0,36,36,36,,,,,,,,,,,,,130.49143266600004,,,,,,,,,,,,,,,,,,,,,,,,,,,,,,,,,,,,,,,,,,,,,130.4688433750016,130.49143266600004,130.49143266600004,130.49143266600004,130.49143266600004,130.48512520766988,130.49143266600004,130.49143266600004,130.58056954100175,Incorrect! The correct answer is Speaker2. نادرست! پاسخ صحیح گوینده۲ است,1,0.08450566600004095,None,0,37,130.5844974160027,130.59709166600078,132.58903541600012,,,,,,,,,,,,,,,,,,,,,,,,,,,,,,,,,,,,,,,,,112639,001,2024-06-30_17h30.29.801,5-24,2024.1.4,None,2024-06-30 17h30.34.868528 +0900,
Images/Speaker1.jpg,Images/Speaker2.jpg,Images/Speaker3.jpg,Images/Speaker4.jpg,Audio/Speaker3_En/P3-14-En.wav,Speaker3,گوینده۳,,,,,,,,,,,,,,,,0,37,37,53,,,,,,,,,,,,,132.61318283299988,,,,,,,,,,,,,,,,,,,,,,,,,,,,,,,,,,,,,,,,,,,,,132.58920125000077,132.61318283299988,132.61318283299988,132.61318283299988,132.61318283299988,132.62233354133474,132.61318283299988,132.61318283299988,132.82287604100202,Incorrect! The correct answer is Speaker3. نادرست! پاسخ صحیح گوینده۳ است,1,0.20803483399868128,None,0,38,132.82767404100014,132.8412219160018,134.83112708300177,,,,,,,,,,,,,,,,,,,,,,,,,,,,,,,,,,,,,,,,,112639,001,2024-06-30_17h30.29.801,5-24,2024.1.4,None,2024-06-30 17h30.34.868528 +0900,
Images/Speaker1.jpg,Images/Speaker2.jpg,Images/Speaker3.jpg,Images/Speaker4.jpg,Audio/Speaker1_En/P1-9-En.wav,Speaker1,گوینده ۱,,,,,,,,,,,,,,,,0,38,38,8,,,,,,,,,,,,,134.85502204099976,,,,,,,,,,,,,,,,,,,,,,,,,,,,,,,,,,,,,,,,,,,,,134.83130083300057,134.85502204099976,134.85502204099976,134.85502204099976,134.85502204099976,134.86442270833555,134.85502204099976,134.85502204099976,135.3736740830027,Correct! صحیح است,1,0.5075481249987206,None,0,39,135.37769554100305,135.38887966600305,137.375211458002,137.40139012500003,,,,,,,,,,,,,,,,,,,,,,,,,,,,,,,,,,,,,,,,112639,001,2024-06-30_17h30.29.801,5-24,2024.1.4,None,2024-06-30 17h30.34.868528 +0900,
Images/Speaker1.jpg,Images/Speaker2.jpg,Images/Speaker3.jpg,Images/Speaker4.jpg,Audio/Speaker3_En/P3-3-En.wav,Speaker3,گوینده۳,,,,,,,,,,,,,,,,0,39,39,42,,,,,,,,,,,,,137.40139012500003,,,,,,,,,,,,,,,,,,,,,,,,,,,,,,,,,,,,,,,,,,,,,137.376049333001,137.40139012500003,137.40139012500003,137.40139012500003,137.40139012500003,137.40764079133493,137.40139012500003,137.40139012500003,137.75079137500143,Incorrect! The correct answer is Speaker3. نادرست! پاسخ صحیح گوینده۳ است,1,0.34739195899965125,None,0,40,137.7548569160026,137.76754029100266,139.75179137500163,139.77595808300248,,,,,,,,,,,,,,,,,,,,,,,,,,,,,,,,,,,,,,,,112639,001,2024-06-30_17h30.29.801,5-24,2024.1.4,None,2024-06-30 17h30.34.868528 +0900,
Images/Speaker1.jpg,Images/Speaker2.jpg,Images/Speaker3.jpg,Images/Speaker4.jpg,Audio/Speaker2_En/P2-11-En.wav,Speaker2,گوینده۲,,,,,,,,,,,,,,,,0,40,40,30,,,,,,,,,,,,,139.77595808300248,,,,,,,,,,,,,,,,,,,,,,,,,,,,,,,,,,,,,,,,,,,,,139.75197870800184,139.77595808300248,139.77595808300248,139.77595808300248,139.77595808300248,139.78492166633492,139.77595808300248,139.77595808300248,139.9926119160009,Incorrect! The correct answer is Speaker2. نادرست! پاسخ صحیح گوینده۲ است,1,0.20715245799874538,None,0,41,139.99676308299968,140.00663312500183,141.9901387500031,142.01306541600206,,,,,,,,,,,,,,,,,,,,,,,,,,,,,,,,,,,,,,,,112639,001,2024-06-30_17h30.29.801,5-24,2024.1.4,None,2024-06-30 17h30.34.868528 +0900,
Images/Speaker1.jpg,Images/Speaker2.jpg,Images/Speaker3.jpg,Images/Speaker4.jpg,Audio/Speaker2_En/P2-5-En.wav,Speaker2,گوینده۲,,,,,,,,,,,,,,,,0,41,41,24,,,,,,,,,,,,,142.01306541600206,,,,,,,,,,,,,,,,,,,,,,,,,,,,,,,,,,,,,,,,,,,,,141.9903200000008,142.01306541600206,142.01306541600206,142.01306541600206,142.01306541600206,142.006569332669,142.01306541600206,142.01306541600206,142.25208262500018,Incorrect! The correct answer is Speaker2. نادرست! پاسخ صحیح گوینده۲ است,1,0.22600716699889745,None,0,42,142.25583308299974,142.2686379580009,144.25738620800257,,,,,,,,,,,,,,,,,,,,,,,,,,,,,,,,,,,,,,,,,112639,001,2024-06-30_17h30.29.801,5-24,2024.1.4,None,2024-06-30 17h30.34.868528 +0900,
Images/Speaker1.jpg,Images/Speaker2.jpg,Images/Speaker3.jpg,Images/Speaker4.jpg,Audio/Speaker2_En/P2-6-En.wav,Speaker2,گوینده۲,,,,,,,,,,,,,,,,0,42,42,25,,,,,,,,,,,,,144.28290525000193,,,,,,,,,,,,,,,,,,,,,,,,,,,,,,,,,,,,,,,,,,,,,144.25813891600046,144.28290525000193,144.28290525000193,144.28290525000193,144.28290525000193,144.29053795833585,144.28290525000193,144.28290525000193,144.5474982500018,Incorrect! The correct answer is Speaker2. نادرست! پاسخ صحیح گوینده۲ است,1,0.25934595800208626,None,0,43,144.55280229100026,144.567548291001,146.55151720800131,146.5743562910029,,,,,,,,,,,,,,,,,,,,,,,,,,,,,,,,,,,,,,,,112639,001,2024-06-30_17h30.29.801,5-24,2024.1.4,None,2024-06-30 17h30.34.868528 +0900,
Images/Speaker1.jpg,Images/Speaker2.jpg,Images/Speaker3.jpg,Images/Speaker4.jpg,Audio/Speaker3_En/P3-17-En.wav,Speaker3,گوینده۳,,,,,,,,,,,,,,,,0,43,43,56,,,,,,,,,,,,,146.5743562910029,,,,,,,,,,,,,,,,,,,,,,,,,,,,,,,,,,,,,,,,,,,,,146.5516867080005,146.5743562910029,146.5743562910029,146.5743562910029,146.5743562910029,146.5679924166691,146.5743562910029,146.5743562910029,146.76353537500108,Incorrect! The correct answer is Speaker3. نادرست! پاسخ صحیح گوینده۳ است,1,0.18568475000211038,None,0,44,146.7677130000011,146.78038354100136,148.76706054100214,148.79422895800235,,,,,,,,,,,,,,,,,,,,,,,,,,,,,,,,,,,,,,,,112639,001,2024-06-30_17h30.29.801,5-24,2024.1.4,None,2024-06-30 17h30.34.868528 +0900,
Images/Speaker1.jpg,Images/Speaker2.jpg,Images/Speaker3.jpg,Images/Speaker4.jpg,Audio/Speaker1_En/P1-11-En.wav,Speaker1,گوینده ۱,,,,,,,,,,,,,,,,0,44,44,10,,,,,,,,,,,,,148.79422895800235,,,,,,,,,,,,,,,,,,,,,,,,,,,,,,,,,,,,,,,,,,,,,148.76761529100258,148.79422895800235,148.79422895800235,148.79422895800235,148.79422895800235,148.79952512433425,148.79422895800235,148.79422895800235,148.96731633300078,Correct! صحیح است,1,0.16622437499972875,None,0,45,148.97150191600304,148.98237929100287,150.97460658300042,,,,,,,,,,,,,,,,,,,,,,,,,,,,,,,,,,,,,,,,,112639,001,2024-06-30_17h30.29.801,5-24,2024.1.4,None,2024-06-30 17h30.34.868528 +0900,
Images/Speaker1.jpg,Images/Speaker2.jpg,Images/Speaker3.jpg,Images/Speaker4.jpg,Audio/Speaker1_En/P1-15-En.wav,Speaker1,گوینده ۱,,,,,,,,,,,,,,,,0,45,45,14,,,,,,,,,,,,,151.00376987500204,,,,,,,,,,,,,,,,,,,,,,,,,,,,,,,,,,,,,,,,,,,,,150.97516637500303,151.00376987500204,151.00376987500204,151.00376987500204,151.00376987500204,151.00774137433524,151.00376987500204,151.00376987500204,151.00438179100092,Correct! صحیح است,1,2.193075624996709,None,0,46,151.00458650000292,151.01320191600098,152.99845504100085,153.0203520000032,,,,,,,,,,,,,,,,,,,,,,,,,,,,,,,,,,,,,,,,112639,001,2024-06-30_17h30.29.801,5-24,2024.1.4,None,2024-06-30 17h30.34.868528 +0900,
Images/Speaker1.jpg,Images/Speaker2.jpg,Images/Speaker3.jpg,Images/Speaker4.jpg,Audio/Speaker1_En/P1-10-En.wav,Speaker1,گوینده ۱,,,,,,,,,,,,,,,,0,46,46,9,,,,,,,,,,,,,153.0203520000032,,,,,,,,,,,,,,,,,,,,,,,,,,,,,,,,,,,,,,,,,,,,,152.99860445800005,153.0203520000032,153.0203520000032,153.0203520000032,153.0203520000032,153.01490899966691,153.0203520000032,153.0203520000032,153.23189566600195,Correct! صحیح است,1,0.20536991699918872,None,0,47,153.23621466600162,153.24760812500244,155.2374254580027,,,,,,,,,,,,,,,,,,,,,,,,,,,,,,,,,,,,,,,,,112639,001,2024-06-30_17h30.29.801,5-24,2024.1.4,None,2024-06-30 17h30.34.868528 +0900,
Images/Speaker1.jpg,Images/Speaker2.jpg,Images/Speaker3.jpg,Images/Speaker4.jpg,Audio/Speaker3_En/P3-8-En.wav,Speaker3,گوینده۳,,,,,,,,,,,,,,,,0,47,47,47,,,,,,,,,,,,,155.2603690830001,,,,,,,,,,,,,,,,,,,,,,,,,,,,,,,,,,,,,,,,,,,,,155.2375968330016,155.2603690830001,155.2603690830001,155.2603690830001,155.2603690830001,155.25405133266784,155.2603690830001,155.2603690830001,155.4054063750009,Incorrect! The correct answer is Speaker3. نادرست! پاسخ صحیح گوینده۳ است,1,0.140255292000802,None,0,48,155.40931450000062,155.42226516600203,157.40733704100057,157.4305925410008,,,,,,,,,,,,,,,,,,,,,,,,,,,,,,,,,,,,,,,,112639,001,2024-06-30_17h30.29.801,5-24,2024.1.4,None,2024-06-30 17h30.34.868528 +0900,
Images/Speaker1.jpg,Images/Speaker2.jpg,Images/Speaker3.jpg,Images/Speaker4.jpg,Audio/Speaker2_En/P2-18-En.wav,Speaker2,گوینده۲,,,,,,,,,,,,,,,,0,48,48,37,,,,,,,,,,,,,157.4305925410008,,,,,,,,,,,,,,,,,,,,,,,,,,,,,,,,,,,,,,,,,,,,,157.40751662500043,157.4305925410008,157.4305925410008,157.4305925410008,157.4305925410008,157.44045424933626,157.4305925410008,157.4305925410008,157.58709766600077,Incorrect! The correct answer is Speaker2. نادرست! پاسخ صحیح گوینده۲ است,1,0.15079391700055567,None,0,49,157.59089983300146,157.6035677910004,159.5919813750006,,,,,,,,,,,,,,,,,,,,,,,,,,,,,,,,,,,,,,,,,112639,001,2024-06-30_17h30.29.801,5-24,2024.1.4,None,2024-06-30 17h30.34.868528 +0900,
Images/Speaker1.jpg,Images/Speaker2.jpg,Images/Speaker3.jpg,Images/Speaker4.jpg,Audio/Speaker3_En/P3-15-En.wav,Speaker3,گوینده۳,,,,,,,,,,,,,,,,0,49,49,54,,,,,,,,,,,,,159.62014312500105,,,,,,,,,,,,,,,,,,,,,,,,,,,,,,,,,,,,,,,,,,,,,159.59267125000042,159.62014312500105,159.62014312500105,159.62014312500105,159.62014312500105,159.625160541335,159.62014312500105,159.62014312500105,160.00481587500326,Incorrect! The correct answer is Speaker3. نادرست! پاسخ صحیح گوینده۳ است,1,0.38078999999925145,None,0,50,160.00879908299976,160.021568416003,162.0079501250002,162.03199370800212,,,,,,,,,,,,,,,,,,,,,,,,,,,,,,,,,,,,,,,,112639,001,2024-06-30_17h30.29.801,5-24,2024.1.4,None,2024-06-30 17h30.34.868528 +0900,
Images/Speaker1.jpg,Images/Speaker2.jpg,Images/Speaker3.jpg,Images/Speaker4.jpg,Audio/Speaker4_En/P4-15-En.wav,Speaker4,گوینده۴,,,,,,,,,,,,,,,,0,50,50,74,,,,,,,,,,,,,162.03199370800212,,,,,,,,,,,,,,,,,,,,,,,,,,,,,,,,,,,,,,,,,,,,,162.00811970799987,162.03199370800212,162.03199370800212,162.03199370800212,162.03199370800212,162.04099795833514,162.03199370800212,162.03199370800212,162.2457359580003,Incorrect! The correct answer is Speaker4. نادرست! پاسخ صحیح گوینده۴ است,1,0.21225937499912106,None,0,51,162.2496733750013,162.2623170830011,164.25888395800212,,,,,,,,,,,,,,,,,,,,,,,,,,,,,,,,,,,,,,,,,112639,001,2024-06-30_17h30.29.801,5-24,2024.1.4,None,2024-06-30 17h30.34.868528 +0900,
Images/Speaker1.jpg,Images/Speaker2.jpg,Images/Speaker3.jpg,Images/Speaker4.jpg,Audio/Speaker4_En/P4-19-En.wav,Speaker4,گوینده۴,,,,,,,,,,,,,,,,0,51,51,78,,,,,,,,,,,,,164.2821137500032,,,,,,,,,,,,,,,,,,,,,,,,,,,,,,,,,,,,,,,,,,,,,164.2590518750003,164.2821137500032,164.2821137500032,164.2821137500032,164.2821137500032,164.29217262433355,164.2821137500032,164.2821137500032,164.43474958300067,Incorrect! The correct answer is Speaker4. نادرست! پاسخ صحیح گوینده۴ است,1,0.14582791599968914,None,0,52,164.43856983300066,164.45143191600073,166.43498387500222,166.4579649160005,,,,,,,,,,,,,,,,,,,,,,,,,,,,,,,,,,,,,,,,112639,001,2024-06-30_17h30.29.801,5-24,2024.1.4,None,2024-06-30 17h30.34.868528 +0900,
Images/Speaker1.jpg,Images/Speaker2.jpg,Images/Speaker3.jpg,Images/Speaker4.jpg,Audio/Speaker1_En/P1-16-En.wav,Speaker1,گوینده ۱,,,,,,,,,,,,,,,,0,52,52,15,,,,,,,,,,,,,166.4579649160005,,,,,,,,,,,,,,,,,,,,,,,,,,,,,,,,,,,,,,,,,,,,,166.43519070800176,166.4579649160005,166.4579649160005,166.4579649160005,166.4579649160005,166.4514081666678,166.4579649160005,166.4579649160005,166.5583677909999,Correct! صحیح است,1,0.09319762499944773,None,0,53,166.5625351660019,166.57420900000216,168.55953687500005,168.58725700000286,,,,,,,,,,,,,,,,,,,,,,,,,,,,,,,,,,,,,,,,112639,001,2024-06-30_17h30.29.801,5-24,2024.1.4,None,2024-06-30 17h30.34.868528 +0900,
Images/Speaker1.jpg,Images/Speaker2.jpg,Images/Speaker3.jpg,Images/Speaker4.jpg,Audio/Speaker4_En/P4-2-En.wav,Speaker4,گوینده۴,,,,,,,,,,,,,,,,0,53,53,61,,,,,,,,,,,,,168.58725700000286,,,,,,,,,,,,,,,,,,,,,,,,,,,,,,,,,,,,,,,,,,,,,168.56046875000175,168.58725700000286,168.58725700000286,168.58725700000286,168.58725700000286,168.59187516633443,168.58725700000286,168.58725700000286,168.60790533300315,Incorrect! The correct answer is Speaker4. نادرست! پاسخ صحیح گوینده۴ است,1,0.016406875001848675,None,0,54,168.61189320800258,168.62455129100272,170.60879691599985,170.6311370830008,,,,,,,,,,,,,,,,,,,,,,,,,,,,,,,,,,,,,,,,112639,001,2024-06-30_17h30.29.801,5-24,2024.1.4,None,2024-06-30 17h30.34.868528 +0900,
Images/Speaker1.jpg,Images/Speaker2.jpg,Images/Speaker3.jpg,Images/Speaker4.jpg,Audio/Speaker1_En/P1-17-En.wav,Speaker1,گوینده ۱,,,,,,,,,,,,,,,,0,54,54,16,,,,,,,,,,,,,170.6311370830008,,,,,,,,,,,,,,,,,,,,,,,,,,,,,,,,,,,,,,,,,,,,,170.6089740410025,170.6311370830008,170.6311370830008,170.6311370830008,170.6311370830008,170.6418754993361,170.6311370830008,170.6311370830008,170.74856816600004,Correct! صحیح است,1,0.1088515000010375,None,0,55,170.75255266600288,170.76352858300015,172.7598303750019,,,,,,,,,,,,,,,,,,,,,,,,,,,,,,,,,,,,,,,,,112639,001,2024-06-30_17h30.29.801,5-24,2024.1.4,None,2024-06-30 17h30.34.868528 +0900,
Images/Speaker1.jpg,Images/Speaker2.jpg,Images/Speaker3.jpg,Images/Speaker4.jpg,Audio/Speaker1_En/P1-6-En.wav,Speaker1,گوینده ۱,,,,,,,,,,,,,,,,0,55,55,5,,,,,,,,,,,,,172.78540970800168,,,,,,,,,,,,,,,,,,,,,,,,,,,,,,,,,,,,,,,,,,,,,172.7604379580007,172.78540970800168,172.78540970800168,172.78540970800168,172.78540970800168,172.79300254133392,172.78540970800168,172.78540970800168,172.82775158300137,Correct! صحیح است,1,0.040111333000822924,None,0,56,172.83190562500022,172.84292929100047,174.82786695800314,174.85294550000253,,,,,,,,,,,,,,,,,,,,,,,,,,,,,,,,,,,,,,,,112639,001,2024-06-30_17h30.29.801,5-24,2024.1.4,None,2024-06-30 17h30.34.868528 +0900,
Images/Speaker1.jpg,Images/Speaker2.jpg,Images/Speaker3.jpg,Images/Speaker4.jpg,Audio/Speaker3_En/P3-13-En.wav,Speaker3,گوینده۳,,,,,,,,,,,,,,,,0,56,56,52,,,,,,,,,,,,,174.85294550000253,,,,,,,,,,,,,,,,,,,,,,,,,,,,,,,,,,,,,,,,,,,,,174.8286258750013,174.85294550000253,174.85294550000253,174.85294550000253,174.85294550000253,174.86037133333645,174.85294550000253,174.85294550000253,175.00950716599982,Incorrect! The correct answer is Speaker3. نادرست! پاسخ صحیح گوینده۳ است,1,0.1527734999981476,None,0,57,175.01366475000032,175.0277575,177.02354150000247,,,,,,,,,,,,,,,,,,,,,,,,,,,,,,,,,,,,,,,,,112639,001,2024-06-30_17h30.29.801,5-24,2024.1.4,None,2024-06-30 17h30.34.868528 +0900,
Images/Speaker1.jpg,Images/Speaker2.jpg,Images/Speaker3.jpg,Images/Speaker4.jpg,Audio/Speaker3_En/P3-18-En.wav,Speaker3,گوینده۳,,,,,,,,,,,,,,,,0,57,57,57,,,,,,,,,,,,,177.04842012500012,,,,,,,,,,,,,,,,,,,,,,,,,,,,,,,,,,,,,,,,,,,,,177.02417250000144,177.04842012500012,177.04842012500012,177.04842012500012,177.04842012500012,177.0566916663343,177.04842012500012,177.04842012500012,177.20012512500034,Incorrect! The correct answer is Speaker3. نادرست! پاسخ صحیح گوینده۳ است,1,0.1412073749997944,None,0,58,177.2038167910032,177.21682558300017,179.20806916600122,,,,,,,,,,,,,,,,,,,,,,,,,,,,,,,,,,,,,,,,,112639,001,2024-06-30_17h30.29.801,5-24,2024.1.4,None,2024-06-30 17h30.34.868528 +0900,
Images/Speaker1.jpg,Images/Speaker2.jpg,Images/Speaker3.jpg,Images/Speaker4.jpg,Audio/Speaker3_En/P3-20-En.wav,Speaker3,گوینده۳,,,,,,,,,,,,,,,,0,58,58,59,,,,,,,,,,,,,179.23587837500236,,,,,,,,,,,,,,,,,,,,,,,,,,,,,,,,,,,,,,,,,,,,,179.2087192910003,179.23587837500236,179.23587837500236,179.23587837500236,179.23587837500236,179.24122499933634,179.23587837500236,179.23587837500236,179.23651125000106,Incorrect! The correct answer is Speaker3. نادرست! پاسخ صحیح گوینده۳ است,1,2.1553755830027512,None,0,59,179.2369479580011,179.24655812499986,181.2347310410005,181.2588259160002,,,,,,,,,,,,,,,,,,,,,,,,,,,,,,,,,,,,,,,,112639,001,2024-06-30_17h30.29.801,5-24,2024.1.4,None,2024-06-30 17h30.34.868528 +0900,
Images/Speaker1.jpg,Images/Speaker2.jpg,Images/Speaker3.jpg,Images/Speaker4.jpg,Audio/Speaker3_En/P3-6-En.wav,Speaker3,گوینده۳,,,,,,,,,,,,,,,,0,59,59,45,,,,,,,,,,,,,181.2588259160002,,,,,,,,,,,,,,,,,,,,,,,,,,,,,,,,,,,,,,,,,,,,,181.2349329580029,181.2588259160002,181.2588259160002,181.2588259160002,181.2588259160002,181.26778662433622,181.2588259160002,181.2588259160002,181.31352475000313,Incorrect! The correct answer is Speaker3. نادرست! پاسخ صحیح گوینده۳ است,1,0.044199374999152496,None,0,60,181.3175725000001,181.32961400000204,183.31992883299972,,,,,,,,,,,,,,,,,,,,,,,,,,,,,,,,,,,,,,,,,112639,001,2024-06-30_17h30.29.801,5-24,2024.1.4,None,2024-06-30 17h30.34.868528 +0900,
Images/Speaker1.jpg,Images/Speaker2.jpg,Images/Speaker3.jpg,Images/Speaker4.jpg,Audio/Speaker2_En/P2-19-En.wav,Speaker2,گوینده۲,,,,,,,,,,,,,,,,0,60,60,38,,,,,,,,,,,,,183.3444023330012,,,,,,,,,,,,,,,,,,,,,,,,,,,,,,,,,,,,,,,,,,,,,183.32048883300013,183.3444023330012,183.3444023330012,183.3444023330012,183.3444023330012,183.3531060413339,183.3444023330012,183.3444023330012,183.4290333750032,Incorrect! The correct answer is Speaker2. نادرست! پاسخ صحیح گوینده۲ است,1,0.08279983400279889,None,0,61,183.43292312500125,183.44569550000233,185.4390627080029,,,,,,,,,,,,,,,,,,,,,,,,,,,,,,,,,,,,,,,,,112639,001,2024-06-30_17h30.29.801,5-24,2024.1.4,None,2024-06-30 17h30.34.868528 +0900,
Images/Speaker1.jpg,Images/Speaker2.jpg,Images/Speaker3.jpg,Images/Speaker4.jpg,Audio/Speaker1_En/P1-13-En.wav,Speaker1,گوینده ۱,,,,,,,,,,,,,,,,0,61,61,12,,,,,,,,,,,,,185.4620629580022,,,,,,,,,,,,,,,,,,,,,,,,,,,,,,,,,,,,,,,,,,,,,185.4392218330031,185.4620629580022,185.4620629580022,185.4620629580022,185.4620629580022,185.45569720766824,185.4620629580022,185.4620629580022,185.64073629100312,Correct! صحیح است,1,0.1765646249987185,None,0,62,185.644483166001,185.6554302500008,187.6454487910014,,,,,,,,,,,,,,,,,,,,,,,,,,,,,,,,,,,,,,,,,112639,001,2024-06-30_17h30.29.801,5-24,2024.1.4,None,2024-06-30 17h30.34.868528 +0900,
Images/Speaker1.jpg,Images/Speaker2.jpg,Images/Speaker3.jpg,Images/Speaker4.jpg,Audio/Speaker4_En/P4-9-En.wav,Speaker4,گوینده۴,,,,,,,,,,,,,,,,0,62,62,68,,,,,,,,,,,,,187.67706766600168,,,,,,,,,,,,,,,,,,,,,,,,,,,,,,,,,,,,,,,,,,,,,187.64610841600006,187.67706766600168,187.67706766600168,187.67706766600168,187.67706766600168,187.6785536243338,187.67706766600168,187.67706766600168,187.67776095800218,Incorrect! The correct answer is Speaker4. نادرست! پاسخ صحیح گوینده۴ است,1,2.1899770829986664,None,0,63,187.68198145800125,187.69255570800306,189.67978487500295,189.70260750000307,,,,,,,,,,,,,,,,,,,,,,,,,,,,,,,,,,,,,,,,112639,001,2024-06-30_17h30.29.801,5-24,2024.1.4,None,2024-06-30 17h30.34.868528 +0900,
Images/Speaker1.jpg,Images/Speaker2.jpg,Images/Speaker3.jpg,Images/Speaker4.jpg,Audio/Speaker1_En/P1-4-En.wav,Speaker1,گوینده ۱,,,,,,,,,,,,,,,,0,63,63,13,,,,,,,,,,,,,189.70260750000307,,,,,,,,,,,,,,,,,,,,,,,,,,,,,,,,,,,,,,,,,,,,,189.67995591600265,189.70260750000307,189.70260750000307,189.70260750000307,189.70260750000307,189.7128501243356,189.70260750000307,189.70260750000307,189.70315575000132,Correct! صحیح است,1,1.9610562500020023,None,0,64,189.70350045800296,189.71162712500154,191.6956205000024,191.71934641600092,,,,,,,,,,,,,,,,,,,,,,,,,,,,,,,,,,,,,,,,112639,001,2024-06-30_17h30.29.801,5-24,2024.1.4,None,2024-06-30 17h30.34.868528 +0900,
Images/Speaker1.jpg,Images/Speaker2.jpg,Images/Speaker3.jpg,Images/Speaker4.jpg,Audio/Speaker1_En/P1-1-En.wav,Speaker1,گوینده ۱,,,,,,,,,,,,,,,,0,64,64,0,,,,,,,,,,,,,191.71934641600092,,,,,,,,,,,,,,,,,,,,,,,,,,,,,,,,,,,,,,,,,,,,,191.6957802500001,191.71934641600092,191.71934641600092,191.71934641600092,191.71934641600092,191.72791654133522,191.71934641600092,191.71934641600092,191.90523812500032,Correct! صحیح است,1,0.17744574999960605,None,0,65,191.90950912500193,191.92074825000236,193.90393837500233,193.92758425000284,,,,,,,,,,,,,,,,,,,,,,,,,,,,,,,,,,,,,,,,112639,001,2024-06-30_17h30.29.801,5-24,2024.1.4,None,2024-06-30 17h30.34.868528 +0900,
Images/Speaker1.jpg,Images/Speaker2.jpg,Images/Speaker3.jpg,Images/Speaker4.jpg,Audio/Speaker4_En/P4-10-En.wav,Speaker4,گوینده۴,,,,,,,,,,,,,,,,0,65,65,69,,,,,,,,,,,,,193.92758425000284,,,,,,,,,,,,,,,,,,,,,,,,,,,,,,,,,,,,,,,,,,,,,193.90414079100083,193.92758425000284,193.92758425000284,193.92758425000284,193.92758425000284,193.937005041335,193.92758425000284,193.92758425000284,194.09116420800274,Incorrect! The correct answer is Speaker4. نادرست! پاسخ صحیح گوینده۴ است,1,0.15983587500159047,None,0,66,194.0951516660025,194.10803529100303,196.0948563330021,196.11922825000147,,,,,,,,,,,,,,,,,,,,,,,,,,,,,,,,,,,,,,,,112639,001,2024-06-30_17h30.29.801,5-24,2024.1.4,None,2024-06-30 17h30.34.868528 +0900,
Images/Speaker1.jpg,Images/Speaker2.jpg,Images/Speaker3.jpg,Images/Speaker4.jpg,Audio/Speaker4_En/P4-18-En.wav,Speaker4,گوینده۴,,,,,,,,,,,,,,,,0,66,66,77,,,,,,,,,,,,,196.11922825000147,,,,,,,,,,,,,,,,,,,,,,,,,,,,,,,,,,,,,,,,,,,,,196.0950355410023,196.11922825000147,196.11922825000147,196.11922825000147,196.11922825000147,196.1279310413343,196.11922825000147,196.11922825000147,196.39850333300274,Incorrect! The correct answer is Speaker4. نادرست! پاسخ صحیح گوینده۴ است,1,0.2757204580011603,None,0,67,196.40237358300146,196.41549254100028,198.4115133330015,,,,,,,,,,,,,,,,,,,,,,,,,,,,,,,,,,,,,,,,,112639,001,2024-06-30_17h30.29.801,5-24,2024.1.4,None,2024-06-30 17h30.34.868528 +0900,
Images/Speaker1.jpg,Images/Speaker2.jpg,Images/Speaker3.jpg,Images/Speaker4.jpg,Audio/Speaker2_En/P2-2-En.wav,Speaker2,گوینده۲,,,,,,,,,,,,,,,,0,67,67,21,,,,,,,,,,,,,198.43499379100103,,,,,,,,,,,,,,,,,,,,,,,,,,,,,,,,,,,,,,,,,,,,,198.41166975000306,198.43499379100103,198.43499379100103,198.43499379100103,198.43499379100103,198.44481012433658,198.43499379100103,198.43499379100103,198.50115420800284,Incorrect! The correct answer is Speaker2. نادرست! پاسخ صحیح گوینده۲ است,1,0.0593833339989942,None,0,68,198.505456916002,198.5185140829999,200.502669583002,200.5255343750032,,,,,,,,,,,,,,,,,,,,,,,,,,,,,,,,,,,,,,,,112639,001,2024-06-30_17h30.29.801,5-24,2024.1.4,None,2024-06-30 17h30.34.868528 +0900,
Images/Speaker1.jpg,Images/Speaker2.jpg,Images/Speaker3.jpg,Images/Speaker4.jpg,Audio/Speaker4_En/P4-12-En.wav,Speaker4,گوینده۴,,,,,,,,,,,,,,,,0,68,68,71,,,,,,,,,,,,,200.5255343750032,,,,,,,,,,,,,,,,,,,,,,,,,,,,,,,,,,,,,,,,,,,,,200.50284708300023,200.5255343750032,200.5255343750032,200.5255343750032,200.5255343750032,200.5190907916697,200.5255343750032,200.5255343750032,200.64377533300285,Incorrect! The correct answer is Speaker4. نادرست! پاسخ صحیح گوینده۴ است,1,None,None,0,69,200.64784262500325,200.6584165000022,202.6439774999999,202.66729533300168,,,,,,,,,,,,,,,,,,,,,,,,,,,,,,,,,,,,,,,,112639,001,2024-06-30_17h30.29.801,5-24,2024.1.4,None,2024-06-30 17h30.34.868528 +0900,
Images/Speaker1.jpg,Images/Speaker2.jpg,Images/Speaker3.jpg,Images/Speaker4.jpg,Audio/Speaker3_En/P3-1-En.wav,Speaker3,گوینده۳,,,,,,,,,,,,,,,,0,69,69,40,,,,,,,,,,,,,202.66729533300168,,,,,,,,,,,,,,,,,,,,,,,,,,,,,,,,,,,,,,,,,,,,,202.6441436660025,202.66729533300168,202.66729533300168,202.66729533300168,202.66729533300168,202.67710712433524,202.66729533300168,202.66729533300168,202.6831017500008,Incorrect! The correct answer is Speaker3. نادرست! پاسخ صحیح گوینده۳ است,1,0.0139944580005249,None,0,70,202.68705537500136,202.6994118750008,204.68834550000247,,,,,,,,,,,,,,,,,,,,,,,,,,,,,,,,,,,,,,,,,112639,001,2024-06-30_17h30.29.801,5-24,2024.1.4,None,2024-06-30 17h30.34.868528 +0900,
Images/Speaker1.jpg,Images/Speaker2.jpg,Images/Speaker3.jpg,Images/Speaker4.jpg,Audio/Speaker2_En/P2-10-En.wav,Speaker2,گوینده۲,,,,,,,,,,,,,,,,0,70,70,29,,,,,,,,,,,,,204.71641754099983,,,,,,,,,,,,,,,,,,,,,,,,,,,,,,,,,,,,,,,,,,,,,204.68887566600097,204.71641754099983,204.71641754099983,204.71641754099983,204.71641754099983,204.72152695833626,204.71641754099983,204.71641754099983,204.89443145800033,Incorrect! The correct answer is Speaker2. نادرست! پاسخ صحیح گوینده۲ است,1,0.1767759170033969,None,0,71,204.8986060410025,204.9110348330032,206.89383229099985,206.91666458300097,,,,,,,,,,,,,,,,,,,,,,,,,,,,,,,,,,,,,,,,112639,001,2024-06-30_17h30.29.801,5-24,2024.1.4,None,2024-06-30 17h30.34.868528 +0900,
Images/Speaker1.jpg,Images/Speaker2.jpg,Images/Speaker3.jpg,Images/Speaker4.jpg,Audio/Speaker3_En/P3-16-En.wav,Speaker3,گوینده۳,,,,,,,,,,,,,,,,0,71,71,55,,,,,,,,,,,,,206.91666458300097,,,,,,,,,,,,,,,,,,,,,,,,,,,,,,,,,,,,,,,,,,,,,206.89399287500055,206.91666458300097,206.91666458300097,206.91666458300097,206.91666458300097,206.91027616666932,206.91666458300097,206.91666458300097,206.93067787499967,Incorrect! The correct answer is Speaker3. نادرست! پاسخ صحیح گوینده۳ است,1,0.006379040998581331,None,0,72,206.93488254100157,206.9451981250022,208.93531799999982,,,,,,,,,,,,,,,,,,,,,,,,,,,,,,,,,,,,,,,,,112639,001,2024-06-30_17h30.29.801,5-24,2024.1.4,None,2024-06-30 17h30.34.868528 +0900,
Images/Speaker1.jpg,Images/Speaker2.jpg,Images/Speaker3.jpg,Images/Speaker4.jpg,Audio/Speaker3_En/P3-2-En.wav,Speaker3,گوینده۳,,,,,,,,,,,,,,,,0,72,72,41,,,,,,,,,,,,,208.95944558300107,,,,,,,,,,,,,,,,,,,,,,,,,,,,,,,,,,,,,,,,,,,,,208.93546400000196,208.95944558300107,208.95944558300107,208.95944558300107,208.95944558300107,208.9686023333348,208.95944558300107,208.95944558300107,209.14186862499992,Incorrect! The correct answer is Speaker3. نادرست! پاسخ صحیح گوینده۳ است,1,0.1813077919978241,None,0,73,209.1458201250025,209.15880300000208,211.14427337500092,211.16677712500314,,,,,,,,,,,,,,,,,,,,,,,,,,,,,,,,,,,,,,,,112639,001,2024-06-30_17h30.29.801,5-24,2024.1.4,None,2024-06-30 17h30.34.868528 +0900,
Images/Speaker1.jpg,Images/Speaker2.jpg,Images/Speaker3.jpg,Images/Speaker4.jpg,Audio/Speaker4_En/P4-7-En.wav,Speaker4,گوینده۴,,,,,,,,,,,,,,,,0,73,73,66,,,,,,,,,,,,,211.16677712500314,,,,,,,,,,,,,,,,,,,,,,,,,,,,,,,,,,,,,,,,,,,,,211.14445295800033,211.16677712500314,211.16677712500314,211.16677712500314,211.16677712500314,211.16071337466954,211.16677712500314,211.16677712500314,211.30140000000029,Incorrect! The correct answer is Speaker4. نادرست! پاسخ صحیح گوینده۴ است,1,0.13028487499832409,None,0,74,211.30519466600163,211.31825562500308,213.31323133300248,,,,,,,,,,,,,,,,,,,,,,,,,,,,,,,,,,,,,,,,,112639,001,2024-06-30_17h30.29.801,5-24,2024.1.4,None,2024-06-30 17h30.34.868528 +0900,
Images/Speaker1.jpg,Images/Speaker2.jpg,Images/Speaker3.jpg,Images/Speaker4.jpg,Audio/Speaker3_En/P3-11-En.wav,Speaker3,گوینده۳,,,,,,,,,,,,,,,,0,74,74,50,,,,,,,,,,,,,213.33832750000147,,,,,,,,,,,,,,,,,,,,,,,,,,,,,,,,,,,,,,,,,,,,,213.31340620800256,213.33832750000147,213.33832750000147,213.33832750000147,213.33832750000147,213.34652758333374,213.33832750000147,213.33832750000147,213.5286199580005,Incorrect! The correct answer is Speaker3. نادرست! پاسخ صحیح گوینده۳ است,1,0.18925933300124598,None,0,75,213.53240658300274,213.54492475000006,215.5300081250025,215.55715575000067,,,,,,,,,,,,,,,,,,,,,,,,,,,,,,,,,,,,,,,,112639,001,2024-06-30_17h30.29.801,5-24,2024.1.4,None,2024-06-30 17h30.34.868528 +0900,
Images/Speaker1.jpg,Images/Speaker2.jpg,Images/Speaker3.jpg,Images/Speaker4.jpg,Audio/Speaker3_En/P3-9-En.wav,Speaker3,گوینده۳,,,,,,,,,,,,,,,,0,75,75,48,,,,,,,,,,,,,215.55715575000067,,,,,,,,,,,,,,,,,,,,,,,,,,,,,,,,,,,,,,,,,,,,,215.5309285000003,215.55715575000067,215.55715575000067,215.55715575000067,215.55715575000067,215.56232612433502,215.55715575000067,215.55715575000067,215.55776700000206,Incorrect! The correct answer is Speaker3. نادرست! پاسخ صحیح گوینده۳ است,1,2.1086277079994034,None,0,76,215.55800895799985,215.5680508330006,217.55197416600276,217.57423070799996,,,,,,,,,,,,,,,,,,,,,,,,,,,,,,,,,,,,,,,,112639,001,2024-06-30_17h30.29.801,5-24,2024.1.4,None,2024-06-30 17h30.34.868528 +0900,
Images/Speaker1.jpg,Images/Speaker2.jpg,Images/Speaker3.jpg,Images/Speaker4.jpg,Audio/Speaker1_En/P1-20-En.wav,Speaker1,گوینده ۱,,,,,,,,,,,,,,,,0,76,76,19,,,,,,,,,,,,,217.57423070799996,,,,,,,,,,,,,,,,,,,,,,,,,,,,,,,,,,,,,,,,,,,,,217.5521297080013,217.57423070799996,217.57423070799996,217.57423070799996,217.57423070799996,217.56842479166906,217.57423070799996,217.57423070799996,217.59676483300063,Correct! صحیح است,1,0.017959624998184154,None,0,77,217.60053450000123,217.61180812500243,219.5990367910017,219.62157141600255,,,,,,,,,,,,,,,,,,,,,,,,,,,,,,,,,,,,,,,,112639,001,2024-06-30_17h30.29.801,5-24,2024.1.4,None,2024-06-30 17h30.34.868528 +0900,
Images/Speaker1.jpg,Images/Speaker2.jpg,Images/Speaker3.jpg,Images/Speaker4.jpg,Audio/Speaker1_En/P1-8-En.wav,Speaker1,گوینده ۱,,,,,,,,,,,,,,,,0,77,77,7,,,,,,,,,,,,,219.62157141600255,,,,,,,,,,,,,,,,,,,,,,,,,,,,,,,,,,,,,,,,,,,,,219.59921891600243,219.62157141600255,219.62157141600255,219.62157141600255,219.62157141600255,219.6154319996679,219.62157141600255,219.62157141600255,221.0818654579998,Correct! صحیح است,1,1.455672833002609,None,0,78,221.0868752080023,221.09928291600227,223.09040629100127,,,,,,,,,,,,,,,,,,,,,,,,,,,,,,,,,,,,,,,,,112639,001,2024-06-30_17h30.29.801,5-24,2024.1.4,None,2024-06-30 17h30.34.868528 +0900,
Images/Speaker1.jpg,Images/Speaker2.jpg,Images/Speaker3.jpg,Images/Speaker4.jpg,Audio/Speaker2_En/P2-1-En.wav,Speaker2,گوینده۲,,,,,,,,,,,,,,,,0,78,78,20,,,,,,,,,,,,,223.11276483300026,,,,,,,,,,,,,,,,,,,,,,,,,,,,,,,,,,,,,,,,,,,,,223.0905640000019,223.11276483300026,223.11276483300026,223.11276483300026,223.11276483300026,223.10703054166905,223.11276483300026,223.11276483300026,223.66184204100136,Incorrect! The correct answer is Speaker2. نادرست! پاسخ صحیح گوینده۲ است,1,0.5466501250011788,None,0,79,223.66590083300252,223.67886883300162,225.66765362500155,,,,,,,,,,,,,,,,,,,,,,,,,,,,,,,,,,,,,,,,,112639,001,2024-06-30_17h30.29.801,5-24,2024.1.4,None,2024-06-30 17h30.34.868528 +0900,
Images/Speaker1.jpg,Images/Speaker2.jpg,Images/Speaker3.jpg,Images/Speaker4.jpg,Audio/Speaker4_En/P4-17-En.wav,Speaker4,گوینده۴,,,,,,,,,,,,,,,,0,79,79,76,,,,,,,,,,,,,225.69545129100152,,,,,,,,,,,,,,,,,,,,,,,,,,,,,,,,,,,,,,,,,,,,,225.66832799999975,225.69545129100152,225.69545129100152,225.69545129100152,225.69545129100152,225.70081324933614,225.69545129100152,225.69545129100152,228.98667858300178,Incorrect! The correct answer is Speaker4. نادرست! پاسخ صحیح گوینده۴ است,1,3.2825638340000296,None,0,80,228.98689291600022,228.99776974999986,230.99108808300298,,,,,,,,,,,,,,,,,,,,,,,,,,,,,,,,,,,,,,,,,112639,001,2024-06-30_17h30.29.801,5-24,2024.1.4,None,2024-06-30 17h30.34.868528 +0900,
,,,,,,,,,,,,,,,,,,,,,,,,,,,,,,,,,,,,,,,,,,,,,,,,,,,,,,,,,,,,,,,,,,,,,,,,,,,,,,,,,,,,,,,,,,,,,,,,,,,,,,230.9912973749997,0,0,0.0,False,230.99197579100291,,,,,,,,,,,,,,,,,,,,,,,,,,,,,,,,,,112639,001,2024-06-30_17h30.29.801,5-24,2024.1.4,None,2024-06-30 17h30.34.868528 +0900,
,,,,,,,,,,,,,,,,,,,,,,,,,,,,,,,,,,,,,,,,,,,,,,,,,,,,,,,,,,,,,,,,,,,,,,,,,,,,,,,,,,,,,,,,,,,,,,,,,,,,,,,,,,,,230.992006708002,230.99750754100023,238.6704275000011,235.98362437500327,,,,,,,,,,,,,,,,,,,,,,,,,,,,,,112639,001,2024-06-30_17h30.29.801,5-24,2024.1.4,None,2024-06-30 17h30.34.868528 +0900,
,,,,,,,Images/Speaker1.jpg,Images/Speaker2.jpg,Images/Speaker3.jpg,Images/Speaker4.jpg,Audio/Speaker1_Per/P1-5-Per.wav,Speaker1,گوینده ۱,,,,,,,,,,,,,0,0,0,4,,,,,,,,,238.6704275000011,,,,,,,,,,,,,,,,,,,,,,,,,,,,,,,,,,,,,,,,,,,,,,,,,,,,,,,,,,,,,,,,,,,,,,,,,,236.00255808300062,236.01951004100192,None,No response,Images/Speaker1.jpg,Images/Speaker2.jpg,Images/Speaker3.jpg,Images/Speaker4.jpg,Audio/Speaker1_Per/P1-5-Per.wav,Speaker4,گوینده۴,,,,,,,,,,,,,,,,,,,112639,001,2024-06-30_17h30.29.801,5-24,2024.1.4,None,2024-06-30 17h30.34.868528 +0900,
,,,,,,,Images/Speaker1.jpg,Images/Speaker2.jpg,Images/Speaker3.jpg,Images/Speaker4.jpg,Audio/Speaker1_Per/P1-20-Per.wav,Speaker1,گوینده ۱,,,,,,,,,,,,,0,1,1,19,,,,,,,,,238.6704275000011,,,,,,,,,,,,,,,,,,,,,,,,,,,,,,,,,,,,,,,,,,,,,,,,,,,,,,,,,,,,,,,,,,,,,,,,,,236.01980366600037,236.03238941600284,None,No response,Images/Speaker1.jpg,Images/Speaker2.jpg,Images/Speaker3.jpg,Images/Speaker4.jpg,Audio/Speaker1_Per/P1-20-Per.wav,Speaker4,گوینده۴,,,,,,,,,,,,,,,,,,,112639,001,2024-06-30_17h30.29.801,5-24,2024.1.4,None,2024-06-30 17h30.34.868528 +0900,
,,,,,,,Images/Speaker1.jpg,Images/Speaker2.jpg,Images/Speaker3.jpg,Images/Speaker4.jpg,Audio/Speaker4_Per/P4-6-Per.wav,Speaker4,گوینده۴,,,,,,,,,,,,,0,2,2,65,,,,,,,,,238.6704275000011,,,,,,,,,,,,,,,,,,,,,,,,,,,,,,,,,,,,,,,,,,,,,,,,,,,,,,,,,,,,,,,,,,,,,,,,,,236.03256495800088,236.04515862500193,None,No response,Images/Speaker1.jpg,Images/Speaker2.jpg,Images/Speaker3.jpg,Images/Speaker4.jpg,Audio/Speaker4_Per/P4-6-Per.wav,Speaker4,گوینده۴,,,,,,,,,,,,,,,,,,,112639,001,2024-06-30_17h30.29.801,5-24,2024.1.4,None,2024-06-30 17h30.34.868528 +0900,
,,,,,,,Images/Speaker1.jpg,Images/Speaker2.jpg,Images/Speaker3.jpg,Images/Speaker4.jpg,Audio/Speaker3_Per/P3-2-Per.wav,Speaker3,گوینده۳,,,,,,,,,,,,,0,3,3,41,,,,,,,,,238.6704275000011,,,,,,,,,,,,,,,,,,,,,,,,,,,,,,,,,,,,,,,,,,,,,,,,,,,,,,,,,,,,,,,,,,,,,,,,,,236.04532650000328,236.0586334159998,None,No response,Images/Speaker1.jpg,Images/Speaker2.jpg,Images/Speaker3.jpg,Images/Speaker4.jpg,Audio/Speaker3_Per/P3-2-Per.wav,Speaker4,گوینده۴,,,,,,,,,,,,,,,,,,,112639,001,2024-06-30_17h30.29.801,5-24,2024.1.4,None,2024-06-30 17h30.34.868528 +0900,
,,,,,,,Images/Speaker1.jpg,Images/Speaker2.jpg,Images/Speaker3.jpg,Images/Speaker4.jpg,Audio/Speaker1_Per/P1-11-Per.wav,Speaker1,گوینده ۱,,,,,,,,,,,,,0,4,4,10,,,,,,,,,238.6704275000011,,,,,,,,,,,,,,,,,,,,,,,,,,,,,,,,,,,,,,,,,,,,,,,,,,,,,,,,,,,,,,,,,,,,,,,,,,236.05880191600227,236.07189829100025,None,No response,Images/Speaker1.jpg,Images/Speaker2.jpg,Images/Speaker3.jpg,Images/Speaker4.jpg,Audio/Speaker1_Per/P1-11-Per.wav,Speaker4,گوینده۴,,,,,,,,,,,,,,,,,,,112639,001,2024-06-30_17h30.29.801,5-24,2024.1.4,None,2024-06-30 17h30.34.868528 +0900,
,,,,,,,Images/Speaker1.jpg,Images/Speaker2.jpg,Images/Speaker3.jpg,Images/Speaker4.jpg,Audio/Speaker1_Per/P1-1-Per.wav,Speaker1,گوینده ۱,,,,,,,,,,,,,0,5,5,0,,,,,,,,,238.6704275000011,,,,,,,,,,,,,,,,,,,,,,,,,,,,,,,,,,,,,,,,,,,,,,,,,,,,,,,,,,,,,,,,,,,,,,,,,,236.07205575000262,236.08356762500262,None,No response,Images/Speaker1.jpg,Images/Speaker2.jpg,Images/Speaker3.jpg,Images/Speaker4.jpg,Audio/Speaker1_Per/P1-1-Per.wav,Speaker4,گوینده۴,,,,,,,,,,,,,,,,,,,112639,001,2024-06-30_17h30.29.801,5-24,2024.1.4,None,2024-06-30 17h30.34.868528 +0900,
,,,,,,,Images/Speaker1.jpg,Images/Speaker2.jpg,Images/Speaker3.jpg,Images/Speaker4.jpg,Audio/Speaker2_Per/P2-8-Per.wav,Speaker2,گوینده۲,,,,,,,,,,,,,0,6,6,27,,,,,,,,,238.6704275000011,,,,,,,,,,,,,,,,,,,,,,,,,,,,,,,,,,,,,,,,,,,,,,,,,,,,,,,,,,,,,,,,,,,,,,,,,,236.08371337500284,236.0955759999997,None,No response,Images/Speaker1.jpg,Images/Speaker2.jpg,Images/Speaker3.jpg,Images/Speaker4.jpg,Audio/Speaker2_Per/P2-8-Per.wav,Speaker4,گوینده۴,,,,,,,,,,,,,,,,,,,112639,001,2024-06-30_17h30.29.801,5-24,2024.1.4,None,2024-06-30 17h30.34.868528 +0900,
,,,,,,,Images/Speaker1.jpg,Images/Speaker2.jpg,Images/Speaker3.jpg,Images/Speaker4.jpg,Audio/Speaker2_Per/P2-15-Per.wav,Speaker2,گوینده۲,,,,,,,,,,,,,0,7,7,34,,,,,,,,,238.6704275000011,,,,,,,,,,,,,,,,,,,,,,,,,,,,,,,,,,,,,,,,,,,,,,,,,,,,,,,,,,,,,,,,,,,,,,,,,,236.09572275000028,236.10719075000088,None,No response,Images/Speaker1.jpg,Images/Speaker2.jpg,Images/Speaker3.jpg,Images/Speaker4.jpg,Audio/Speaker2_Per/P2-15-Per.wav,Speaker4,گوینده۴,,,,,,,,,,,,,,,,,,,112639,001,2024-06-30_17h30.29.801,5-24,2024.1.4,None,2024-06-30 17h30.34.868528 +0900,
,,,,,,,Images/Speaker1.jpg,Images/Speaker2.jpg,Images/Speaker3.jpg,Images/Speaker4.jpg,Audio/Speaker4_Per/P4-13-Per.wav,Speaker4,گوینده۴,,,,,,,,,,,,,0,8,8,72,,,,,,,,,238.6704275000011,,,,,,,,,,,,,,,,,,,,,,,,,,,,,,,,,,,,,,,,,,,,,,,,,,,,,,,,,,,,,,,,,,,,,,,,,,236.10733641600018,236.11902525000187,None,No response,Images/Speaker1.jpg,Images/Speaker2.jpg,Images/Speaker3.jpg,Images/Speaker4.jpg,Audio/Speaker4_Per/P4-13-Per.wav,Speaker4,گوینده۴,,,,,,,,,,,,,,,,,,,112639,001,2024-06-30_17h30.29.801,5-24,2024.1.4,None,2024-06-30 17h30.34.868528 +0900,
,,,,,,,Images/Speaker1.jpg,Images/Speaker2.jpg,Images/Speaker3.jpg,Images/Speaker4.jpg,Audio/Speaker1_Per/P1-19-Per.wav,Speaker1,گوینده ۱,,,,,,,,,,,,,0,9,9,18,,,,,,,,,238.6704275000011,,,,,,,,,,,,,,,,,,,,,,,,,,,,,,,,,,,,,,,,,,,,,,,,,,,,,,,,,,,,,,,,,,,,,,,,,,236.1191725000026,236.13071445800233,None,No response,Images/Speaker1.jpg,Images/Speaker2.jpg,Images/Speaker3.jpg,Images/Speaker4.jpg,Audio/Speaker1_Per/P1-19-Per.wav,Speaker4,گوینده۴,,,,,,,,,,,,,,,,,,,112639,001,2024-06-30_17h30.29.801,5-24,2024.1.4,None,2024-06-30 17h30.34.868528 +0900,
,,,,,,,Images/Speaker1.jpg,Images/Speaker2.jpg,Images/Speaker3.jpg,Images/Speaker4.jpg,Audio/Speaker2_Per/P2-12-Per.wav,Speaker2,گوینده۲,,,,,,,,,,,,,0,10,10,31,,,,,,,,,238.6704275000011,,,,,,,,,,,,,,,,,,,,,,,,,,,,,,,,,,,,,,,,,,,,,,,,,,,,,,,,,,,,,,,,,,,,,,,,,,236.13085379100085,236.14242008300062,None,No response,Images/Speaker1.jpg,Images/Speaker2.jpg,Images/Speaker3.jpg,Images/Speaker4.jpg,Audio/Speaker2_Per/P2-12-Per.wav,Speaker4,گوینده۴,,,,,,,,,,,,,,,,,,,112639,001,2024-06-30_17h30.29.801,5-24,2024.1.4,None,2024-06-30 17h30.34.868528 +0900,
,,,,,,,Images/Speaker1.jpg,Images/Speaker2.jpg,Images/Speaker3.jpg,Images/Speaker4.jpg,Audio/Speaker1_Per/P1-6-Per.wav,Speaker1,گوینده ۱,,,,,,,,,,,,,0,11,11,5,,,,,,,,,238.6704275000011,,,,,,,,,,,,,,,,,,,,,,,,,,,,,,,,,,,,,,,,,,,,,,,,,,,,,,,,,,,,,,,,,,,,,,,,,,236.14256045799993,236.1540198750008,None,No response,Images/Speaker1.jpg,Images/Speaker2.jpg,Images/Speaker3.jpg,Images/Speaker4.jpg,Audio/Speaker1_Per/P1-6-Per.wav,Speaker4,گوینده۴,,,,,,,,,,,,,,,,,,,112639,001,2024-06-30_17h30.29.801,5-24,2024.1.4,None,2024-06-30 17h30.34.868528 +0900,
,,,,,,,Images/Speaker1.jpg,Images/Speaker2.jpg,Images/Speaker3.jpg,Images/Speaker4.jpg,Audio/Speaker4_Per/P4-14-Per.wav,Speaker4,گوینده۴,,,,,,,,,,,,,0,12,12,73,,,,,,,,,238.6704275000011,,,,,,,,,,,,,,,,,,,,,,,,,,,,,,,,,,,,,,,,,,,,,,,,,,,,,,,,,,,,,,,,,,,,,,,,,,236.15416158300286,236.1661920000006,None,No response,Images/Speaker1.jpg,Images/Speaker2.jpg,Images/Speaker3.jpg,Images/Speaker4.jpg,Audio/Speaker4_Per/P4-14-Per.wav,Speaker4,گوینده۴,,,,,,,,,,,,,,,,,,,112639,001,2024-06-30_17h30.29.801,5-24,2024.1.4,None,2024-06-30 17h30.34.868528 +0900,
,,,,,,,Images/Speaker1.jpg,Images/Speaker2.jpg,Images/Speaker3.jpg,Images/Speaker4.jpg,Audio/Speaker4_Per/P4-9-Per.wav,Speaker4,گوینده۴,,,,,,,,,,,,,0,13,13,68,,,,,,,,,238.6704275000011,,,,,,,,,,,,,,,,,,,,,,,,,,,,,,,,,,,,,,,,,,,,,,,,,,,,,,,,,,,,,,,,,,,,,,,,,,236.16633133300274,236.1775376250007,None,No response,Images/Speaker1.jpg,Images/Speaker2.jpg,Images/Speaker3.jpg,Images/Speaker4.jpg,Audio/Speaker4_Per/P4-9-Per.wav,Speaker4,گوینده۴,,,,,,,,,,,,,,,,,,,112639,001,2024-06-30_17h30.29.801,5-24,2024.1.4,None,2024-06-30 17h30.34.868528 +0900,
,,,,,,,Images/Speaker1.jpg,Images/Speaker2.jpg,Images/Speaker3.jpg,Images/Speaker4.jpg,Audio/Speaker1_Per/P1-7-Per.wav,Speaker1,گوینده ۱,,,,,,,,,,,,,0,14,14,6,,,,,,,,,238.6704275000011,,,,,,,,,,,,,,,,,,,,,,,,,,,,,,,,,,,,,,,,,,,,,,,,,,,,,,,,,,,,,,,,,,,,,,,,,,236.17769337500067,236.18835070800196,None,No response,Images/Speaker1.jpg,Images/Speaker2.jpg,Images/Speaker3.jpg,Images/Speaker4.jpg,Audio/Speaker1_Per/P1-7-Per.wav,Speaker4,گوینده۴,,,,,,,,,,,,,,,,,,,112639,001,2024-06-30_17h30.29.801,5-24,2024.1.4,None,2024-06-30 17h30.34.868528 +0900,
,,,,,,,Images/Speaker1.jpg,Images/Speaker2.jpg,Images/Speaker3.jpg,Images/Speaker4.jpg,Audio/Speaker1_Per/P1-15-Per.wav,Speaker1,گوینده ۱,,,,,,,,,,,,,0,15,15,14,,,,,,,,,238.6704275000011,,,,,,,,,,,,,,,,,,,,,,,,,,,,,,,,,,,,,,,,,,,,,,,,,,,,,,,,,,,,,,,,,,,,,,,,,,236.1884962080003,236.19967495800302,None,No response,Images/Speaker1.jpg,Images/Speaker2.jpg,Images/Speaker3.jpg,Images/Speaker4.jpg,Audio/Speaker1_Per/P1-15-Per.wav,Speaker4,گوینده۴,,,,,,,,,,,,,,,,,,,112639,001,2024-06-30_17h30.29.801,5-24,2024.1.4,None,2024-06-30 17h30.34.868528 +0900,
,,,,,,,Images/Speaker1.jpg,Images/Speaker2.jpg,Images/Speaker3.jpg,Images/Speaker4.jpg,Audio/Speaker3_Per/P3-8-Per.wav,Speaker3,گوینده۳,,,,,,,,,,,,,0,16,16,47,,,,,,,,,238.6704275000011,,,,,,,,,,,,,,,,,,,,,,,,,,,,,,,,,,,,,,,,,,,,,,,,,,,,,,,,,,,,,,,,,,,,,,,,,,236.19981679100238,236.21115333300258,None,No response,Images/Speaker1.jpg,Images/Speaker2.jpg,Images/Speaker3.jpg,Images/Speaker4.jpg,Audio/Speaker3_Per/P3-8-Per.wav,Speaker4,گوینده۴,,,,,,,,,,,,,,,,,,,112639,001,2024-06-30_17h30.29.801,5-24,2024.1.4,None,2024-06-30 17h30.34.868528 +0900,
,,,,,,,Images/Speaker1.jpg,Images/Speaker2.jpg,Images/Speaker3.jpg,Images/Speaker4.jpg,Audio/Speaker2_Per/P2-13-Per.wav,Speaker2,گوینده۲,,,,,,,,,,,,,0,17,17,32,,,,,,,,,238.6704275000011,,,,,,,,,,,,,,,,,,,,,,,,,,,,,,,,,,,,,,,,,,,,,,,,,,,,,,,,,,,,,,,,,,,,,,,,,,236.21129079100137,236.2225161660026,None,No response,Images/Speaker1.jpg,Images/Speaker2.jpg,Images/Speaker3.jpg,Images/Speaker4.jpg,Audio/Speaker2_Per/P2-13-Per.wav,Speaker4,گوینده۴,,,,,,,,,,,,,,,,,,,112639,001,2024-06-30_17h30.29.801,5-24,2024.1.4,None,2024-06-30 17h30.34.868528 +0900,
,,,,,,,Images/Speaker1.jpg,Images/Speaker2.jpg,Images/Speaker3.jpg,Images/Speaker4.jpg,Audio/Speaker2_Per/P2-4-Per.wav,Speaker2,گوینده۲,,,,,,,,,,,,,0,18,18,23,,,,,,,,,238.6704275000011,,,,,,,,,,,,,,,,,,,,,,,,,,,,,,,,,,,,,,,,,,,,,,,,,,,,,,,,,,,,,,,,,,,,,,,,,,236.2226539580006,236.2336269160005,None,No response,Images/Speaker1.jpg,Images/Speaker2.jpg,Images/Speaker3.jpg,Images/Speaker4.jpg,Audio/Speaker2_Per/P2-4-Per.wav,Speaker4,گوینده۴,,,,,,,,,,,,,,,,,,,112639,001,2024-06-30_17h30.29.801,5-24,2024.1.4,None,2024-06-30 17h30.34.868528 +0900,
,,,,,,,Images/Speaker1.jpg,Images/Speaker2.jpg,Images/Speaker3.jpg,Images/Speaker4.jpg,Audio/Speaker4_Per/P4-1-Per.wav,Speaker4,گوینده۴,,,,,,,,,,,,,0,19,19,60,,,,,,,,,238.6704275000011,,,,,,,,,,,,,,,,,,,,,,,,,,,,,,,,,,,,,,,,,,,,,,,,,,,,,,,,,,,,,,,,,,,,,,,,,,236.23376570800247,236.24487037500148,None,No response,Images/Speaker1.jpg,Images/Speaker2.jpg,Images/Speaker3.jpg,Images/Speaker4.jpg,Audio/Speaker4_Per/P4-1-Per.wav,Speaker4,گوینده۴,,,,,,,,,,,,,,,,,,,112639,001,2024-06-30_17h30.29.801,5-24,2024.1.4,None,2024-06-30 17h30.34.868528 +0900,
,,,,,,,Images/Speaker1.jpg,Images/Speaker2.jpg,Images/Speaker3.jpg,Images/Speaker4.jpg,Audio/Speaker3_Per/P3-4-Per.wav,Speaker3,گوینده۳,,,,,,,,,,,,,0,20,20,43,,,,,,,,,238.6704275000011,,,,,,,,,,,,,,,,,,,,,,,,,,,,,,,,,,,,,,,,,,,,,,,,,,,,,,,,,,,,,,,,,,,,,,,,,,236.24501729100302,236.2568941660029,None,No response,Images/Speaker1.jpg,Images/Speaker2.jpg,Images/Speaker3.jpg,Images/Speaker4.jpg,Audio/Speaker3_Per/P3-4-Per.wav,Speaker4,گوینده۴,,,,,,,,,,,,,,,,,,,112639,001,2024-06-30_17h30.29.801,5-24,2024.1.4,None,2024-06-30 17h30.34.868528 +0900,
,,,,,,,Images/Speaker1.jpg,Images/Speaker2.jpg,Images/Speaker3.jpg,Images/Speaker4.jpg,Audio/Speaker2_Per/P2-14-Per.wav,Speaker2,گوینده۲,,,,,,,,,,,,,0,21,21,33,,,,,,,,,238.6704275000011,,,,,,,,,,,,,,,,,,,,,,,,,,,,,,,,,,,,,,,,,,,,,,,,,,,,,,,,,,,,,,,,,,,,,,,,,,236.2570398750031,236.26855558300304,None,No response,Images/Speaker1.jpg,Images/Speaker2.jpg,Images/Speaker3.jpg,Images/Speaker4.jpg,Audio/Speaker2_Per/P2-14-Per.wav,Speaker4,گوینده۴,,,,,,,,,,,,,,,,,,,112639,001,2024-06-30_17h30.29.801,5-24,2024.1.4,None,2024-06-30 17h30.34.868528 +0900,
,,,,,,,Images/Speaker1.jpg,Images/Speaker2.jpg,Images/Speaker3.jpg,Images/Speaker4.jpg,Audio/Speaker4_Per/P4-15-Per.wav,Speaker4,گوینده۴,,,,,,,,,,,,,0,22,22,74,,,,,,,,,238.6704275000011,,,,,,,,,,,,,,,,,,,,,,,,,,,,,,,,,,,,,,,,,,,,,,,,,,,,,,,,,,,,,,,,,,,,,,,,,,236.26869620800062,236.28014166600042,None,No response,Images/Speaker1.jpg,Images/Speaker2.jpg,Images/Speaker3.jpg,Images/Speaker4.jpg,Audio/Speaker4_Per/P4-15-Per.wav,Speaker4,گوینده۴,,,,,,,,,,,,,,,,,,,112639,001,2024-06-30_17h30.29.801,5-24,2024.1.4,None,2024-06-30 17h30.34.868528 +0900,
,,,,,,,Images/Speaker1.jpg,Images/Speaker2.jpg,Images/Speaker3.jpg,Images/Speaker4.jpg,Audio/Speaker3_Per/P3-16-Per.wav,Speaker3,گوینده۳,,,,,,,,,,,,,0,23,23,55,,,,,,,,,238.6704275000011,,,,,,,,,,,,,,,,,,,,,,,,,,,,,,,,,,,,,,,,,,,,,,,,,,,,,,,,,,,,,,,,,,,,,,,,,,236.28028487499978,236.29120766600317,None,No response,Images/Speaker1.jpg,Images/Speaker2.jpg,Images/Speaker3.jpg,Images/Speaker4.jpg,Audio/Speaker3_Per/P3-16-Per.wav,Speaker4,گوینده۴,,,,,,,,,,,,,,,,,,,112639,001,2024-06-30_17h30.29.801,5-24,2024.1.4,None,2024-06-30 17h30.34.868528 +0900,
,,,,,,,Images/Speaker1.jpg,Images/Speaker2.jpg,Images/Speaker3.jpg,Images/Speaker4.jpg,Audio/Speaker3_Per/P3-5-Per.wav,Speaker3,گوینده۳,,,,,,,,,,,,,0,24,24,44,,,,,,,,,238.6704275000011,,,,,,,,,,,,,,,,,,,,,,,,,,,,,,,,,,,,,,,,,,,,,,,,,,,,,,,,,,,,,,,,,,,,,,,,,,236.2913557080028,236.3030613330011,None,No response,Images/Speaker1.jpg,Images/Speaker2.jpg,Images/Speaker3.jpg,Images/Speaker4.jpg,Audio/Speaker3_Per/P3-5-Per.wav,Speaker4,گوینده۴,,,,,,,,,,,,,,,,,,,112639,001,2024-06-30_17h30.29.801,5-24,2024.1.4,None,2024-06-30 17h30.34.868528 +0900,
,,,,,,,Images/Speaker1.jpg,Images/Speaker2.jpg,Images/Speaker3.jpg,Images/Speaker4.jpg,Audio/Speaker1_Per/P1-10-Per.wav,Speaker1,گوینده ۱,,,,,,,,,,,,,0,25,25,9,,,,,,,,,238.6704275000011,,,,,,,,,,,,,,,,,,,,,,,,,,,,,,,,,,,,,,,,,,,,,,,,,,,,,,,,,,,,,,,,,,,,,,,,,,236.3032012500007,236.31526533299984,None,No response,Images/Speaker1.jpg,Images/Speaker2.jpg,Images/Speaker3.jpg,Images/Speaker4.jpg,Audio/Speaker1_Per/P1-10-Per.wav,Speaker4,گوینده۴,,,,,,,,,,,,,,,,,,,112639,001,2024-06-30_17h30.29.801,5-24,2024.1.4,None,2024-06-30 17h30.34.868528 +0900,
,,,,,,,Images/Speaker1.jpg,Images/Speaker2.jpg,Images/Speaker3.jpg,Images/Speaker4.jpg,Audio/Speaker4_Per/P4-4-Per.wav,Speaker4,گوینده۴,,,,,,,,,,,,,0,26,26,63,,,,,,,,,238.6704275000011,,,,,,,,,,,,,,,,,,,,,,,,,,,,,,,,,,,,,,,,,,,,,,,,,,,,,,,,,,,,,,,,,,,,,,,,,,236.31540295800005,236.3267598750026,None,No response,Images/Speaker1.jpg,Images/Speaker2.jpg,Images/Speaker3.jpg,Images/Speaker4.jpg,Audio/Speaker4_Per/P4-4-Per.wav,Speaker4,گوینده۴,,,,,,,,,,,,,,,,,,,112639,001,2024-06-30_17h30.29.801,5-24,2024.1.4,None,2024-06-30 17h30.34.868528 +0900,
,,,,,,,Images/Speaker1.jpg,Images/Speaker2.jpg,Images/Speaker3.jpg,Images/Speaker4.jpg,Audio/Speaker4_Per/P4-20-Per.wav,Speaker4,گوینده۴,,,,,,,,,,,,,0,27,27,79,,,,,,,,,238.6704275000011,,,,,,,,,,,,,,,,,,,,,,,,,,,,,,,,,,,,,,,,,,,,,,,,,,,,,,,,,,,,,,,,,,,,,,,,,,236.32689887500237,236.33804020800017,None,No response,Images/Speaker1.jpg,Images/Speaker2.jpg,Images/Speaker3.jpg,Images/Speaker4.jpg,Audio/Speaker4_Per/P4-20-Per.wav,Speaker4,گوینده۴,,,,,,,,,,,,,,,,,,,112639,001,2024-06-30_17h30.29.801,5-24,2024.1.4,None,2024-06-30 17h30.34.868528 +0900,
,,,,,,,Images/Speaker1.jpg,Images/Speaker2.jpg,Images/Speaker3.jpg,Images/Speaker4.jpg,Audio/Speaker3_Per/P3-3-Per.wav,Speaker3,گوینده۳,,,,,,,,,,,,,0,28,28,42,,,,,,,,,238.6704275000011,,,,,,,,,,,,,,,,,,,,,,,,,,,,,,,,,,,,,,,,,,,,,,,,,,,,,,,,,,,,,,,,,,,,,,,,,,236.33819058300287,236.34899516600126,None,No response,Images/Speaker1.jpg,Images/Speaker2.jpg,Images/Speaker3.jpg,Images/Speaker4.jpg,Audio/Speaker3_Per/P3-3-Per.wav,Speaker4,گوینده۴,,,,,,,,,,,,,,,,,,,112639,001,2024-06-30_17h30.29.801,5-24,2024.1.4,None,2024-06-30 17h30.34.868528 +0900,
,,,,,,,Images/Speaker1.jpg,Images/Speaker2.jpg,Images/Speaker3.jpg,Images/Speaker4.jpg,Audio/Speaker1_Per/P1-18-Per.wav,Speaker1,گوینده ۱,,,,,,,,,,,,,0,29,29,17,,,,,,,,,238.6704275000011,,,,,,,,,,,,,,,,,,,,,,,,,,,,,,,,,,,,,,,,,,,,,,,,,,,,,,,,,,,,,,,,,,,,,,,,,,236.3491352500023,236.35988637500122,None,No response,Images/Speaker1.jpg,Images/Speaker2.jpg,Images/Speaker3.jpg,Images/Speaker4.jpg,Audio/Speaker1_Per/P1-18-Per.wav,Speaker4,گوینده۴,,,,,,,,,,,,,,,,,,,112639,001,2024-06-30_17h30.29.801,5-24,2024.1.4,None,2024-06-30 17h30.34.868528 +0900,
,,,,,,,Images/Speaker1.jpg,Images/Speaker2.jpg,Images/Speaker3.jpg,Images/Speaker4.jpg,Audio/Speaker1_Per/P1-17-Per.wav,Speaker1,گوینده ۱,,,,,,,,,,,,,0,30,30,16,,,,,,,,,238.6704275000011,,,,,,,,,,,,,,,,,,,,,,,,,,,,,,,,,,,,,,,,,,,,,,,,,,,,,,,,,,,,,,,,,,,,,,,,,,236.36002895800266,236.37024512500284,None,No response,Images/Speaker1.jpg,Images/Speaker2.jpg,Images/Speaker3.jpg,Images/Speaker4.jpg,Audio/Speaker1_Per/P1-17-Per.wav,Speaker4,گوینده۴,,,,,,,,,,,,,,,,,,,112639,001,2024-06-30_17h30.29.801,5-24,2024.1.4,None,2024-06-30 17h30.34.868528 +0900,
,,,,,,,Images/Speaker1.jpg,Images/Speaker2.jpg,Images/Speaker3.jpg,Images/Speaker4.jpg,Audio/Speaker4_Per/P4-5-Per.wav,Speaker4,گوینده۴,,,,,,,,,,,,,0,31,31,64,,,,,,,,,238.6704275000011,,,,,,,,,,,,,,,,,,,,,,,,,,,,,,,,,,,,,,,,,,,,,,,,,,,,,,,,,,,,,,,,,,,,,,,,,,236.3703955000019,236.3815456250013,None,No response,Images/Speaker1.jpg,Images/Speaker2.jpg,Images/Speaker3.jpg,Images/Speaker4.jpg,Audio/Speaker4_Per/P4-5-Per.wav,Speaker4,گوینده۴,,,,,,,,,,,,,,,,,,,112639,001,2024-06-30_17h30.29.801,5-24,2024.1.4,None,2024-06-30 17h30.34.868528 +0900,
,,,,,,,Images/Speaker1.jpg,Images/Speaker2.jpg,Images/Speaker3.jpg,Images/Speaker4.jpg,Audio/Speaker2_Per/P2-6-Per.wav,Speaker2,گوینده۲,,,,,,,,,,,,,0,32,32,25,,,,,,,,,238.6704275000011,,,,,,,,,,,,,,,,,,,,,,,,,,,,,,,,,,,,,,,,,,,,,,,,,,,,,,,,,,,,,,,,,,,,,,,,,,236.3816852910022,236.39248741600022,None,No response,Images/Speaker1.jpg,Images/Speaker2.jpg,Images/Speaker3.jpg,Images/Speaker4.jpg,Audio/Speaker2_Per/P2-6-Per.wav,Speaker4,گوینده۴,,,,,,,,,,,,,,,,,,,112639,001,2024-06-30_17h30.29.801,5-24,2024.1.4,None,2024-06-30 17h30.34.868528 +0900,
,,,,,,,Images/Speaker1.jpg,Images/Speaker2.jpg,Images/Speaker3.jpg,Images/Speaker4.jpg,Audio/Speaker3_Per/P3-14-Per.wav,Speaker3,گوینده۳,,,,,,,,,,,,,0,33,33,53,,,,,,,,,238.6704275000011,,,,,,,,,,,,,,,,,,,,,,,,,,,,,,,,,,,,,,,,,,,,,,,,,,,,,,,,,,,,,,,,,,,,,,,,,,236.39262883300034,236.40448450000258,None,No response,Images/Speaker1.jpg,Images/Speaker2.jpg,Images/Speaker3.jpg,Images/Speaker4.jpg,Audio/Speaker3_Per/P3-14-Per.wav,Speaker4,گوینده۴,,,,,,,,,,,,,,,,,,,112639,001,2024-06-30_17h30.29.801,5-24,2024.1.4,None,2024-06-30 17h30.34.868528 +0900,
,,,,,,,Images/Speaker1.jpg,Images/Speaker2.jpg,Images/Speaker3.jpg,Images/Speaker4.jpg,Audio/Speaker4_Per/P4-10-Per.wav,Speaker4,گوینده۴,,,,,,,,,,,,,0,34,34,69,,,,,,,,,238.6704275000011,,,,,,,,,,,,,,,,,,,,,,,,,,,,,,,,,,,,,,,,,,,,,,,,,,,,,,,,,,,,,,,,,,,,,,,,,,236.40462741600277,236.4156552500026,None,No response,Images/Speaker1.jpg,Images/Speaker2.jpg,Images/Speaker3.jpg,Images/Speaker4.jpg,Audio/Speaker4_Per/P4-10-Per.wav,Speaker4,گوینده۴,,,,,,,,,,,,,,,,,,,112639,001,2024-06-30_17h30.29.801,5-24,2024.1.4,None,2024-06-30 17h30.34.868528 +0900,
,,,,,,,Images/Speaker1.jpg,Images/Speaker2.jpg,Images/Speaker3.jpg,Images/Speaker4.jpg,Audio/Speaker2_Per/P2-9-Per.wav,Speaker2,گوینده۲,,,,,,,,,,,,,0,35,35,28,,,,,,,,,238.6704275000011,,,,,,,,,,,,,,,,,,,,,,,,,,,,,,,,,,,,,,,,,,,,,,,,,,,,,,,,,,,,,,,,,,,,,,,,,,236.41579754100167,236.42658225000196,None,No response,Images/Speaker1.jpg,Images/Speaker2.jpg,Images/Speaker3.jpg,Images/Speaker4.jpg,Audio/Speaker2_Per/P2-9-Per.wav,Speaker4,گوینده۴,,,,,,,,,,,,,,,,,,,112639,001,2024-06-30_17h30.29.801,5-24,2024.1.4,None,2024-06-30 17h30.34.868528 +0900,
,,,,,,,Images/Speaker1.jpg,Images/Speaker2.jpg,Images/Speaker3.jpg,Images/Speaker4.jpg,Audio/Speaker4_Per/P4-17-Per.wav,Speaker4,گوینده۴,,,,,,,,,,,,,0,36,36,76,,,,,,,,,238.6704275000011,,,,,,,,,,,,,,,,,,,,,,,,,,,,,,,,,,,,,,,,,,,,,,,,,,,,,,,,,,,,,,,,,,,,,,,,,,236.42673775000003,236.4374784160027,None,No response,Images/Speaker1.jpg,Images/Speaker2.jpg,Images/Speaker3.jpg,Images/Speaker4.jpg,Audio/Speaker4_Per/P4-17-Per.wav,Speaker4,گوینده۴,,,,,,,,,,,,,,,,,,,112639,001,2024-06-30_17h30.29.801,5-24,2024.1.4,None,2024-06-30 17h30.34.868528 +0900,
,,,,,,,Images/Speaker1.jpg,Images/Speaker2.jpg,Images/Speaker3.jpg,Images/Speaker4.jpg,Audio/Speaker2_Per/P2-17-Per.wav,Speaker2,گوینده۲,,,,,,,,,,,,,0,37,37,36,,,,,,,,,238.6704275000011,,,,,,,,,,,,,,,,,,,,,,,,,,,,,,,,,,,,,,,,,,,,,,,,,,,,,,,,,,,,,,,,,,,,,,,,,,236.43762629100092,236.44847820799987,None,No response,Images/Speaker1.jpg,Images/Speaker2.jpg,Images/Speaker3.jpg,Images/Speaker4.jpg,Audio/Speaker2_Per/P2-17-Per.wav,Speaker4,گوینده۴,,,,,,,,,,,,,,,,,,,112639,001,2024-06-30_17h30.29.801,5-24,2024.1.4,None,2024-06-30 17h30.34.868528 +0900,
,,,,,,,Images/Speaker1.jpg,Images/Speaker2.jpg,Images/Speaker3.jpg,Images/Speaker4.jpg,Audio/Speaker1_Per/P1-3-Per.wav,Speaker1,گوینده ۱,,,,,,,,,,,,,0,38,38,2,,,,,,,,,238.6704275000011,,,,,,,,,,,,,,,,,,,,,,,,,,,,,,,,,,,,,,,,,,,,,,,,,,,,,,,,,,,,,,,,,,,,,,,,,,236.44862608300173,236.45933541600243,None,No response,Images/Speaker1.jpg,Images/Speaker2.jpg,Images/Speaker3.jpg,Images/Speaker4.jpg,Audio/Speaker1_Per/P1-3-Per.wav,Speaker4,گوینده۴,,,,,,,,,,,,,,,,,,,112639,001,2024-06-30_17h30.29.801,5-24,2024.1.4,None,2024-06-30 17h30.34.868528 +0900,
,,,,,,,Images/Speaker1.jpg,Images/Speaker2.jpg,Images/Speaker3.jpg,Images/Speaker4.jpg,Audio/Speaker1_Per/P1-4-Per.wav,Speaker1,گوینده ۱,,,,,,,,,,,,,0,39,39,3,,,,,,,,,238.6704275000011,,,,,,,,,,,,,,,,,,,,,,,,,,,,,,,,,,,,,,,,,,,,,,,,,,,,,,,,,,,,,,,,,,,,,,,,,,236.45948279100048,236.47068050000235,None,No response,Images/Speaker1.jpg,Images/Speaker2.jpg,Images/Speaker3.jpg,Images/Speaker4.jpg,Audio/Speaker1_Per/P1-4-Per.wav,Speaker4,گوینده۴,,,,,,,,,,,,,,,,,,,112639,001,2024-06-30_17h30.29.801,5-24,2024.1.4,None,2024-06-30 17h30.34.868528 +0900,
,,,,,,,Images/Speaker1.jpg,Images/Speaker2.jpg,Images/Speaker3.jpg,Images/Speaker4.jpg,Audio/Speaker3_Per/P3-15-Per.wav,Speaker3,گوینده۳,,,,,,,,,,,,,0,40,40,54,,,,,,,,,238.6704275000011,,,,,,,,,,,,,,,,,,,,,,,,,,,,,,,,,,,,,,,,,,,,,,,,,,,,,,,,,,,,,,,,,,,,,,,,,,236.47083079100048,236.48264812500202,None,No response,Images/Speaker1.jpg,Images/Speaker2.jpg,Images/Speaker3.jpg,Images/Speaker4.jpg,Audio/Speaker3_Per/P3-15-Per.wav,Speaker4,گوینده۴,,,,,,,,,,,,,,,,,,,112639,001,2024-06-30_17h30.29.801,5-24,2024.1.4,None,2024-06-30 17h30.34.868528 +0900,
,,,,,,,Images/Speaker1.jpg,Images/Speaker2.jpg,Images/Speaker3.jpg,Images/Speaker4.jpg,Audio/Speaker4_Per/P4-19-Per.wav,Speaker4,گوینده۴,,,,,,,,,,,,,0,41,41,78,,,,,,,,,238.6704275000011,,,,,,,,,,,,,,,,,,,,,,,,,,,,,,,,,,,,,,,,,,,,,,,,,,,,,,,,,,,,,,,,,,,,,,,,,,236.4827817910009,236.49434941599975,None,No response,Images/Speaker1.jpg,Images/Speaker2.jpg,Images/Speaker3.jpg,Images/Speaker4.jpg,Audio/Speaker4_Per/P4-19-Per.wav,Speaker4,گوینده۴,,,,,,,,,,,,,,,,,,,112639,001,2024-06-30_17h30.29.801,5-24,2024.1.4,None,2024-06-30 17h30.34.868528 +0900,
,,,,,,,Images/Speaker1.jpg,Images/Speaker2.jpg,Images/Speaker3.jpg,Images/Speaker4.jpg,Audio/Speaker4_Per/P4-8-Per.wav,Speaker4,گوینده۴,,,,,,,,,,,,,0,42,42,67,,,,,,,,,238.6704275000011,,,,,,,,,,,,,,,,,,,,,,,,,,,,,,,,,,,,,,,,,,,,,,,,,,,,,,,,,,,,,,,,,,,,,,,,,,236.49449279100008,236.50565462500163,None,No response,Images/Speaker1.jpg,Images/Speaker2.jpg,Images/Speaker3.jpg,Images/Speaker4.jpg,Audio/Speaker4_Per/P4-8-Per.wav,Speaker4,گوینده۴,,,,,,,,,,,,,,,,,,,112639,001,2024-06-30_17h30.29.801,5-24,2024.1.4,None,2024-06-30 17h30.34.868528 +0900,
,,,,,,,Images/Speaker1.jpg,Images/Speaker2.jpg,Images/Speaker3.jpg,Images/Speaker4.jpg,Audio/Speaker3_Per/P3-20-Per.wav,Speaker3,گوینده۳,,,,,,,,,,,,,0,43,43,59,,,,,,,,,238.6704275000011,,,,,,,,,,,,,,,,,,,,,,,,,,,,,,,,,,,,,,,,,,,,,,,,,,,,,,,,,,,,,,,,,,,,,,,,,,236.50579579100304,236.5166926660022,None,No response,Images/Speaker1.jpg,Images/Speaker2.jpg,Images/Speaker3.jpg,Images/Speaker4.jpg,Audio/Speaker3_Per/P3-20-Per.wav,Speaker4,گوینده۴,,,,,,,,,,,,,,,,,,,112639,001,2024-06-30_17h30.29.801,5-24,2024.1.4,None,2024-06-30 17h30.34.868528 +0900,
,,,,,,,Images/Speaker1.jpg,Images/Speaker2.jpg,Images/Speaker3.jpg,Images/Speaker4.jpg,Audio/Speaker3_Per/P3-10-Per.wav,Speaker3,گوینده۳,,,,,,,,,,,,,0,44,44,49,,,,,,,,,238.6704275000011,,,,,,,,,,,,,,,,,,,,,,,,,,,,,,,,,,,,,,,,,,,,,,,,,,,,,,,,,,,,,,,,,,,,,,,,,,236.51683008300097,236.52854070800095,None,No response,Images/Speaker1.jpg,Images/Speaker2.jpg,Images/Speaker3.jpg,Images/Speaker4.jpg,Audio/Speaker3_Per/P3-10-Per.wav,Speaker4,گوینده۴,,,,,,,,,,,,,,,,,,,112639,001,2024-06-30_17h30.29.801,5-24,2024.1.4,None,2024-06-30 17h30.34.868528 +0900,
,,,,,,,Images/Speaker1.jpg,Images/Speaker2.jpg,Images/Speaker3.jpg,Images/Speaker4.jpg,Audio/Speaker2_Per/P2-3-Per.wav,Speaker2,گوینده۲,,,,,,,,,,,,,0,45,45,22,,,,,,,,,238.6704275000011,,,,,,,,,,,,,,,,,,,,,,,,,,,,,,,,,,,,,,,,,,,,,,,,,,,,,,,,,,,,,,,,,,,,,,,,,,236.5286906250003,236.53943725000136,None,No response,Images/Speaker1.jpg,Images/Speaker2.jpg,Images/Speaker3.jpg,Images/Speaker4.jpg,Audio/Speaker2_Per/P2-3-Per.wav,Speaker4,گوینده۴,,,,,,,,,,,,,,,,,,,112639,001,2024-06-30_17h30.29.801,5-24,2024.1.4,None,2024-06-30 17h30.34.868528 +0900,
,,,,,,,Images/Speaker1.jpg,Images/Speaker2.jpg,Images/Speaker3.jpg,Images/Speaker4.jpg,Audio/Speaker1_Per/P1-9-Per.wav,Speaker1,گوینده ۱,,,,,,,,,,,,,0,46,46,8,,,,,,,,,238.6704275000011,,,,,,,,,,,,,,,,,,,,,,,,,,,,,,,,,,,,,,,,,,,,,,,,,,,,,,,,,,,,,,,,,,,,,,,,,,236.5395778330021,236.55098700000235,None,No response,Images/Speaker1.jpg,Images/Speaker2.jpg,Images/Speaker3.jpg,Images/Speaker4.jpg,Audio/Speaker1_Per/P1-9-Per.wav,Speaker4,گوینده۴,,,,,,,,,,,,,,,,,,,112639,001,2024-06-30_17h30.29.801,5-24,2024.1.4,None,2024-06-30 17h30.34.868528 +0900,
,,,,,,,Images/Speaker1.jpg,Images/Speaker2.jpg,Images/Speaker3.jpg,Images/Speaker4.jpg,Audio/Speaker3_Per/P3-1-Per.wav,Speaker3,گوینده۳,,,,,,,,,,,,,0,47,47,40,,,,,,,,,238.6704275000011,,,,,,,,,,,,,,,,,,,,,,,,,,,,,,,,,,,,,,,,,,,,,,,,,,,,,,,,,,,,,,,,,,,,,,,,,,236.5511277500009,236.5620222079997,None,No response,Images/Speaker1.jpg,Images/Speaker2.jpg,Images/Speaker3.jpg,Images/Speaker4.jpg,Audio/Speaker3_Per/P3-1-Per.wav,Speaker4,گوینده۴,,,,,,,,,,,,,,,,,,,112639,001,2024-06-30_17h30.29.801,5-24,2024.1.4,None,2024-06-30 17h30.34.868528 +0900,
,,,,,,,Images/Speaker1.jpg,Images/Speaker2.jpg,Images/Speaker3.jpg,Images/Speaker4.jpg,Audio/Speaker3_Per/P3-17-Per.wav,Speaker3,گوینده۳,,,,,,,,,,,,,0,48,48,56,,,,,,,,,238.6704275000011,,,,,,,,,,,,,,,,,,,,,,,,,,,,,,,,,,,,,,,,,,,,,,,,,,,,,,,,,,,,,,,,,,,,,,,,,,236.56215783300286,236.5728859160008,None,No response,Images/Speaker1.jpg,Images/Speaker2.jpg,Images/Speaker3.jpg,Images/Speaker4.jpg,Audio/Speaker3_Per/P3-17-Per.wav,Speaker4,گوینده۴,,,,,,,,,,,,,,,,,,,112639,001,2024-06-30_17h30.29.801,5-24,2024.1.4,None,2024-06-30 17h30.34.868528 +0900,
,,,,,,,Images/Speaker1.jpg,Images/Speaker2.jpg,Images/Speaker3.jpg,Images/Speaker4.jpg,Audio/Speaker4_Per/P4-11-Per.wav,Speaker4,گوینده۴,,,,,,,,,,,,,0,49,49,70,,,,,,,,,238.6704275000011,,,,,,,,,,,,,,,,,,,,,,,,,,,,,,,,,,,,,,,,,,,,,,,,,,,,,,,,,,,,,,,,,,,,,,,,,,236.5730215830008,236.5848167080003,None,No response,Images/Speaker1.jpg,Images/Speaker2.jpg,Images/Speaker3.jpg,Images/Speaker4.jpg,Audio/Speaker4_Per/P4-11-Per.wav,Speaker4,گوینده۴,,,,,,,,,,,,,,,,,,,112639,001,2024-06-30_17h30.29.801,5-24,2024.1.4,None,2024-06-30 17h30.34.868528 +0900,
,,,,,,,Images/Speaker1.jpg,Images/Speaker2.jpg,Images/Speaker3.jpg,Images/Speaker4.jpg,Audio/Speaker1_Per/P1-16-Per.wav,Speaker1,گوینده ۱,,,,,,,,,,,,,0,50,50,15,,,,,,,,,238.6704275000011,,,,,,,,,,,,,,,,,,,,,,,,,,,,,,,,,,,,,,,,,,,,,,,,,,,,,,,,,,,,,,,,,,,,,,,,,,236.58496062500126,236.59576333299992,None,No response,Images/Speaker1.jpg,Images/Speaker2.jpg,Images/Speaker3.jpg,Images/Speaker4.jpg,Audio/Speaker1_Per/P1-16-Per.wav,Speaker4,گوینده۴,,,,,,,,,,,,,,,,,,,112639,001,2024-06-30_17h30.29.801,5-24,2024.1.4,None,2024-06-30 17h30.34.868528 +0900,
,,,,,,,Images/Speaker1.jpg,Images/Speaker2.jpg,Images/Speaker3.jpg,Images/Speaker4.jpg,Audio/Speaker2_Per/P2-1-Per.wav,Speaker2,گوینده۲,,,,,,,,,,,,,0,51,51,20,,,,,,,,,238.6704275000011,,,,,,,,,,,,,,,,,,,,,,,,,,,,,,,,,,,,,,,,,,,,,,,,,,,,,,,,,,,,,,,,,,,,,,,,,,236.59590420800305,236.60639754099975,None,No response,Images/Speaker1.jpg,Images/Speaker2.jpg,Images/Speaker3.jpg,Images/Speaker4.jpg,Audio/Speaker2_Per/P2-1-Per.wav,Speaker4,گوینده۴,,,,,,,,,,,,,,,,,,,112639,001,2024-06-30_17h30.29.801,5-24,2024.1.4,None,2024-06-30 17h30.34.868528 +0900,
,,,,,,,Images/Speaker1.jpg,Images/Speaker2.jpg,Images/Speaker3.jpg,Images/Speaker4.jpg,Audio/Speaker3_Per/P3-11-Per.wav,Speaker3,گوینده۳,,,,,,,,,,,,,0,52,52,50,,,,,,,,,238.6704275000011,,,,,,,,,,,,,,,,,,,,,,,,,,,,,,,,,,,,,,,,,,,,,,,,,,,,,,,,,,,,,,,,,,,,,,,,,,236.60653270800321,236.6183348750019,None,No response,Images/Speaker1.jpg,Images/Speaker2.jpg,Images/Speaker3.jpg,Images/Speaker4.jpg,Audio/Speaker3_Per/P3-11-Per.wav,Speaker4,گوینده۴,,,,,,,,,,,,,,,,,,,112639,001,2024-06-30_17h30.29.801,5-24,2024.1.4,None,2024-06-30 17h30.34.868528 +0900,
,,,,,,,Images/Speaker1.jpg,Images/Speaker2.jpg,Images/Speaker3.jpg,Images/Speaker4.jpg,Audio/Speaker1_Per/P1-4-Per.wav,Speaker1,گوینده ۱,,,,,,,,,,,,,0,53,53,13,,,,,,,,,238.6704275000011,,,,,,,,,,,,,,,,,,,,,,,,,,,,,,,,,,,,,,,,,,,,,,,,,,,,,,,,,,,,,,,,,,,,,,,,,,236.61848062500212,236.6291655410023,None,No response,Images/Speaker1.jpg,Images/Speaker2.jpg,Images/Speaker3.jpg,Images/Speaker4.jpg,Audio/Speaker1_Per/P1-4-Per.wav,Speaker4,گوینده۴,,,,,,,,,,,,,,,,,,,112639,001,2024-06-30_17h30.29.801,5-24,2024.1.4,None,2024-06-30 17h30.34.868528 +0900,
,,,,,,,Images/Speaker1.jpg,Images/Speaker2.jpg,Images/Speaker3.jpg,Images/Speaker4.jpg,Audio/Speaker3_Per/P3-7-Per.wav,Speaker3,گوینده۳,,,,,,,,,,,,,0,54,54,46,,,,,,,,,238.6704275000011,,,,,,,,,,,,,,,,,,,,,,,,,,,,,,,,,,,,,,,,,,,,,,,,,,,,,,,,,,,,,,,,,,,,,,,,,,236.62931091599967,236.64080770800138,None,No response,Images/Speaker1.jpg,Images/Speaker2.jpg,Images/Speaker3.jpg,Images/Speaker4.jpg,Audio/Speaker3_Per/P3-7-Per.wav,Speaker4,گوینده۴,,,,,,,,,,,,,,,,,,,112639,001,2024-06-30_17h30.29.801,5-24,2024.1.4,None,2024-06-30 17h30.34.868528 +0900,
,,,,,,,Images/Speaker1.jpg,Images/Speaker2.jpg,Images/Speaker3.jpg,Images/Speaker4.jpg,Audio/Speaker3_Per/P3-19-Per.wav,Speaker3,گوینده۳,,,,,,,,,,,,,0,55,55,58,,,,,,,,,238.6704275000011,,,,,,,,,,,,,,,,,,,,,,,,,,,,,,,,,,,,,,,,,,,,,,,,,,,,,,,,,,,,,,,,,,,,,,,,,,236.64094975000262,236.65259945800062,None,No response,Images/Speaker1.jpg,Images/Speaker2.jpg,Images/Speaker3.jpg,Images/Speaker4.jpg,Audio/Speaker3_Per/P3-19-Per.wav,Speaker4,گوینده۴,,,,,,,,,,,,,,,,,,,112639,001,2024-06-30_17h30.29.801,5-24,2024.1.4,None,2024-06-30 17h30.34.868528 +0900,
,,,,,,,Images/Speaker1.jpg,Images/Speaker2.jpg,Images/Speaker3.jpg,Images/Speaker4.jpg,Audio/Speaker2_Per/P2-7-Per.wav,Speaker2,گوینده۲,,,,,,,,,,,,,0,56,56,26,,,,,,,,,238.6704275000011,,,,,,,,,,,,,,,,,,,,,,,,,,,,,,,,,,,,,,,,,,,,,,,,,,,,,,,,,,,,,,,,,,,,,,,,,,236.65274070800297,236.66373558300256,None,No response,Images/Speaker1.jpg,Images/Speaker2.jpg,Images/Speaker3.jpg,Images/Speaker4.jpg,Audio/Speaker2_Per/P2-7-Per.wav,Speaker4,گوینده۴,,,,,,,,,,,,,,,,,,,112639,001,2024-06-30_17h30.29.801,5-24,2024.1.4,None,2024-06-30 17h30.34.868528 +0900,
,,,,,,,Images/Speaker1.jpg,Images/Speaker2.jpg,Images/Speaker3.jpg,Images/Speaker4.jpg,Audio/Speaker1_Per/P1-8-Per.wav,Speaker1,گوینده ۱,,,,,,,,,,,,,0,57,57,7,,,,,,,,,238.6704275000011,,,,,,,,,,,,,,,,,,,,,,,,,,,,,,,,,,,,,,,,,,,,,,,,,,,,,,,,,,,,,,,,,,,,,,,,,,236.66388341600032,236.67535800000041,None,No response,Images/Speaker1.jpg,Images/Speaker2.jpg,Images/Speaker3.jpg,Images/Speaker4.jpg,Audio/Speaker1_Per/P1-8-Per.wav,Speaker4,گوینده۴,,,,,,,,,,,,,,,,,,,112639,001,2024-06-30_17h30.29.801,5-24,2024.1.4,None,2024-06-30 17h30.34.868528 +0900,
,,,,,,,Images/Speaker1.jpg,Images/Speaker2.jpg,Images/Speaker3.jpg,Images/Speaker4.jpg,Audio/Speaker2_Per/P2-19-Per.wav,Speaker2,گوینده۲,,,,,,,,,,,,,0,58,58,38,,,,,,,,,238.6704275000011,,,,,,,,,,,,,,,,,,,,,,,,,,,,,,,,,,,,,,,,,,,,,,,,,,,,,,,,,,,,,,,,,,,,,,,,,,236.67550183300045,236.68666579100318,None,No response,Images/Speaker1.jpg,Images/Speaker2.jpg,Images/Speaker3.jpg,Images/Speaker4.jpg,Audio/Speaker2_Per/P2-19-Per.wav,Speaker4,گوینده۴,,,,,,,,,,,,,,,,,,,112639,001,2024-06-30_17h30.29.801,5-24,2024.1.4,None,2024-06-30 17h30.34.868528 +0900,
,,,,,,,Images/Speaker1.jpg,Images/Speaker2.jpg,Images/Speaker3.jpg,Images/Speaker4.jpg,Audio/Speaker4_Per/P4-2-Per.wav,Speaker4,گوینده۴,,,,,,,,,,,,,0,59,59,61,,,,,,,,,238.6704275000011,,,,,,,,,,,,,,,,,,,,,,,,,,,,,,,,,,,,,,,,,,,,,,,,,,,,,,,,,,,,,,,,,,,,,,,,,,236.68680962500002,236.69874650000202,None,No response,Images/Speaker1.jpg,Images/Speaker2.jpg,Images/Speaker3.jpg,Images/Speaker4.jpg,Audio/Speaker4_Per/P4-2-Per.wav,Speaker4,گوینده۴,,,,,,,,,,,,,,,,,,,112639,001,2024-06-30_17h30.29.801,5-24,2024.1.4,None,2024-06-30 17h30.34.868528 +0900,
,,,,,,,Images/Speaker1.jpg,Images/Speaker2.jpg,Images/Speaker3.jpg,Images/Speaker4.jpg,Audio/Speaker4_Per/P4-18-Per.wav,Speaker4,گوینده۴,,,,,,,,,,,,,0,60,60,77,,,,,,,,,238.6704275000011,,,,,,,,,,,,,,,,,,,,,,,,,,,,,,,,,,,,,,,,,,,,,,,,,,,,,,,,,,,,,,,,,,,,,,,,,,236.69888900000296,236.70956750000187,None,No response,Images/Speaker1.jpg,Images/Speaker2.jpg,Images/Speaker3.jpg,Images/Speaker4.jpg,Audio/Speaker4_Per/P4-18-Per.wav,Speaker4,گوینده۴,,,,,,,,,,,,,,,,,,,112639,001,2024-06-30_17h30.29.801,5-24,2024.1.4,None,2024-06-30 17h30.34.868528 +0900,
,,,,,,,Images/Speaker1.jpg,Images/Speaker2.jpg,Images/Speaker3.jpg,Images/Speaker4.jpg,Audio/Speaker4_Per/P4-12-Per.wav,Speaker4,گوینده۴,,,,,,,,,,,,,0,61,61,71,,,,,,,,,238.6704275000011,,,,,,,,,,,,,,,,,,,,,,,,,,,,,,,,,,,,,,,,,,,,,,,,,,,,,,,,,,,,,,,,,,,,,,,,,,236.70970149999994,236.72023991600145,None,No response,Images/Speaker1.jpg,Images/Speaker2.jpg,Images/Speaker3.jpg,Images/Speaker4.jpg,Audio/Speaker4_Per/P4-12-Per.wav,Speaker4,گوینده۴,,,,,,,,,,,,,,,,,,,112639,001,2024-06-30_17h30.29.801,5-24,2024.1.4,None,2024-06-30 17h30.34.868528 +0900,
,,,,,,,Images/Speaker1.jpg,Images/Speaker2.jpg,Images/Speaker3.jpg,Images/Speaker4.jpg,Audio/Speaker4_Per/P4-7-Per.wav,Speaker4,گوینده۴,,,,,,,,,,,,,0,62,62,66,,,,,,,,,238.6704275000011,,,,,,,,,,,,,,,,,,,,,,,,,,,,,,,,,,,,,,,,,,,,,,,,,,,,,,,,,,,,,,,,,,,,,,,,,,236.72037541600002,236.73126712500016,None,No response,Images/Speaker1.jpg,Images/Speaker2.jpg,Images/Speaker3.jpg,Images/Speaker4.jpg,Audio/Speaker4_Per/P4-7-Per.wav,Speaker4,گوینده۴,,,,,,,,,,,,,,,,,,,112639,001,2024-06-30_17h30.29.801,5-24,2024.1.4,None,2024-06-30 17h30.34.868528 +0900,
,,,,,,,Images/Speaker1.jpg,Images/Speaker2.jpg,Images/Speaker3.jpg,Images/Speaker4.jpg,Audio/Speaker3_Per/P3-6-Per.wav,Speaker3,گوینده۳,,,,,,,,,,,,,0,63,63,45,,,,,,,,,238.6704275000011,,,,,,,,,,,,,,,,,,,,,,,,,,,,,,,,,,,,,,,,,,,,,,,,,,,,,,,,,,,,,,,,,,,,,,,,,,236.73140533300102,236.74311262500123,None,No response,Images/Speaker1.jpg,Images/Speaker2.jpg,Images/Speaker3.jpg,Images/Speaker4.jpg,Audio/Speaker3_Per/P3-6-Per.wav,Speaker4,گوینده۴,,,,,,,,,,,,,,,,,,,112639,001,2024-06-30_17h30.29.801,5-24,2024.1.4,None,2024-06-30 17h30.34.868528 +0900,
,,,,,,,Images/Speaker1.jpg,Images/Speaker2.jpg,Images/Speaker3.jpg,Images/Speaker4.jpg,Audio/Speaker2_Per/P2-16-Per.wav,Speaker2,گوینده۲,,,,,,,,,,,,,0,64,64,35,,,,,,,,,238.6704275000011,,,,,,,,,,,,,,,,,,,,,,,,,,,,,,,,,,,,,,,,,,,,,,,,,,,,,,,,,,,,,,,,,,,,,,,,,,236.74324745800186,236.75388575000034,None,No response,Images/Speaker1.jpg,Images/Speaker2.jpg,Images/Speaker3.jpg,Images/Speaker4.jpg,Audio/Speaker2_Per/P2-16-Per.wav,Speaker4,گوینده۴,,,,,,,,,,,,,,,,,,,112639,001,2024-06-30_17h30.29.801,5-24,2024.1.4,None,2024-06-30 17h30.34.868528 +0900,
,,,,,,,Images/Speaker1.jpg,Images/Speaker2.jpg,Images/Speaker3.jpg,Images/Speaker4.jpg,Audio/Speaker4_Per/P4-3-Per.wav,Speaker4,گوینده۴,,,,,,,,,,,,,0,65,65,62,,,,,,,,,238.6704275000011,,,,,,,,,,,,,,,,,,,,,,,,,,,,,,,,,,,,,,,,,,,,,,,,,,,,,,,,,,,,,,,,,,,,,,,,,,236.75402879100147,236.76537983300295,None,No response,Images/Speaker1.jpg,Images/Speaker2.jpg,Images/Speaker3.jpg,Images/Speaker4.jpg,Audio/Speaker4_Per/P4-3-Per.wav,Speaker4,گوینده۴,,,,,,,,,,,,,,,,,,,112639,001,2024-06-30_17h30.29.801,5-24,2024.1.4,None,2024-06-30 17h30.34.868528 +0900,
,,,,,,,Images/Speaker1.jpg,Images/Speaker2.jpg,Images/Speaker3.jpg,Images/Speaker4.jpg,Audio/Speaker1_Per/P1-2-Per.wav,Speaker1,گوینده ۱,,,,,,,,,,,,,0,66,66,1,,,,,,,,,238.6704275000011,,,,,,,,,,,,,,,,,,,,,,,,,,,,,,,,,,,,,,,,,,,,,,,,,,,,,,,,,,,,,,,,,,,,,,,,,,236.76551720800126,236.77692416600257,None,No response,Images/Speaker1.jpg,Images/Speaker2.jpg,Images/Speaker3.jpg,Images/Speaker4.jpg,Audio/Speaker1_Per/P1-2-Per.wav,Speaker4,گوینده۴,,,,,,,,,,,,,,,,,,,112639,001,2024-06-30_17h30.29.801,5-24,2024.1.4,None,2024-06-30 17h30.34.868528 +0900,
,,,,,,,Images/Speaker1.jpg,Images/Speaker2.jpg,Images/Speaker3.jpg,Images/Speaker4.jpg,Audio/Speaker3_Per/P3-13-Per.wav,Speaker3,گوینده۳,,,,,,,,,,,,,0,67,67,52,,,,,,,,,238.6704275000011,,,,,,,,,,,,,,,,,,,,,,,,,,,,,,,,,,,,,,,,,,,,,,,,,,,,,,,,,,,,,,,,,,,,,,,,,,236.77706462500282,236.7881539580012,None,No response,Images/Speaker1.jpg,Images/Speaker2.jpg,Images/Speaker3.jpg,Images/Speaker4.jpg,Audio/Speaker3_Per/P3-13-Per.wav,Speaker4,گوینده۴,,,,,,,,,,,,,,,,,,,112639,001,2024-06-30_17h30.29.801,5-24,2024.1.4,None,2024-06-30 17h30.34.868528 +0900,
,,,,,,,Images/Speaker1.jpg,Images/Speaker2.jpg,Images/Speaker3.jpg,Images/Speaker4.jpg,Audio/Speaker3_Per/P3-12-Per.wav,Speaker3,گوینده۳,,,,,,,,,,,,,0,68,68,51,,,,,,,,,238.6704275000011,,,,,,,,,,,,,,,,,,,,,,,,,,,,,,,,,,,,,,,,,,,,,,,,,,,,,,,,,,,,,,,,,,,,,,,,,,236.78829229100302,236.79895512500298,None,No response,Images/Speaker1.jpg,Images/Speaker2.jpg,Images/Speaker3.jpg,Images/Speaker4.jpg,Audio/Speaker3_Per/P3-12-Per.wav,Speaker4,گوینده۴,,,,,,,,,,,,,,,,,,,112639,001,2024-06-30_17h30.29.801,5-24,2024.1.4,None,2024-06-30 17h30.34.868528 +0900,
,,,,,,,Images/Speaker1.jpg,Images/Speaker2.jpg,Images/Speaker3.jpg,Images/Speaker4.jpg,Audio/Speaker2_Per/P2-5-Per.wav,Speaker2,گوینده۲,,,,,,,,,,,,,0,69,69,24,,,,,,,,,238.6704275000011,,,,,,,,,,,,,,,,,,,,,,,,,,,,,,,,,,,,,,,,,,,,,,,,,,,,,,,,,,,,,,,,,,,,,,,,,,236.7990928750005,236.80994054100302,None,No response,Images/Speaker1.jpg,Images/Speaker2.jpg,Images/Speaker3.jpg,Images/Speaker4.jpg,Audio/Speaker2_Per/P2-5-Per.wav,Speaker4,گوینده۴,,,,,,,,,,,,,,,,,,,112639,001,2024-06-30_17h30.29.801,5-24,2024.1.4,None,2024-06-30 17h30.34.868528 +0900,
,,,,,,,Images/Speaker1.jpg,Images/Speaker2.jpg,Images/Speaker3.jpg,Images/Speaker4.jpg,Audio/Speaker2_Per/P2-11-Per.wav,Speaker2,گوینده۲,,,,,,,,,,,,,0,70,70,30,,,,,,,,,238.6704275000011,,,,,,,,,,,,,,,,,,,,,,,,,,,,,,,,,,,,,,,,,,,,,,,,,,,,,,,,,,,,,,,,,,,,,,,,,,236.8100757909997,236.82117812500292,None,No response,Images/Speaker1.jpg,Images/Speaker2.jpg,Images/Speaker3.jpg,Images/Speaker4.jpg,Audio/Speaker2_Per/P2-11-Per.wav,Speaker4,گوینده۴,,,,,,,,,,,,,,,,,,,112639,001,2024-06-30_17h30.29.801,5-24,2024.1.4,None,2024-06-30 17h30.34.868528 +0900,
,,,,,,,Images/Speaker1.jpg,Images/Speaker2.jpg,Images/Speaker3.jpg,Images/Speaker4.jpg,Audio/Speaker4_Per/P4-16-Per.wav,Speaker4,گوینده۴,,,,,,,,,,,,,0,71,71,75,,,,,,,,,238.6704275000011,,,,,,,,,,,,,,,,,,,,,,,,,,,,,,,,,,,,,,,,,,,,,,,,,,,,,,,,,,,,,,,,,,,,,,,,,,236.82131208300052,236.83244362500045,None,No response,Images/Speaker1.jpg,Images/Speaker2.jpg,Images/Speaker3.jpg,Images/Speaker4.jpg,Audio/Speaker4_Per/P4-16-Per.wav,Speaker4,گوینده۴,,,,,,,,,,,,,,,,,,,112639,001,2024-06-30_17h30.29.801,5-24,2024.1.4,None,2024-06-30 17h30.34.868528 +0900,
,,,,,,,Images/Speaker1.jpg,Images/Speaker2.jpg,Images/Speaker3.jpg,Images/Speaker4.jpg,Audio/Speaker2_Per/P2-18-Per.wav,Speaker2,گوینده۲,,,,,,,,,,,,,0,72,72,37,,,,,,,,,238.6704275000011,,,,,,,,,,,,,,,,,,,,,,,,,,,,,,,,,,,,,,,,,,,,,,,,,,,,,,,,,,,,,,,,,,,,,,,,,,236.83258687499983,236.8431225830027,None,No response,Images/Speaker1.jpg,Images/Speaker2.jpg,Images/Speaker3.jpg,Images/Speaker4.jpg,Audio/Speaker2_Per/P2-18-Per.wav,Speaker4,گوینده۴,,,,,,,,,,,,,,,,,,,112639,001,2024-06-30_17h30.29.801,5-24,2024.1.4,None,2024-06-30 17h30.34.868528 +0900,
,,,,,,,Images/Speaker1.jpg,Images/Speaker2.jpg,Images/Speaker3.jpg,Images/Speaker4.jpg,Audio/Speaker2_Per/P2-2-Per.wav,Speaker2,گوینده۲,,,,,,,,,,,,,0,73,73,21,,,,,,,,,238.6704275000011,,,,,,,,,,,,,,,,,,,,,,,,,,,,,,,,,,,,,,,,,,,,,,,,,,,,,,,,,,,,,,,,,,,,,,,,,,236.8432582500027,236.85460737500034,None,No response,Images/Speaker1.jpg,Images/Speaker2.jpg,Images/Speaker3.jpg,Images/Speaker4.jpg,Audio/Speaker2_Per/P2-2-Per.wav,Speaker4,گوینده۴,,,,,,,,,,,,,,,,,,,112639,001,2024-06-30_17h30.29.801,5-24,2024.1.4,None,2024-06-30 17h30.34.868528 +0900,
