SpeakerImage1,SpeakerImage2,SpeakerImage3,SpeakerImage4,TrainingSound,EnglishCorrectAnswer,PersianCorrectAnswer,SpeakerPhoto1,SpeakerPhoto2,SpeakerPhoto3,SpeakerPhoto4,TestingSound,EnglishCorrectResponse,PersianCorrectResponse,TrainingLoopGroup1.thisRepN,TrainingLoopGroup1.thisTrialN,TrainingLoopGroup1.thisN,TrainingLoopGroup1.thisIndex,TrainingLoopGroup2.thisRepN,TrainingLoopGroup2.thisTrialN,TrainingLoopGroup2.thisN,TrainingLoopGroup2.thisIndex,TrainingLoopGroup3.thisRepN,TrainingLoopGroup3.thisTrialN,TrainingLoopGroup3.thisN,TrainingLoopGroup3.thisIndex,testPhase1Loop.thisRepN,testPhase1Loop.thisTrialN,testPhase1Loop.thisN,testPhase1Loop.thisIndex,thisRow.t,notes,trial.started,trial.stopped,GroupSelection.started,GroupInstructions.started,key_resp.started,GroupSelection.stopped,key_resp.keys,key_resp.rt,key_resp.duration,Introduction.started,text_2.started,image.started,sound_7.started,text_4.started,text_2.stopped,sound_8.started,image.stopped,text_4.stopped,image_7.started,sound_9.started,text_5.started,sound_10.started,image_7.stopped,text_5.stopped,image_8.started,sound_11.started,text_6.started,sound_12.started,image_8.stopped,text_6.stopped,image_9.started,sound_13.started,text_7.started,sound_14.started,image_9.stopped,text_7.stopped,Introduction.stopped,Instructions.started,InstructionText.started,InstructionText.stopped,Instructions.stopped,InitializeExperiment.started,InitializeExperiment.stopped,TrainingGroup3.started,SpeakerPicture3.started,image_15.started,image_16.started,image_17.started,Sound3.started,Instruction3.started,Response3.started,TrainingGroup3.stopped,feedbackText,Response3.keys,Response3.rt,Response3.duration,correct_responses,total_trials,FeedbackRoutine3.started,FeedbackText3.started,FeedbackText3.stopped,FeedbackRoutine3.stopped,TransitionRoutine.started,TransitionRoutine.stopped,nextRoutine,WelcomeTest.started,text_12.started,text_12.stopped,WelcomeTest.stopped,TestPhase1.started,test1_image1.started,test1_image2.started,test1_image3.started,test1_image4.started,test1_sound.started,text_3.started,test1_response_keyboard.started,TestPhase1.stopped,test1_response_keyboard.keys,test1_response_keyboard.rt,test1_response_keyboard.duration,test1_response,test1_image_file1,test1_image_file2,test1_image_file3,test1_image_file4,test1_sound_file,english_correct_answer,persian_correct_answer,participant,session,date,expName,psychopyVersion,frameRate,expStart,
,,,,,,,,,,,,,,,,,,,,,,,,,,,,,,,,0.011218958999961615,0.015602208999553113,,,,,,,,,,,,,,,,,,,,,,,,,,,,,,,,,,,,,,,,,,,,,,,,,,,,,,,,,,,,,,,,,,,,,,,,,,,,,,,,,,,,,,,,117743,001,2024-06-30_12h55.52.894,5-22,2024.1.4,None,2024-06-30 12h55.59.808038 +0900,
,,,,,,,,,,,,,,,,,,,,,,,,,,,,,,,,,,0.015619166999385925,0.021106666999912704,0.021106666999912704,1.123820667000473,3,1.0587880420007423,None,,,,,,,,,,,,,,,,,,,,,,,,,,,,,,,,,,,,,,,,,,,,,,,,,,,,,,,,,,,,,,,,,,,,,,,,,,,,,,,,,117743,001,2024-06-30_12h55.52.894,5-22,2024.1.4,None,2024-06-30 12h55.59.808038 +0900,
,,,,,,,,,,,,,,,,,,,,,,,,,,,,,,,,,,,,,,,,,1.1238478340001166,1.1839581250005722,6.12408937500004,6.132465041666607,6.12408937500004,6.177826708999419,11.132205875667085,16.124417584000184,16.124417584000184,16.124417584000184,16.135963750666875,16.124417584000184,21.12850079166698,26.118516209000518,26.118516209000518,26.118516209000518,26.127018916666444,26.118516209000518,31.123596666666586,36.1156885420005,36.1156885420005,36.12035283399928,36.132355208667164,36.12035283399928,41.127070750666704,46.11324637500002,46.11324637500002,46.10830383400025,,,,,,,,,,,,,,,,,,,,,,,,,,,,,,,,,,,,,,,,,,,,,,,,,,,,,117743,001,2024-06-30_12h55.52.894,5-22,2024.1.4,None,2024-06-30 12h55.59.808038 +0900,
,,,,,,,,,,,,,,,,,,,,,,,,,,,,,,,,,,,,,,,,,,,,,,,,,,,,,,,,,,,,,,,,,,,,,46.108369292000134,46.11324637500002,47.18305212499945,47.09899837500052,,,,,,,,,,,,,,,,,,,,,,,,,,,,,,,,,,,,,,,,,,,,,,,,,117743,001,2024-06-30_12h55.52.894,5-22,2024.1.4,None,2024-06-30 12h55.59.808038 +0900,
,,,,,,,,,,,,,,,,,,,,,,,,,,,,,,,,,,,,,,,,,,,,,,,,,,,,,,,,,,,,,,,,,,,,,,,,,47.09903216699968,47.09930370899929,,,,,,,,,,,,,,,,,,,,,,,,,,,,,,,,,,,,,,,,,,,,,,,117743,001,2024-06-30_12h55.52.894,5-22,2024.1.4,None,2024-06-30 12h55.59.808038 +0900,
Images/Speaker1.jpg,Images/Speaker2.jpg,Images/Speaker3.jpg,Images/Speaker4.jpg,Audio/Speaker1_En/P1-20-En.wav,Speaker1,گوینده ۱,,,,,,,,,,,,,,,,0,0,0,19,,,,,47.18305212499945,,,,,,,,,,,,,,,,,,,,,,,,,,,,,,,,,,,,,,,,,,,,,47.15654070900018,47.18305212499945,47.18305212499945,47.18305212499945,47.18305212499945,47.18158366733345,47.18305212499945,47.18305212499945,51.003933042000426,Incorrect! The correct answer is Speaker1. نادرست! پاسخ صحیح گوینده ۱ است,2,3.8103828330004035,None,0,1,51.004518084000665,51.01816983400022,53.02702045899969,53.002503792000425,,,,,,,,,,,,,,,,,,,,,,,,,,,,117743,001,2024-06-30_12h55.52.894,5-22,2024.1.4,None,2024-06-30 12h55.59.808038 +0900,
Images/Speaker1.jpg,Images/Speaker2.jpg,Images/Speaker3.jpg,Images/Speaker4.jpg,Audio/Speaker2_En/P2-2-En.wav,Speaker2,گوینده۲,,,,,,,,,,,,,,,,0,1,1,21,,,,,53.02702045899969,,,,,,,,,,,,,,,,,,,,,,,,,,,,,,,,,,,,,,,,,,,,,53.00267179199909,53.02702045899969,53.02702045899969,53.02702045899969,53.02702045899969,53.0355287923326,53.02702045899969,53.02702045899969,53.980315625,Correct! صحیح است,2,0.9447262499998033,None,0,2,53.98435262500061,54.00167816700014,,55.987206666999555,,,,,,,,,,,,,,,,,,,,,,,,,,,,117743,001,2024-06-30_12h55.52.894,5-22,2024.1.4,None,2024-06-30 12h55.59.808038 +0900,
Images/Speaker1.jpg,Images/Speaker2.jpg,Images/Speaker3.jpg,Images/Speaker4.jpg,Audio/Speaker4_En/P4-18-En.wav,Speaker4,گوینده۴,,,,,,,,,,,,,,,,0,2,2,77,,,,,56.0107226250002,,,,,,,,,,,,,,,,,,,,,,,,,,,,,,,,,,,,,,,,,,,,,55.98739491699962,56.0107226250002,56.0107226250002,56.0107226250002,56.0107226250002,56.02049650033271,56.0107226250002,56.0107226250002,57.05824587499956,Incorrect! The correct answer is Speaker4. نادرست! پاسخ صحیح گوینده۴ است,3,1.0403984999993554,None,0,3,57.06229499999972,57.07269754200024,59.08569191700008,59.05918783400011,,,,,,,,,,,,,,,,,,,,,,,,,,,,117743,001,2024-06-30_12h55.52.894,5-22,2024.1.4,None,2024-06-30 12h55.59.808038 +0900,
Images/Speaker1.jpg,Images/Speaker2.jpg,Images/Speaker3.jpg,Images/Speaker4.jpg,Audio/Speaker1_En/P1-15-En.wav,Speaker1,گوینده ۱,,,,,,,,,,,,,,,,0,3,3,14,,,,,59.08569191700008,,,,,,,,,,,,,,,,,,,,,,,,,,,,,,,,,,,,,,,,,,,,,59.05973362499935,59.08569191700008,59.08569191700008,59.08569191700008,59.08569191700008,59.09168883333271,59.08569191700008,59.08569191700008,60.21912545899977,Incorrect! The correct answer is Speaker1. نادرست! پاسخ صحیح گوینده ۱ است,3,1.119293124998876,None,0,4,60.22288395900068,60.23574712499976,,62.22596012500071,,,,,,,,,,,,,,,,,,,,,,,,,,,,117743,001,2024-06-30_12h55.52.894,5-22,2024.1.4,None,2024-06-30 12h55.59.808038 +0900,
Images/Speaker1.jpg,Images/Speaker2.jpg,Images/Speaker3.jpg,Images/Speaker4.jpg,Audio/Speaker1_En/P1-19-En.wav,Speaker1,گوینده ۱,,,,,,,,,,,,,,,,0,4,4,18,,,,,62.2509814999994,,,,,,,,,,,,,,,,,,,,,,,,,,,,,,,,,,,,,,,,,,,,,62.22613199999978,62.2509814999994,62.2509814999994,62.2509814999994,62.2509814999994,62.25925237533241,62.2509814999994,62.2509814999994,63.204254874999606,Incorrect! The correct answer is Speaker1. نادرست! پاسخ صحیح گوینده ۱ است,3,0.9517348329991364,None,0,5,63.20860483400065,63.22195516700049,,65.209823666999,,,,,,,,,,,,,,,,,,,,,,,,,,,,117743,001,2024-06-30_12h55.52.894,5-22,2024.1.4,None,2024-06-30 12h55.59.808038 +0900,
Images/Speaker1.jpg,Images/Speaker2.jpg,Images/Speaker3.jpg,Images/Speaker4.jpg,Audio/Speaker3_En/P3-4-En.wav,Speaker3,گوینده۳,,,,,,,,,,,,,,,,0,5,5,43,,,,,65.23719387500023,,,,,,,,,,,,,,,,,,,,,,,,,,,,,,,,,,,,,,,,,,,,,65.21037299999989,65.23719387500023,65.23719387500023,65.23719387500023,65.23719387500023,65.24252754233251,65.23719387500023,65.23719387500023,66.40126212500036,Incorrect! The correct answer is Speaker3. نادرست! پاسخ صحیح گوینده۳ است,2,1.1617775419999816,None,0,6,66.40547675000016,66.41916254199896,68.4261388750001,68.40194750000046,,,,,,,,,,,,,,,,,,,,,,,,,,,,117743,001,2024-06-30_12h55.52.894,5-22,2024.1.4,None,2024-06-30 12h55.59.808038 +0900,
Images/Speaker1.jpg,Images/Speaker2.jpg,Images/Speaker3.jpg,Images/Speaker4.jpg,Audio/Speaker1_En/P1-2-En.wav,Speaker1,گوینده ۱,,,,,,,,,,,,,,,,0,6,6,1,,,,,68.4261388750001,,,,,,,,,,,,,,,,,,,,,,,,,,,,,,,,,,,,,,,,,,,,,68.4021254170002,68.4261388750001,68.4261388750001,68.4261388750001,68.4261388750001,68.43504183333292,68.4261388750001,68.4261388750001,69.39913358400008,Incorrect! The correct answer is Speaker1. نادرست! پاسخ صحیح گوینده ۱ است,2,0.9681457919996319,None,0,7,69.40327208400049,69.41744708400074,71.42554779199963,71.40320233400053,,,,,,,,,,,,,,,,,,,,,,,,,,,,117743,001,2024-06-30_12h55.52.894,5-22,2024.1.4,None,2024-06-30 12h55.59.808038 +0900,
Images/Speaker1.jpg,Images/Speaker2.jpg,Images/Speaker3.jpg,Images/Speaker4.jpg,Audio/Speaker2_En/P2-12-En.wav,Speaker2,گوینده۲,,,,,,,,,,,,,,,,0,7,7,31,,,,,71.42554779199963,,,,,,,,,,,,,,,,,,,,,,,,,,,,,,,,,,,,,,,,,,,,,71.40336924999974,71.42554779199963,71.42554779199963,71.42554779199963,71.42554779199963,71.41969779166563,71.42554779199963,71.42554779199963,72.65294499999982,Incorrect! The correct answer is Speaker2. نادرست! پاسخ صحیح گوینده۲ است,3,1.2178719590010587,None,0,8,72.65705595899999,72.67015775000073,74.67640808400029,74.6532084169994,,,,,,,,,,,,,,,,,,,,,,,,,,,,117743,001,2024-06-30_12h55.52.894,5-22,2024.1.4,None,2024-06-30 12h55.59.808038 +0900,
Images/Speaker1.jpg,Images/Speaker2.jpg,Images/Speaker3.jpg,Images/Speaker4.jpg,Audio/Speaker2_En/P2-10-En.wav,Speaker2,گوینده۲,,,,,,,,,,,,,,,,0,8,8,29,,,,,74.67640808400029,,,,,,,,,,,,,,,,,,,,,,,,,,,,,,,,,,,,,,,,,,,,,74.65339029200004,74.67640808400029,74.67640808400029,74.67640808400029,74.67640808400029,74.68630750033347,74.67640808400029,74.67640808400029,76.01729058399906,Correct! صحیح است,2,1.3370773750011722,None,0,9,76.021360834,76.0342416250005,,78.0271133339993,,,,,,,,,,,,,,,,,,,,,,,,,,,,117743,001,2024-06-30_12h55.52.894,5-22,2024.1.4,None,2024-06-30 12h55.59.808038 +0900,
Images/Speaker1.jpg,Images/Speaker2.jpg,Images/Speaker3.jpg,Images/Speaker4.jpg,Audio/Speaker4_En/P4-5-En.wav,Speaker4,گوینده۴,,,,,,,,,,,,,,,,0,9,9,64,,,,,78.05383425000036,,,,,,,,,,,,,,,,,,,,,,,,,,,,,,,,,,,,,,,,,,,,,78.02765737499976,78.05383425000036,78.05383425000036,78.05383425000036,78.05383425000036,78.06028337533328,78.05383425000036,78.05383425000036,79.18097395899895,Incorrect! The correct answer is Speaker4. نادرست! پاسخ صحیح گوینده۴ است,3,1.1227531250005995,None,0,10,79.18490075000045,79.19815691700023,81.20705304200055,81.18448262499987,,,,,,,,,,,,,,,,,,,,,,,,,,,,117743,001,2024-06-30_12h55.52.894,5-22,2024.1.4,None,2024-06-30 12h55.59.808038 +0900,
Images/Speaker1.jpg,Images/Speaker2.jpg,Images/Speaker3.jpg,Images/Speaker4.jpg,Audio/Speaker4_En/P4-17-En.wav,Speaker4,گوینده۴,,,,,,,,,,,,,,,,0,10,10,76,,,,,81.20705304200055,,,,,,,,,,,,,,,,,,,,,,,,,,,,,,,,,,,,,,,,,,,,,81.18465425000068,81.20705304200055,81.20705304200055,81.20705304200055,81.20705304200055,81.20089341666632,81.20705304200055,81.20705304200055,82.00452824999957,Incorrect! The correct answer is Speaker4. نادرست! پاسخ صحیح گوینده۴ است,3,0.7953077500005747,None,0,11,82.00862183400022,82.02282650000052,,84.01864733399998,,,,,,,,,,,,,,,,,,,,,,,,,,,,117743,001,2024-06-30_12h55.52.894,5-22,2024.1.4,None,2024-06-30 12h55.59.808038 +0900,
Images/Speaker1.jpg,Images/Speaker2.jpg,Images/Speaker3.jpg,Images/Speaker4.jpg,Audio/Speaker3_En/P3-19-En.wav,Speaker3,گوینده۳,,,,,,,,,,,,,,,,0,11,11,58,,,,,84.04488395899898,,,,,,,,,,,,,,,,,,,,,,,,,,,,,,,,,,,,,,,,,,,,,84.01919275,84.04488395899898,84.04488395899898,84.04488395899898,84.04488395899898,84.05179137533244,84.04488395899898,84.04488395899898,85.1210900419992,Incorrect! The correct answer is Speaker3. نادرست! پاسخ صحیح گوینده۳ است,2,1.075176124999416,None,0,12,85.12482091699894,85.13782870899922,87.1491972090007,87.12309754200032,,,,,,,,,,,,,,,,,,,,,,,,,,,,117743,001,2024-06-30_12h55.52.894,5-22,2024.1.4,None,2024-06-30 12h55.59.808038 +0900,
Images/Speaker1.jpg,Images/Speaker2.jpg,Images/Speaker3.jpg,Images/Speaker4.jpg,Audio/Speaker3_En/P3-15-En.wav,Speaker3,گوینده۳,,,,,,,,,,,,,,,,0,12,12,54,,,,,87.1491972090007,,,,,,,,,,,,,,,,,,,,,,,,,,,,,,,,,,,,,,,,,,,,,87.12392458400063,87.1491972090007,87.1491972090007,87.1491972090007,87.1491972090007,87.15552420833276,87.1491972090007,87.1491972090007,88.31173166699955,Incorrect! The correct answer is Speaker3. نادرست! پاسخ صحیح گوینده۳ است,2,1.1552963329995691,None,0,13,88.31685295900024,88.33073470899944,,90.31838425000024,,,,,,,,,,,,,,,,,,,,,,,,,,,,117743,001,2024-06-30_12h55.52.894,5-22,2024.1.4,None,2024-06-30 12h55.59.808038 +0900,
Images/Speaker1.jpg,Images/Speaker2.jpg,Images/Speaker3.jpg,Images/Speaker4.jpg,Audio/Speaker3_En/P3-20-En.wav,Speaker3,گوینده۳,,,,,,,,,,,,,,,,0,13,13,59,,,,,90.34063133400014,,,,,,,,,,,,,,,,,,,,,,,,,,,,,,,,,,,,,,,,,,,,,90.31854454200038,90.34063133400014,90.34063133400014,90.34063133400014,90.34063133400014,90.33501404166624,90.34063133400014,90.34063133400014,91.46728016700035,Incorrect! The correct answer is Speaker3. نادرست! پاسخ صحیح گوینده۳ است,2,1.1232189169986668,None,0,14,91.47123912499956,91.483669792,,93.4729601250001,,,,,,,,,,,,,,,,,,,,,,,,,,,,117743,001,2024-06-30_12h55.52.894,5-22,2024.1.4,None,2024-06-30 12h55.59.808038 +0900,
Images/Speaker1.jpg,Images/Speaker2.jpg,Images/Speaker3.jpg,Images/Speaker4.jpg,Audio/Speaker2_En/P2-8-En.wav,Speaker2,گوینده۲,,,,,,,,,,,,,,,,0,14,14,27,,,,,93.49616170899935,,,,,,,,,,,,,,,,,,,,,,,,,,,,,,,,,,,,,,,,,,,,,93.47313483399921,93.49616170899935,93.49616170899935,93.49616170899935,93.49616170899935,93.48958854166655,93.49616170899935,93.49616170899935,94.77561841699935,Incorrect! The correct answer is Speaker2. نادرست! پاسخ صحیح گوینده۲ است,3,1.276280707999831,None,0,15,94.78031408400057,94.79396695899959,,96.7845725419993,,,,,,,,,,,,,,,,,,,,,,,,,,,,117743,001,2024-06-30_12h55.52.894,5-22,2024.1.4,None,2024-06-30 12h55.59.808038 +0900,
Images/Speaker1.jpg,Images/Speaker2.jpg,Images/Speaker3.jpg,Images/Speaker4.jpg,Audio/Speaker3_En/P3-7-En.wav,Speaker3,گوینده۳,,,,,,,,,,,,,,,,0,15,15,46,,,,,96.81031562499993,,,,,,,,,,,,,,,,,,,,,,,,,,,,,,,,,,,,,,,,,,,,,96.78520591699998,96.81031562499993,96.81031562499993,96.81031562499993,96.81031562499993,96.8176924583336,96.81031562499993,96.81031562499993,97.8378288749991,Incorrect! The correct answer is Speaker3. نادرست! پاسخ صحیح گوینده۳ است,2,1.0258767920004175,None,0,16,97.8418542090003,97.8552648749992,,99.84261137499925,,,,,,,,,,,,,,,,,,,,,,,,,,,,117743,001,2024-06-30_12h55.52.894,5-22,2024.1.4,None,2024-06-30 12h55.59.808038 +0900,
Images/Speaker1.jpg,Images/Speaker2.jpg,Images/Speaker3.jpg,Images/Speaker4.jpg,Audio/Speaker1_En/P1-11-En.wav,Speaker1,گوینده ۱,,,,,,,,,,,,,,,,0,16,16,10,,,,,99.86823841700061,,,,,,,,,,,,,,,,,,,,,,,,,,,,,,,,,,,,,,,,,,,,,99.84331454200037,99.86823841700061,99.86823841700061,99.86823841700061,99.86823841700061,99.87578541733322,99.86823841700061,99.86823841700061,100.87132495900005,Incorrect! The correct answer is Speaker1. نادرست! پاسخ صحیح گوینده ۱ است,2,1.0015548750016023,None,0,17,100.8756065840007,100.88876316700043,,102.8842101249993,,,,,,,,,,,,,,,,,,,,,,,,,,,,117743,001,2024-06-30_12h55.52.894,5-22,2024.1.4,None,2024-06-30 12h55.59.808038 +0900,
Images/Speaker1.jpg,Images/Speaker2.jpg,Images/Speaker3.jpg,Images/Speaker4.jpg,Audio/Speaker4_En/P4-15-En.wav,Speaker4,گوینده۴,,,,,,,,,,,,,,,,0,17,17,74,,,,,102.90970158399978,,,,,,,,,,,,,,,,,,,,,,,,,,,,,,,,,,,,,,,,,,,,,102.8843862499998,102.90970158399978,102.90970158399978,102.90970158399978,102.90970158399978,102.91750866733358,102.90970158399978,102.90970158399978,104.01587058400037,Incorrect! The correct answer is Speaker4. نادرست! پاسخ صحیح گوینده۴ است,2,1.100762541000222,None,0,18,104.02097654200043,104.03542895899955,106.0431526249995,106.02011120899988,,,,,,,,,,,,,,,,,,,,,,,,,,,,117743,001,2024-06-30_12h55.52.894,5-22,2024.1.4,None,2024-06-30 12h55.59.808038 +0900,
Images/Speaker1.jpg,Images/Speaker2.jpg,Images/Speaker3.jpg,Images/Speaker4.jpg,Audio/Speaker2_En/P2-18-En.wav,Speaker2,گوینده۲,,,,,,,,,,,,,,,,0,18,18,37,,,,,106.0431526249995,,,,,,,,,,,,,,,,,,,,,,,,,,,,,,,,,,,,,,,,,,,,,106.02029399999992,106.0431526249995,106.0431526249995,106.0431526249995,106.0431526249995,106.05321708333261,106.0431526249995,106.0431526249995,107.069405541999,Incorrect! The correct answer is Speaker2. نادرست! پاسخ صحیح گوینده۲ است,3,1.021110208999744,None,0,19,107.07344812500014,107.08673837499919,,109.07506029199976,,,,,,,,,,,,,,,,,,,,,,,,,,,,117743,001,2024-06-30_12h55.52.894,5-22,2024.1.4,None,2024-06-30 12h55.59.808038 +0900,
Images/Speaker1.jpg,Images/Speaker2.jpg,Images/Speaker3.jpg,Images/Speaker4.jpg,Audio/Speaker2_En/P2-15-En.wav,Speaker2,گوینده۲,,,,,,,,,,,,,,,,0,19,19,34,,,,,109.09830379199957,,,,,,,,,,,,,,,,,,,,,,,,,,,,,,,,,,,,,,,,,,,,,109.0752363749998,109.09830379199957,109.09830379199957,109.09830379199957,109.09830379199957,109.10835979233391,109.09830379199957,109.09830379199957,110.52509554199969,Incorrect! The correct answer is Speaker2. نادرست! پاسخ صحیح گوینده۲ است,3,1.4212777499997173,None,0,20,110.5294165840005,110.5418814170007,112.55239470900051,112.5270163339992,,,,,,,,,,,,,,,,,,,,,,,,,,,,117743,001,2024-06-30_12h55.52.894,5-22,2024.1.4,None,2024-06-30 12h55.59.808038 +0900,
Images/Speaker1.jpg,Images/Speaker2.jpg,Images/Speaker3.jpg,Images/Speaker4.jpg,Audio/Speaker4_En/P4-13-En.wav,Speaker4,گوینده۴,,,,,,,,,,,,,,,,0,20,20,72,,,,,112.55239470900051,,,,,,,,,,,,,,,,,,,,,,,,,,,,,,,,,,,,,,,,,,,,,112.52782458399997,112.55239470900051,112.55239470900051,112.55239470900051,112.55239470900051,112.55951300033351,112.55239470900051,112.55239470900051,113.73815337499946,Incorrect! The correct answer is Speaker4. نادرست! پاسخ صحیح گوینده۴ است,3,1.1846269999987271,None,0,21,113.74221933399895,113.75574658400001,115.76660541700039,115.74204724999981,,,,,,,,,,,,,,,,,,,,,,,,,,,,117743,001,2024-06-30_12h55.52.894,5-22,2024.1.4,None,2024-06-30 12h55.59.808038 +0900,
Images/Speaker1.jpg,Images/Speaker2.jpg,Images/Speaker3.jpg,Images/Speaker4.jpg,Audio/Speaker2_En/P2-1-En.wav,Speaker2,گوینده۲,,,,,,,,,,,,,,,,0,21,21,20,,,,,115.76660541700039,,,,,,,,,,,,,,,,,,,,,,,,,,,,,,,,,,,,,,,,,,,,,115.74261950000073,115.76660541700039,115.76660541700039,115.76660541700039,115.76660541700039,115.77463650033363,115.76660541700039,115.76660541700039,116.84849629199925,Incorrect! The correct answer is Speaker2. نادرست! پاسخ صحیح گوینده۲ است,3,1.0729010830000334,None,0,22,116.85285137500068,116.86676779200025,118.87678887499897,118.85289904199999,,,,,,,,,,,,,,,,,,,,,,,,,,,,117743,001,2024-06-30_12h55.52.894,5-22,2024.1.4,None,2024-06-30 12h55.59.808038 +0900,
Images/Speaker1.jpg,Images/Speaker2.jpg,Images/Speaker3.jpg,Images/Speaker4.jpg,Audio/Speaker1_En/P1-17-En.wav,Speaker1,گوینده ۱,,,,,,,,,,,,,,,,0,22,22,16,,,,,118.87678887499897,,,,,,,,,,,,,,,,,,,,,,,,,,,,,,,,,,,,,,,,,,,,,118.85373674999937,118.87678887499897,118.87678887499897,118.87678887499897,118.87678887499897,118.88532704233378,118.87678887499897,118.87678887499897,120.26431291699919,Incorrect! The correct answer is Speaker1. نادرست! پاسخ صحیح گوینده ۱ است,3,1.3763697919985134,None,0,23,120.26822762499978,120.27910566699938,122.29060033399946,122.26582812500055,,,,,,,,,,,,,,,,,,,,,,,,,,,,117743,001,2024-06-30_12h55.52.894,5-22,2024.1.4,None,2024-06-30 12h55.59.808038 +0900,
Images/Speaker1.jpg,Images/Speaker2.jpg,Images/Speaker3.jpg,Images/Speaker4.jpg,Audio/Speaker3_En/P3-12-En.wav,Speaker3,گوینده۳,,,,,,,,,,,,,,,,0,23,23,51,,,,,122.29060033399946,,,,,,,,,,,,,,,,,,,,,,,,,,,,,,,,,,,,,,,,,,,,,122.2665826249995,122.29060033399946,122.29060033399946,122.29060033399946,122.29060033399946,122.2984340833323,122.29060033399946,122.29060033399946,123.51679029200022,Incorrect! The correct answer is Speaker3. نادرست! پاسخ صحیح گوینده۳ است,2,1.2252405000017461,None,0,24,123.52068141699965,123.53354704199955,,125.52413745900049,,,,,,,,,,,,,,,,,,,,,,,,,,,,117743,001,2024-06-30_12h55.52.894,5-22,2024.1.4,None,2024-06-30 12h55.59.808038 +0900,
Images/Speaker1.jpg,Images/Speaker2.jpg,Images/Speaker3.jpg,Images/Speaker4.jpg,Audio/Speaker2_En/P2-7-En.wav,Speaker2,گوینده۲,,,,,,,,,,,,,,,,0,24,24,26,,,,,125.54735983399951,,,,,,,,,,,,,,,,,,,,,,,,,,,,,,,,,,,,,,,,,,,,,125.52430987499974,125.54735983399951,125.54735983399951,125.54735983399951,125.54735983399951,125.54076908366575,125.54735983399951,125.54735983399951,126.7463695839997,Incorrect! The correct answer is Speaker2. نادرست! پاسخ صحیح گوینده۲ است,3,1.1979824169993663,None,0,25,126.75010962499982,126.76301008399969,128.77368849999948,128.74867925000035,,,,,,,,,,,,,,,,,,,,,,,,,,,,117743,001,2024-06-30_12h55.52.894,5-22,2024.1.4,None,2024-06-30 12h55.59.808038 +0900,
Images/Speaker1.jpg,Images/Speaker2.jpg,Images/Speaker3.jpg,Images/Speaker4.jpg,Audio/Speaker1_En/P1-5-En.wav,Speaker1,گوینده ۱,,,,,,,,,,,,,,,,0,25,25,4,,,,,128.77368849999948,,,,,,,,,,,,,,,,,,,,,,,,,,,,,,,,,,,,,,,,,,,,,128.7488406249995,128.77368849999948,128.77368849999948,128.77368849999948,128.77368849999948,128.78172125033285,128.77368849999948,128.77368849999948,130.17639308400067,Incorrect! The correct answer is Speaker1. نادرست! پاسخ صحیح گوینده ۱ است,3,1.3928426249985932,None,0,26,130.18043095900066,130.1942726670004,132.20409333399948,132.17851329199948,,,,,,,,,,,,,,,,,,,,,,,,,,,,117743,001,2024-06-30_12h55.52.894,5-22,2024.1.4,None,2024-06-30 12h55.59.808038 +0900,
Images/Speaker1.jpg,Images/Speaker2.jpg,Images/Speaker3.jpg,Images/Speaker4.jpg,Audio/Speaker3_En/P3-11-En.wav,Speaker3,گوینده۳,,,,,,,,,,,,,,,,0,26,26,50,,,,,132.20409333399948,,,,,,,,,,,,,,,,,,,,,,,,,,,,,,,,,,,,,,,,,,,,,132.17953395899895,132.20409333399948,132.20409333399948,132.20409333399948,132.20409333399948,132.21076220833362,132.20409333399948,132.20409333399948,133.66012808400046,Incorrect! The correct answer is Speaker3. نادرست! پاسخ صحیح گوینده۳ است,2,1.450616333000653,None,0,27,133.66421116699894,133.67731208400073,,135.66899345899947,,,,,,,,,,,,,,,,,,,,,,,,,,,,117743,001,2024-06-30_12h55.52.894,5-22,2024.1.4,None,2024-06-30 12h55.59.808038 +0900,
Images/Speaker1.jpg,Images/Speaker2.jpg,Images/Speaker3.jpg,Images/Speaker4.jpg,Audio/Speaker1_En/P1-13-En.wav,Speaker1,گوینده ۱,,,,,,,,,,,,,,,,0,27,27,12,,,,,135.6954724169991,,,,,,,,,,,,,,,,,,,,,,,,,,,,,,,,,,,,,,,,,,,,,135.66962649999914,135.6954724169991,135.6954724169991,135.6954724169991,135.6954724169991,135.7021726673325,135.6954724169991,135.6954724169991,136.87573675000021,Incorrect! The correct answer is Speaker1. نادرست! پاسخ صحیح گوینده ۱ است,2,1.1780440830007137,None,0,28,136.87984154200058,136.89284670899906,138.90170633399975,138.87768220900034,,,,,,,,,,,,,,,,,,,,,,,,,,,,117743,001,2024-06-30_12h55.52.894,5-22,2024.1.4,None,2024-06-30 12h55.59.808038 +0900,
Images/Speaker1.jpg,Images/Speaker2.jpg,Images/Speaker3.jpg,Images/Speaker4.jpg,Audio/Speaker1_En/P1-4-En.wav,Speaker1,گوینده ۱,,,,,,,,,,,,,,,,0,28,28,13,,,,,138.90170633399975,,,,,,,,,,,,,,,,,,,,,,,,,,,,,,,,,,,,,,,,,,,,,138.87787799999933,138.90170633399975,138.90170633399975,138.90170633399975,138.90170633399975,138.91081629233355,138.90170633399975,138.90170633399975,140.03122483399966,Incorrect! The correct answer is Speaker1. نادرست! پاسخ صحیح گوینده ۱ است,2,1.1214057080014754,None,0,29,140.03544570899976,140.04638191699996,142.0624358339992,142.03572004200032,,,,,,,,,,,,,,,,,,,,,,,,,,,,117743,001,2024-06-30_12h55.52.894,5-22,2024.1.4,None,2024-06-30 12h55.59.808038 +0900,
Images/Speaker1.jpg,Images/Speaker2.jpg,Images/Speaker3.jpg,Images/Speaker4.jpg,Audio/Speaker4_En/P4-7-En.wav,Speaker4,گوینده۴,,,,,,,,,,,,,,,,0,29,29,66,,,,,142.0624358339992,,,,,,,,,,,,,,,,,,,,,,,,,,,,,,,,,,,,,,,,,,,,,142.0365231249998,142.0624358339992,142.0624358339992,142.0624358339992,142.0624358339992,142.068041500334,142.0624358339992,142.0624358339992,142.96732729199903,Incorrect! The correct answer is Speaker4. نادرست! پاسخ صحیح گوینده۴ است,2,0.9004160420008702,None,0,30,142.97145037500013,142.9845185840004,,144.97497345900047,,,,,,,,,,,,,,,,,,,,,,,,,,,,117743,001,2024-06-30_12h55.52.894,5-22,2024.1.4,None,2024-06-30 12h55.59.808038 +0900,
Images/Speaker1.jpg,Images/Speaker2.jpg,Images/Speaker3.jpg,Images/Speaker4.jpg,Audio/Speaker3_En/P3-18-En.wav,Speaker3,گوینده۳,,,,,,,,,,,,,,,,0,30,30,57,,,,,144.99979712499953,,,,,,,,,,,,,,,,,,,,,,,,,,,,,,,,,,,,,,,,,,,,,144.9755544590007,144.99979712499953,144.99979712499953,144.99979712499953,144.99979712499953,145.00815087533243,144.99979712499953,144.99979712499953,145.87154824999925,Incorrect! The correct answer is Speaker3. نادرست! پاسخ صحیح گوینده۳ است,2,0.870548165999935,None,0,31,145.87581237499944,145.88884808399962,147.89742800000022,147.87329362499986,,,,,,,,,,,,,,,,,,,,,,,,,,,,117743,001,2024-06-30_12h55.52.894,5-22,2024.1.4,None,2024-06-30 12h55.59.808038 +0900,
Images/Speaker1.jpg,Images/Speaker2.jpg,Images/Speaker3.jpg,Images/Speaker4.jpg,Audio/Speaker1_En/P1-1-En.wav,Speaker1,گوینده ۱,,,,,,,,,,,,,,,,0,31,31,0,,,,,147.89742800000022,,,,,,,,,,,,,,,,,,,,,,,,,,,,,,,,,,,,,,,,,,,,,147.87349741700018,147.89742800000022,147.89742800000022,147.89742800000022,147.89742800000022,147.90639658333254,147.89742800000022,147.89742800000022,148.91352304199972,Incorrect! The correct answer is Speaker1. نادرست! پاسخ صحیح گوینده ۱ است,2,1.0150158750002447,None,0,32,148.9177149999996,148.93080129199916,,150.92390387500018,,,,,,,,,,,,,,,,,,,,,,,,,,,,117743,001,2024-06-30_12h55.52.894,5-22,2024.1.4,None,2024-06-30 12h55.59.808038 +0900,
Images/Speaker1.jpg,Images/Speaker2.jpg,Images/Speaker3.jpg,Images/Speaker4.jpg,Audio/Speaker3_En/P3-13-En.wav,Speaker3,گوینده۳,,,,,,,,,,,,,,,,0,32,32,52,,,,,150.94737195900052,,,,,,,,,,,,,,,,,,,,,,,,,,,,,,,,,,,,,,,,,,,,,150.92407699999967,150.94737195900052,150.94737195900052,150.94737195900052,150.94737195900052,150.95720595833387,150.94737195900052,150.94737195900052,152.01690633399994,Incorrect! The correct answer is Speaker3. نادرست! پاسخ صحیح گوینده۳ است,2,1.066732334000335,None,0,33,152.0221178339998,152.0366762499998,,154.02276058399912,,,,,,,,,,,,,,,,,,,,,,,,,,,,117743,001,2024-06-30_12h55.52.894,5-22,2024.1.4,None,2024-06-30 12h55.59.808038 +0900,
Images/Speaker1.jpg,Images/Speaker2.jpg,Images/Speaker3.jpg,Images/Speaker4.jpg,Audio/Speaker3_En/P3-16-En.wav,Speaker3,گوینده۳,,,,,,,,,,,,,,,,0,33,33,55,,,,,154.04645529200025,,,,,,,,,,,,,,,,,,,,,,,,,,,,,,,,,,,,,,,,,,,,,154.0229569589992,154.04645529200025,154.04645529200025,154.04645529200025,154.04645529200025,154.0560478753328,154.04645529200025,154.04645529200025,155.1243116250007,Incorrect! The correct answer is Speaker3. نادرست! پاسخ صحیح گوینده۳ است,2,1.073370166001041,None,0,34,155.12803720900047,155.14123708400075,,157.13324900000043,,,,,,,,,,,,,,,,,,,,,,,,,,,,117743,001,2024-06-30_12h55.52.894,5-22,2024.1.4,None,2024-06-30 12h55.59.808038 +0900,
Images/Speaker1.jpg,Images/Speaker2.jpg,Images/Speaker3.jpg,Images/Speaker4.jpg,Audio/Speaker2_En/P2-19-En.wav,Speaker2,گوینده۲,,,,,,,,,,,,,,,,0,34,34,38,,,,,157.15618454200012,,,,,,,,,,,,,,,,,,,,,,,,,,,,,,,,,,,,,,,,,,,,,157.1334159170001,157.15618454200012,157.15618454200012,157.15618454200012,157.15618454200012,157.14986708366658,157.15618454200012,157.15618454200012,158.2839028340004,Incorrect! The correct answer is Speaker2. نادرست! پاسخ صحیح گوینده۲ است,3,1.1186036250001052,None,0,35,158.28810229199917,158.3012659169999,160.30880462499954,160.28411816699918,,,,,,,,,,,,,,,,,,,,,,,,,,,,117743,001,2024-06-30_12h55.52.894,5-22,2024.1.4,None,2024-06-30 12h55.59.808038 +0900,
Images/Speaker1.jpg,Images/Speaker2.jpg,Images/Speaker3.jpg,Images/Speaker4.jpg,Audio/Speaker3_En/P3-2-En.wav,Speaker3,گوینده۳,,,,,,,,,,,,,,,,0,35,35,41,,,,,160.30880462499954,,,,,,,,,,,,,,,,,,,,,,,,,,,,,,,,,,,,,,,,,,,,,160.28431158400053,160.30880462499954,160.30880462499954,160.30880462499954,160.30880462499954,160.31723816733262,160.30880462499954,160.30880462499954,161.60710383399964,Incorrect! The correct answer is Speaker3. نادرست! پاسخ صحیح گوینده۳ است,2,1.2953993329992954,None,0,36,161.61118020899994,161.62446495899894,,163.6181400839996,,,,,,,,,,,,,,,,,,,,,,,,,,,,117743,001,2024-06-30_12h55.52.894,5-22,2024.1.4,None,2024-06-30 12h55.59.808038 +0900,
Images/Speaker1.jpg,Images/Speaker2.jpg,Images/Speaker3.jpg,Images/Speaker4.jpg,Audio/Speaker2_En/P2-5-En.wav,Speaker2,گوینده۲,,,,,,,,,,,,,,,,0,36,36,24,,,,,163.64290599999913,,,,,,,,,,,,,,,,,,,,,,,,,,,,,,,,,,,,,,,,,,,,,163.61875316700025,163.64290599999913,163.64290599999913,163.64290599999913,163.64290599999913,163.6512899173327,163.64290599999913,163.64290599999913,164.90002995900068,Incorrect! The correct answer is Speaker2. نادرست! پاسخ صحیح گوینده۲ است,3,1.2513125000004948,None,0,37,164.90404212499925,164.9184259169997,,166.90494254199984,,,,,,,,,,,,,,,,,,,,,,,,,,,,117743,001,2024-06-30_12h55.52.894,5-22,2024.1.4,None,2024-06-30 12h55.59.808038 +0900,
Images/Speaker1.jpg,Images/Speaker2.jpg,Images/Speaker3.jpg,Images/Speaker4.jpg,Audio/Speaker4_En/P4-14-En.wav,Speaker4,گوینده۴,,,,,,,,,,,,,,,,0,37,37,73,,,,,166.92954425000062,,,,,,,,,,,,,,,,,,,,,,,,,,,,,,,,,,,,,,,,,,,,,166.90512720900006,166.92954425000062,166.92954425000062,166.92954425000062,166.92954425000062,166.9382342083341,166.92954425000062,166.92954425000062,168.66055691700058,Incorrect! The correct answer is Speaker4. نادرست! پاسخ صحیح گوینده۴ است,3,1.7199690420002298,None,0,38,168.66470333399957,168.67778675000045,,170.66927874999965,,,,,,,,,,,,,,,,,,,,,,,,,,,,117743,001,2024-06-30_12h55.52.894,5-22,2024.1.4,None,2024-06-30 12h55.59.808038 +0900,
Images/Speaker1.jpg,Images/Speaker2.jpg,Images/Speaker3.jpg,Images/Speaker4.jpg,Audio/Speaker3_En/P3-5-En.wav,Speaker3,گوینده۳,,,,,,,,,,,,,,,,0,38,38,44,,,,,170.69625245899988,,,,,,,,,,,,,,,,,,,,,,,,,,,,,,,,,,,,,,,,,,,,,170.66985550000027,170.69625245899988,170.69625245899988,170.69625245899988,170.69625245899988,170.70246587533308,170.69625245899988,170.69625245899988,171.86366112500036,Incorrect! The correct answer is Speaker3. نادرست! پاسخ صحیح گوینده۳ است,2,1.164179207999041,None,0,39,171.86887679199936,171.8822635840006,,173.87633962499967,,,,,,,,,,,,,,,,,,,,,,,,,,,,117743,001,2024-06-30_12h55.52.894,5-22,2024.1.4,None,2024-06-30 12h55.59.808038 +0900,
Images/Speaker1.jpg,Images/Speaker2.jpg,Images/Speaker3.jpg,Images/Speaker4.jpg,Audio/Speaker2_En/P2-11-En.wav,Speaker2,گوینده۲,,,,,,,,,,,,,,,,0,39,39,30,,,,,173.9027402920001,,,,,,,,,,,,,,,,,,,,,,,,,,,,,,,,,,,,,,,,,,,,,173.8769408749995,173.9027402920001,173.9027402920001,173.9027402920001,173.9027402920001,173.90947658333295,173.9027402920001,173.9027402920001,174.8989115839995,Incorrect! The correct answer is Speaker2. نادرست! پاسخ صحیح گوینده۲ است,3,0.9948006659997191,None,0,40,174.902785667,174.91711654199935,176.92716808399928,176.90186841700051,,,,,,,,,,,,,,,,,,,,,,,,,,,,117743,001,2024-06-30_12h55.52.894,5-22,2024.1.4,None,2024-06-30 12h55.59.808038 +0900,
Images/Speaker1.jpg,Images/Speaker2.jpg,Images/Speaker3.jpg,Images/Speaker4.jpg,Audio/Speaker4_En/P4-3-En.wav,Speaker4,گوینده۴,,,,,,,,,,,,,,,,0,40,40,62,,,,,176.92716808399928,,,,,,,,,,,,,,,,,,,,,,,,,,,,,,,,,,,,,,,,,,,,,176.90244141699986,176.92716808399928,176.92716808399928,176.92716808399928,176.92716808399928,176.9343440833332,176.92716808399928,176.92716808399928,178.12949966700035,Incorrect! The correct answer is Speaker4. نادرست! پاسخ صحیح گوینده۴ است,3,1.2008490829994116,None,0,41,178.13347183400037,178.14714149999963,180.15392266699928,180.13069687499956,,,,,,,,,,,,,,,,,,,,,,,,,,,,117743,001,2024-06-30_12h55.52.894,5-22,2024.1.4,None,2024-06-30 12h55.59.808038 +0900,
Images/Speaker1.jpg,Images/Speaker2.jpg,Images/Speaker3.jpg,Images/Speaker4.jpg,Audio/Speaker2_En/P2-13-En.wav,Speaker2,گوینده۲,,,,,,,,,,,,,,,,0,41,41,32,,,,,180.15392266699928,,,,,,,,,,,,,,,,,,,,,,,,,,,,,,,,,,,,,,,,,,,,,180.1308937499998,180.15392266699928,180.15392266699928,180.15392266699928,180.15392266699928,180.16378112533363,180.15392266699928,180.15392266699928,181.49043070900007,Incorrect! The correct answer is Speaker2. نادرست! پاسخ صحیح گوینده۲ است,3,1.3313038750002306,None,0,42,181.4944018339993,181.50742737499968,,183.50047633400027,,,,,,,,,,,,,,,,,,,,,,,,,,,,117743,001,2024-06-30_12h55.52.894,5-22,2024.1.4,None,2024-06-30 12h55.59.808038 +0900,
Images/Speaker1.jpg,Images/Speaker2.jpg,Images/Speaker3.jpg,Images/Speaker4.jpg,Audio/Speaker2_En/P2-4-En.wav,Speaker2,گوینده۲,,,,,,,,,,,,,,,,0,42,42,23,,,,,183.5253816250006,,,,,,,,,,,,,,,,,,,,,,,,,,,,,,,,,,,,,,,,,,,,,183.50114962499902,183.5253816250006,183.5253816250006,183.5253816250006,183.5253816250006,183.53365875033393,183.5253816250006,183.5253816250006,184.75179729199954,Incorrect! The correct answer is Speaker2. نادرست! پاسخ صحیح گوینده۲ است,3,1.2166369999995368,None,0,43,184.75569166700006,184.7687230419997,,186.75981958400007,,,,,,,,,,,,,,,,,,,,,,,,,,,,117743,001,2024-06-30_12h55.52.894,5-22,2024.1.4,None,2024-06-30 12h55.59.808038 +0900,
Images/Speaker1.jpg,Images/Speaker2.jpg,Images/Speaker3.jpg,Images/Speaker4.jpg,Audio/Speaker1_En/P1-10-En.wav,Speaker1,گوینده ۱,,,,,,,,,,,,,,,,0,43,43,9,,,,,186.78715349999948,,,,,,,,,,,,,,,,,,,,,,,,,,,,,,,,,,,,,,,,,,,,,186.76038587499897,186.78715349999948,186.78715349999948,186.78715349999948,186.78715349999948,186.79294116733269,186.78715349999948,186.78715349999948,187.87728587499987,Incorrect! The correct answer is Speaker1. نادرست! پاسخ صحیح گوینده ۱ است,3,1.0819549160005408,None,0,44,187.8810429589994,187.89505745899987,,189.88317237499905,,,,,,,,,,,,,,,,,,,,,,,,,,,,117743,001,2024-06-30_12h55.52.894,5-22,2024.1.4,None,2024-06-30 12h55.59.808038 +0900,
Images/Speaker1.jpg,Images/Speaker2.jpg,Images/Speaker3.jpg,Images/Speaker4.jpg,Audio/Speaker2_En/P2-20-En.wav,Speaker2,گوینده۲,,,,,,,,,,,,,,,,0,44,44,39,,,,,189.90762741700019,,,,,,,,,,,,,,,,,,,,,,,,,,,,,,,,,,,,,,,,,,,,,189.88371433400062,189.90762741700019,189.90762741700019,189.90762741700019,189.90762741700019,189.91632083333258,189.90762741700019,189.90762741700019,190.89235166700018,Incorrect! The correct answer is Speaker2. نادرست! پاسخ صحیح گوینده۲ است,3,0.9790109580007993,None,0,45,190.89730783400046,190.91069662500013,,192.90129833399988,,,,,,,,,,,,,,,,,,,,,,,,,,,,117743,001,2024-06-30_12h55.52.894,5-22,2024.1.4,None,2024-06-30 12h55.59.808038 +0900,
Images/Speaker1.jpg,Images/Speaker2.jpg,Images/Speaker3.jpg,Images/Speaker4.jpg,Audio/Speaker2_En/P2-17-En.wav,Speaker2,گوینده۲,,,,,,,,,,,,,,,,0,45,45,36,,,,,192.92384879199926,,,,,,,,,,,,,,,,,,,,,,,,,,,,,,,,,,,,,,,,,,,,,192.90148887500072,192.92384879199926,192.92384879199926,192.92384879199926,192.92384879199926,192.91793225066638,192.92384879199926,192.92384879199926,193.88887124999928,Incorrect! The correct answer is Speaker2. نادرست! پاسخ صحیح گوینده۲ است,3,0.9597170829983952,None,0,46,193.8926100839999,193.90581129199927,,195.9005269169993,,,,,,,,,,,,,,,,,,,,,,,,,,,,117743,001,2024-06-30_12h55.52.894,5-22,2024.1.4,None,2024-06-30 12h55.59.808038 +0900,
Images/Speaker1.jpg,Images/Speaker2.jpg,Images/Speaker3.jpg,Images/Speaker4.jpg,Audio/Speaker4_En/P4-19-En.wav,Speaker4,گوینده۴,,,,,,,,,,,,,,,,0,46,46,78,,,,,195.92282983400037,,,,,,,,,,,,,,,,,,,,,,,,,,,,,,,,,,,,,,,,,,,,,195.90069758400023,195.92282983400037,195.92282983400037,195.92282983400037,195.92282983400037,195.91714808366694,195.92282983400037,195.92282983400037,196.84199608400013,Incorrect! The correct answer is Speaker4. نادرست! پاسخ صحیح گوینده۴ است,3,0.9071251670011407,None,0,47,196.84576904200003,196.85915387500063,198.87148737499956,198.8434172920006,,,,,,,,,,,,,,,,,,,,,,,,,,,,117743,001,2024-06-30_12h55.52.894,5-22,2024.1.4,None,2024-06-30 12h55.59.808038 +0900,
Images/Speaker1.jpg,Images/Speaker2.jpg,Images/Speaker3.jpg,Images/Speaker4.jpg,Audio/Speaker3_En/P3-10-En.wav,Speaker3,گوینده۳,,,,,,,,,,,,,,,,0,47,47,49,,,,,198.87148737499956,,,,,,,,,,,,,,,,,,,,,,,,,,,,,,,,,,,,,,,,,,,,,198.84407970900065,198.87148737499956,198.87148737499956,198.87148737499956,198.87148737499956,198.87566950033266,198.87148737499956,198.87148737499956,201.76556183399953,Incorrect! The correct answer is Speaker3. نادرست! پاسخ صحیح گوینده۳ است,2,2.885113750000528,None,0,48,201.76984787499896,201.78005804200075,,203.77479716699963,,,,,,,,,,,,,,,,,,,,,,,,,,,,117743,001,2024-06-30_12h55.52.894,5-22,2024.1.4,None,2024-06-30 12h55.59.808038 +0900,
Images/Speaker1.jpg,Images/Speaker2.jpg,Images/Speaker3.jpg,Images/Speaker4.jpg,Audio/Speaker3_En/P3-1-En.wav,Speaker3,گوینده۳,,,,,,,,,,,,,,,,0,48,48,40,,,,,203.7994084589991,,,,,,,,,,,,,,,,,,,,,,,,,,,,,,,,,,,,,,,,,,,,,203.77535824999904,203.7994084589991,203.7994084589991,203.7994084589991,203.7994084589991,203.80796870833234,203.7994084589991,203.7994084589991,298.19645895900067,Correct! صحیح است,3,94.39482275000046,None,0,49,298.1966892090004,298.20761474999927,300.2144707919997,300.1910478339996,,,,,,,,,,,,,,,,,,,,,,,,,,,,117743,001,2024-06-30_12h55.52.894,5-22,2024.1.4,None,2024-06-30 12h55.59.808038 +0900,
Images/Speaker1.jpg,Images/Speaker2.jpg,Images/Speaker3.jpg,Images/Speaker4.jpg,Audio/Speaker1_En/P1-7-En.wav,Speaker1,گوینده ۱,,,,,,,,,,,,,,,,0,49,49,6,,,,,300.2144707919997,,,,,,,,,,,,,,,,,,,,,,,,,,,,,,,,,,,,,,,,,,,,,300.1912431670007,300.2144707919997,300.2144707919997,300.2144707919997,300.2144707919997,300.22411733333365,300.2144707919997,300.2144707919997,303.1885132089992,Incorrect! The correct answer is Speaker1. نادرست! پاسخ صحیح گوینده ۱ است,2,2.9713119580010243,None,0,50,303.18875616699916,303.2020062920001,305.20997145900037,305.18720604199916,,,,,,,,,,,,,,,,,,,,,,,,,,,,117743,001,2024-06-30_12h55.52.894,5-22,2024.1.4,None,2024-06-30 12h55.59.808038 +0900,
Images/Speaker1.jpg,Images/Speaker2.jpg,Images/Speaker3.jpg,Images/Speaker4.jpg,Audio/Speaker2_En/P2-16-En.wav,Speaker2,گوینده۲,,,,,,,,,,,,,,,,0,50,50,35,,,,,305.20997145900037,,,,,,,,,,,,,,,,,,,,,,,,,,,,,,,,,,,,,,,,,,,,,305.18736804199943,305.20997145900037,305.20997145900037,305.20997145900037,305.20997145900037,305.20367845866735,305.20997145900037,305.20997145900037,307.90894087500055,Incorrect! The correct answer is Speaker2. نادرست! پاسخ صحیح گوینده۲ است,3,2.6950271250007063,None,0,51,307.9132150000005,307.92684858400025,309.9359087499997,309.9119586249999,,,,,,,,,,,,,,,,,,,,,,,,,,,,117743,001,2024-06-30_12h55.52.894,5-22,2024.1.4,None,2024-06-30 12h55.59.808038 +0900,
Images/Speaker1.jpg,Images/Speaker2.jpg,Images/Speaker3.jpg,Images/Speaker4.jpg,Audio/Speaker3_En/P3-14-En.wav,Speaker3,گوینده۳,,,,,,,,,,,,,,,,0,51,51,53,,,,,309.9359087499997,,,,,,,,,,,,,,,,,,,,,,,,,,,,,,,,,,,,,,,,,,,,,309.91214620900064,309.9359087499997,309.9359087499997,309.9359087499997,309.9359087499997,309.94504229233326,309.9359087499997,309.9359087499997,1290.569037792,Incorrect! The correct answer is Speaker3. نادرست! پاسخ صحیح گوینده۳ است,1,980.6259242080014,None,0,52,1290.569226833999,1290.5824218340003,1292.592212042,1292.5683477090006,,,,,,,,,,,,,,,,,,,,,,,,,,,,117743,001,2024-06-30_12h55.52.894,5-22,2024.1.4,None,2024-06-30 12h55.59.808038 +0900,
Images/Speaker1.jpg,Images/Speaker2.jpg,Images/Speaker3.jpg,Images/Speaker4.jpg,Audio/Speaker4_En/P4-1-En.wav,Speaker4,گوینده۴,,,,,,,,,,,,,,,,0,52,52,60,,,,,1292.592212042,,,,,,,,,,,,,,,,,,,,,,,,,,,,,,,,,,,,,,,,,,,,,1292.5685263340001,1292.592212042,1292.592212042,1292.592212042,1292.592212042,1292.6014149583339,1292.592212042,1292.592212042,1295.313625875,Incorrect! The correct answer is Speaker4. نادرست! پاسخ صحیح گوینده۴ است,1,2.7127706659994146,None,0,53,1295.3173910419991,1295.3280397500002,,1297.3178200420007,,,,,,,,,,,,,,,,,,,,,,,,,,,,117743,001,2024-06-30_12h55.52.894,5-22,2024.1.4,None,2024-06-30 12h55.59.808038 +0900,
Images/Speaker1.jpg,Images/Speaker2.jpg,Images/Speaker3.jpg,Images/Speaker4.jpg,Audio/Speaker2_En/P2-6-En.wav,Speaker2,گوینده۲,,,,,,,,,,,,,,,,0,53,53,25,,,,,1297.3413519589994,,,,,,,,,,,,,,,,,,,,,,,,,,,,,,,,,,,,,,,,,,,,,1297.317988834,1297.3413519589994,1297.3413519589994,1297.3413519589994,1297.3413519589994,1297.351118250334,1297.3413519589994,1297.3413519589994,1299.6088087089993,Incorrect! The correct answer is Speaker2. نادرست! پاسخ صحیح گوینده۲ است,1,2.2560517499987327,None,0,54,1299.6130262089991,1299.6259222089993,,1301.6134270000002,,,,,,,,,,,,,,,,,,,,,,,,,,,,117743,001,2024-06-30_12h55.52.894,5-22,2024.1.4,None,2024-06-30 12h55.59.808038 +0900,
Images/Speaker1.jpg,Images/Speaker2.jpg,Images/Speaker3.jpg,Images/Speaker4.jpg,Audio/Speaker3_En/P3-8-En.wav,Speaker3,گوینده۳,,,,,,,,,,,,,,,,0,54,54,47,,,,,1301.635617209,,,,,,,,,,,,,,,,,,,,,,,,,,,,,,,,,,,,,,,,,,,,,1301.613583167,1301.635617209,1301.635617209,1301.635617209,1301.635617209,1301.6300541256662,1301.635617209,1301.635617209,1303.8810390420003,Incorrect! The correct answer is Speaker3. نادرست! پاسخ صحیح گوینده۳ است,1,2.24377504199947,None,0,55,1303.8849045000006,1303.8981085840005,,1305.8856193339998,,,,,,,,,,,,,,,,,,,,,,,,,,,,117743,001,2024-06-30_12h55.52.894,5-22,2024.1.4,None,2024-06-30 12h55.59.808038 +0900,
Images/Speaker1.jpg,Images/Speaker2.jpg,Images/Speaker3.jpg,Images/Speaker4.jpg,Audio/Speaker1_En/P1-4-En.wav,Speaker1,گوینده ۱,,,,,,,,,,,,,,,,0,55,55,3,,,,,1305.9073878750005,,,,,,,,,,,,,,,,,,,,,,,,,,,,,,,,,,,,,,,,,,,,,1305.8857989589997,1305.9073878750005,1305.9073878750005,1305.9073878750005,1305.9073878750005,1305.9022376666674,1305.9073878750005,1305.9073878750005,1307.684724749999,Incorrect! The correct answer is Speaker1. نادرست! پاسخ صحیح گوینده ۱ است,2,1.77145133400154,None,0,56,1307.6899171669993,1307.7042069590007,,1309.6923396250004,,,,,,,,,,,,,,,,,,,,,,,,,,,,117743,001,2024-06-30_12h55.52.894,5-22,2024.1.4,None,2024-06-30 12h55.59.808038 +0900,
Images/Speaker1.jpg,Images/Speaker2.jpg,Images/Speaker3.jpg,Images/Speaker4.jpg,Audio/Speaker4_En/P4-16-En.wav,Speaker4,گوینده۴,,,,,,,,,,,,,,,,0,56,56,75,,,,,1309.7144505840006,,,,,,,,,,,,,,,,,,,,,,,,,,,,,,,,,,,,,,,,,,,,,1309.692511666999,1309.7144505840006,1309.7144505840006,1309.7144505840006,1309.7144505840006,1309.7089705006658,1309.7144505840006,1309.7144505840006,1310.6429559169992,Incorrect! The correct answer is Speaker4. نادرست! پاسخ صحیح گوینده۴ است,2,0.9274972500006697,None,0,57,1310.6471214169997,1310.660221791999,1312.6696910419996,1312.6471067500006,,,,,,,,,,,,,,,,,,,,,,,,,,,,117743,001,2024-06-30_12h55.52.894,5-22,2024.1.4,None,2024-06-30 12h55.59.808038 +0900,
Images/Speaker1.jpg,Images/Speaker2.jpg,Images/Speaker3.jpg,Images/Speaker4.jpg,Audio/Speaker1_En/P1-9-En.wav,Speaker1,گوینده ۱,,,,,,,,,,,,,,,,0,57,57,8,,,,,1312.6696910419996,,,,,,,,,,,,,,,,,,,,,,,,,,,,,,,,,,,,,,,,,,,,,1312.6472959589992,1312.6696910419996,1312.6696910419996,1312.6696910419996,1312.6696910419996,1312.6634393336665,1312.6696910419996,1312.6696910419996,1313.5876024589998,Incorrect! The correct answer is Speaker1. نادرست! پاسخ صحیح گوینده ۱ است,2,0.9086752080002043,None,0,58,1313.5919170840007,1313.6052100420002,,1315.5998832919995,,,,,,,,,,,,,,,,,,,,,,,,,,,,117743,001,2024-06-30_12h55.52.894,5-22,2024.1.4,None,2024-06-30 12h55.59.808038 +0900,
Images/Speaker1.jpg,Images/Speaker2.jpg,Images/Speaker3.jpg,Images/Speaker4.jpg,Audio/Speaker2_En/P2-9-En.wav,Speaker2,گوینده۲,,,,,,,,,,,,,,,,0,58,58,28,,,,,1315.623552916999,,,,,,,,,,,,,,,,,,,,,,,,,,,,,,,,,,,,,,,,,,,,,1315.6000592500004,1315.623552916999,1315.623552916999,1315.623552916999,1315.623552916999,1315.6331776673328,1315.623552916999,1315.623552916999,1316.711032416999,Incorrect! The correct answer is Speaker2. نادرست! پاسخ صحیح گوینده۲ است,1,1.0771453750003275,None,0,59,1316.7152776250005,1316.7283558340005,1318.7360818750003,1318.7127420420002,,,,,,,,,,,,,,,,,,,,,,,,,,,,117743,001,2024-06-30_12h55.52.894,5-22,2024.1.4,None,2024-06-30 12h55.59.808038 +0900,
Images/Speaker1.jpg,Images/Speaker2.jpg,Images/Speaker3.jpg,Images/Speaker4.jpg,Audio/Speaker1_En/P1-6-En.wav,Speaker1,گوینده ۱,,,,,,,,,,,,,,,,0,59,59,5,,,,,1318.7360818750003,,,,,,,,,,,,,,,,,,,,,,,,,,,,,,,,,,,,,,,,,,,,,1318.7129353340006,1318.7360818750003,1318.7360818750003,1318.7360818750003,1318.7360818750003,1318.745869750334,1318.7360818750003,1318.7360818750003,1319.9326728340002,Incorrect! The correct answer is Speaker1. نادرست! پاسخ صحیح گوینده ۱ است,2,1.1934514999993553,None,0,60,1319.9366713340005,1319.9499694999995,,1321.9434329169999,,,,,,,,,,,,,,,,,,,,,,,,,,,,117743,001,2024-06-30_12h55.52.894,5-22,2024.1.4,None,2024-06-30 12h55.59.808038 +0900,
Images/Speaker1.jpg,Images/Speaker2.jpg,Images/Speaker3.jpg,Images/Speaker4.jpg,Audio/Speaker4_En/P4-9-En.wav,Speaker4,گوینده۴,,,,,,,,,,,,,,,,0,60,60,68,,,,,1321.966210999999,,,,,,,,,,,,,,,,,,,,,,,,,,,,,,,,,,,,,,,,,,,,,1321.9436275000007,1321.966210999999,1321.966210999999,1321.966210999999,1321.966210999999,1321.9600631666674,1321.966210999999,1321.966210999999,1323.3113945000005,Incorrect! The correct answer is Speaker4. نادرست! پاسخ صحیح گوینده۴ است,1,1.342292457999065,None,0,61,1323.3153280419992,1323.3290917089998,,1325.3203490840006,,,,,,,,,,,,,,,,,,,,,,,,,,,,117743,001,2024-06-30_12h55.52.894,5-22,2024.1.4,None,2024-06-30 12h55.59.808038 +0900,
Images/Speaker1.jpg,Images/Speaker2.jpg,Images/Speaker3.jpg,Images/Speaker4.jpg,Audio/Speaker4_En/P4-10-En.wav,Speaker4,گوینده۴,,,,,,,,,,,,,,,,0,61,61,69,,,,,1325.3476813750003,,,,,,,,,,,,,,,,,,,,,,,,,,,,,,,,,,,,,,,,,,,,,1325.3209749590005,1325.3476813750003,1325.3476813750003,1325.3476813750003,1325.3476813750003,1325.3535025003334,1325.3476813750003,1325.3476813750003,1326.3261380000004,Incorrect! The correct answer is Speaker4. نادرست! پاسخ صحیح گوینده۴ است,2,0.9730808750009601,None,0,62,1326.330036416999,1326.343252958999,,1328.3355039590006,,,,,,,,,,,,,,,,,,,,,,,,,,,,117743,001,2024-06-30_12h55.52.894,5-22,2024.1.4,None,2024-06-30 12h55.59.808038 +0900,
Images/Speaker1.jpg,Images/Speaker2.jpg,Images/Speaker3.jpg,Images/Speaker4.jpg,Audio/Speaker1_En/P1-12-En.wav,Speaker1,گوینده ۱,,,,,,,,,,,,,,,,0,62,62,11,,,,,1328.3614670839997,,,,,,,,,,,,,,,,,,,,,,,,,,,,,,,,,,,,,,,,,,,,,1328.3360965419997,1328.3614670839997,1328.3614670839997,1328.3614670839997,1328.3614670839997,1328.3686567503323,1328.3614670839997,1328.3614670839997,1329.365715333999,Incorrect! The correct answer is Speaker1. نادرست! پاسخ صحیح گوینده ۱ است,2,1.001850666001701,None,0,63,1329.3701542500003,1329.383201875,1331.391097624999,1331.3679209999991,,,,,,,,,,,,,,,,,,,,,,,,,,,,117743,001,2024-06-30_12h55.52.894,5-22,2024.1.4,None,2024-06-30 12h55.59.808038 +0900,
Images/Speaker1.jpg,Images/Speaker2.jpg,Images/Speaker3.jpg,Images/Speaker4.jpg,Audio/Speaker4_En/P4-4-En.wav,Speaker4,گوینده۴,,,,,,,,,,,,,,,,0,63,63,63,,,,,1331.391097624999,,,,,,,,,,,,,,,,,,,,,,,,,,,,,,,,,,,,,,,,,,,,,1331.3680833750004,1331.391097624999,1331.391097624999,1331.391097624999,1331.391097624999,1331.4009830423333,1331.391097624999,1331.391097624999,1332.3416301670004,Incorrect! The correct answer is Speaker4. نادرست! پاسخ صحیح گوینده۴ است,2,0.9493524999998044,None,0,64,1332.3459427500002,1332.3594245000004,,1334.3542721249996,,,,,,,,,,,,,,,,,,,,,,,,,,,,117743,001,2024-06-30_12h55.52.894,5-22,2024.1.4,None,2024-06-30 12h55.59.808038 +0900,
Images/Speaker1.jpg,Images/Speaker2.jpg,Images/Speaker3.jpg,Images/Speaker4.jpg,Audio/Speaker4_En/P4-20-En.wav,Speaker4,گوینده۴,,,,,,,,,,,,,,,,0,64,64,79,,,,,1334.3805813750005,,,,,,,,,,,,,,,,,,,,,,,,,,,,,,,,,,,,,,,,,,,,,1334.3548252500004,1334.3805813750005,1334.3805813750005,1334.3805813750005,1334.3805813750005,1334.3874708333337,1334.3805813750005,1334.3805813750005,1335.7491194169997,Incorrect! The correct answer is Speaker4. نادرست! پاسخ صحیح گوینده۴ است,2,1.3615302919988608,None,0,65,1335.7529510839995,1335.766341958999,,1337.7543790420004,,,,,,,,,,,,,,,,,,,,,,,,,,,,117743,001,2024-06-30_12h55.52.894,5-22,2024.1.4,None,2024-06-30 12h55.59.808038 +0900,
Images/Speaker1.jpg,Images/Speaker2.jpg,Images/Speaker3.jpg,Images/Speaker4.jpg,Audio/Speaker4_En/P4-12-En.wav,Speaker4,گوینده۴,,,,,,,,,,,,,,,,0,65,65,71,,,,,1337.7770255840005,,,,,,,,,,,,,,,,,,,,,,,,,,,,,,,,,,,,,,,,,,,,,1337.7545552499996,1337.7770255840005,1337.7770255840005,1337.7770255840005,1337.7770255840005,1337.771004833667,1337.7770255840005,1337.7770255840005,1339.1768990839992,Incorrect! The correct answer is Speaker4. نادرست! پاسخ صحیح گوینده۴ است,2,1.386398291999285,None,0,66,1339.180725791999,1339.1914676670003,1341.202181875,1341.1789850839996,,,,,,,,,,,,,,,,,,,,,,,,,,,,117743,001,2024-06-30_12h55.52.894,5-22,2024.1.4,None,2024-06-30 12h55.59.808038 +0900,
Images/Speaker1.jpg,Images/Speaker2.jpg,Images/Speaker3.jpg,Images/Speaker4.jpg,Audio/Speaker1_En/P1-8-En.wav,Speaker1,گوینده ۱,,,,,,,,,,,,,,,,0,66,66,7,,,,,1341.202181875,,,,,,,,,,,,,,,,,,,,,,,,,,,,,,,,,,,,,,,,,,,,,1341.1791686670003,1341.202181875,1341.202181875,1341.202181875,1341.202181875,1341.2119808333323,1341.202181875,1341.202181875,1342.504307916999,Incorrect! The correct answer is Speaker1. نادرست! پاسخ صحیح گوینده ۱ است,2,1.2935525829998369,None,0,67,1342.508247583999,1342.5183460419994,1344.5322259589993,1344.508262792,,,,,,,,,,,,,,,,,,,,,,,,,,,,117743,001,2024-06-30_12h55.52.894,5-22,2024.1.4,None,2024-06-30 12h55.59.808038 +0900,
Images/Speaker1.jpg,Images/Speaker2.jpg,Images/Speaker3.jpg,Images/Speaker4.jpg,Audio/Speaker4_En/P4-2-En.wav,Speaker4,گوینده۴,,,,,,,,,,,,,,,,0,67,67,61,,,,,1344.5322259589993,,,,,,,,,,,,,,,,,,,,,,,,,,,,,,,,,,,,,,,,,,,,,1344.508452,1344.5322259589993,1344.5322259589993,1344.5322259589993,1344.5322259589993,1344.541346542334,1344.5322259589993,1344.5322259589993,1345.5430140419994,Incorrect! The correct answer is Speaker4. نادرست! پاسخ صحیح گوینده۴ است,2,1.0068018330002815,None,0,68,1345.546987374999,1345.5601023750005,1347.5694021670006,1347.546278124999,,,,,,,,,,,,,,,,,,,,,,,,,,,,117743,001,2024-06-30_12h55.52.894,5-22,2024.1.4,None,2024-06-30 12h55.59.808038 +0900,
Images/Speaker1.jpg,Images/Speaker2.jpg,Images/Speaker3.jpg,Images/Speaker4.jpg,Audio/Speaker1_En/P1-18-En.wav,Speaker1,گوینده ۱,,,,,,,,,,,,,,,,0,68,68,17,,,,,1347.5694021670006,,,,,,,,,,,,,,,,,,,,,,,,,,,,,,,,,,,,,,,,,,,,,1347.5464497089997,1347.5694021670006,1347.5694021670006,1347.5694021670006,1347.5694021670006,1347.5793646673324,1347.5694021670006,1347.5694021670006,1349.3333600419992,Incorrect! The correct answer is Speaker1. نادرست! پاسخ صحیح گوینده ۱ است,2,1.755631166999592,None,0,69,1349.3372836670005,1349.3475240839998,1351.3547986249996,1351.3319162499993,,,,,,,,,,,,,,,,,,,,,,,,,,,,117743,001,2024-06-30_12h55.52.894,5-22,2024.1.4,None,2024-06-30 12h55.59.808038 +0900,
Images/Speaker1.jpg,Images/Speaker2.jpg,Images/Speaker3.jpg,Images/Speaker4.jpg,Audio/Speaker2_En/P2-3-En.wav,Speaker2,گوینده۲,,,,,,,,,,,,,,,,0,69,69,22,,,,,1351.3547986249996,,,,,,,,,,,,,,,,,,,,,,,,,,,,,,,,,,,,,,,,,,,,,1351.3320978749998,1351.3547986249996,1351.3547986249996,1351.3547986249996,1351.3547986249996,1351.3649187083324,1351.3547986249996,1351.3547986249996,1352.778508292,Incorrect! The correct answer is Speaker2. نادرست! پاسخ صحیح گوینده۲ است,1,1.4099114580003516,None,0,70,1352.782331041999,1352.795043917,1354.8070753749998,1354.7808586249994,,,,,,,,,,,,,,,,,,,,,,,,,,,,117743,001,2024-06-30_12h55.52.894,5-22,2024.1.4,None,2024-06-30 12h55.59.808038 +0900,
Images/Speaker1.jpg,Images/Speaker2.jpg,Images/Speaker3.jpg,Images/Speaker4.jpg,Audio/Speaker3_En/P3-6-En.wav,Speaker3,گوینده۳,,,,,,,,,,,,,,,,0,70,70,45,,,,,1354.8070753749998,,,,,,,,,,,,,,,,,,,,,,,,,,,,,,,,,,,,,,,,,,,,,1354.7816818749998,1354.8070753749998,1354.8070753749998,1354.8070753749998,1354.8070753749998,1354.8132917923326,1354.8070753749998,1354.8070753749998,1356.2139550419997,Incorrect! The correct answer is Speaker3. نادرست! پاسخ صحیح گوینده۳ است,2,1.405423874999542,None,0,71,1356.217976124999,1356.231872041999,1358.2408656669995,1358.2173405840003,,,,,,,,,,,,,,,,,,,,,,,,,,,,117743,001,2024-06-30_12h55.52.894,5-22,2024.1.4,None,2024-06-30 12h55.59.808038 +0900,
Images/Speaker1.jpg,Images/Speaker2.jpg,Images/Speaker3.jpg,Images/Speaker4.jpg,Audio/Speaker3_En/P3-3-En.wav,Speaker3,گوینده۳,,,,,,,,,,,,,,,,0,71,71,42,,,,,1358.2408656669995,,,,,,,,,,,,,,,,,,,,,,,,,,,,,,,,,,,,,,,,,,,,,1358.2175294589997,1358.2408656669995,1358.2408656669995,1358.2408656669995,1358.2408656669995,1358.250435542334,1358.2408656669995,1358.2408656669995,1359.5673879999995,Incorrect! The correct answer is Speaker3. نادرست! پاسخ صحیح گوینده۳ است,1,1.3229292910000368,None,0,72,1359.571120708999,1359.5843714999992,,1361.5768960839996,,,,,,,,,,,,,,,,,,,,,,,,,,,,117743,001,2024-06-30_12h55.52.894,5-22,2024.1.4,None,2024-06-30 12h55.59.808038 +0900,
Images/Speaker1.jpg,Images/Speaker2.jpg,Images/Speaker3.jpg,Images/Speaker4.jpg,Audio/Speaker2_En/P2-14-En.wav,Speaker2,گوینده۲,,,,,,,,,,,,,,,,0,72,72,33,,,,,1361.5998505000007,,,,,,,,,,,,,,,,,,,,,,,,,,,,,,,,,,,,,,,,,,,,,1361.5770603750007,1361.5998505000007,1361.5998505000007,1361.5998505000007,1361.5998505000007,1361.593524500666,1361.5998505000007,1361.5998505000007,1363.6077577920005,Incorrect! The correct answer is Speaker2. نادرست! پاسخ صحیح گوینده۲ است,1,2.0057474579989503,None,0,73,1363.6117393339991,1363.6248375840005,,1365.6173144170007,,,,,,,,,,,,,,,,,,,,,,,,,,,,117743,001,2024-06-30_12h55.52.894,5-22,2024.1.4,None,2024-06-30 12h55.59.808038 +0900,
Images/Speaker1.jpg,Images/Speaker2.jpg,Images/Speaker3.jpg,Images/Speaker4.jpg,Audio/Speaker4_En/P4-6-En.wav,Speaker4,گوینده۴,,,,,,,,,,,,,,,,0,73,73,65,,,,,1365.6405515419992,,,,,,,,,,,,,,,,,,,,,,,,,,,,,,,,,,,,,,,,,,,,,1365.6174935,1365.6405515419992,1365.6405515419992,1365.6405515419992,1365.6405515419992,1365.633936125667,1365.6405515419992,1365.6405515419992,1366.8998652089995,Incorrect! The correct answer is Speaker4. نادرست! پاسخ صحیح گوینده۴ است,2,1.257989791,None,0,74,1366.9036170420004,1366.9169122500007,1368.9241187919997,1368.9023644999997,,,,,,,,,,,,,,,,,,,,,,,,,,,,117743,001,2024-06-30_12h55.52.894,5-22,2024.1.4,None,2024-06-30 12h55.59.808038 +0900,
Images/Speaker1.jpg,Images/Speaker2.jpg,Images/Speaker3.jpg,Images/Speaker4.jpg,Audio/Speaker3_En/P3-17-En.wav,Speaker3,گوینده۳,,,,,,,,,,,,,,,,0,74,74,56,,,,,1368.9241187919997,,,,,,,,,,,,,,,,,,,,,,,,,,,,,,,,,,,,,,,,,,,,,1368.9025685840006,1368.9241187919997,1368.9241187919997,1368.9241187919997,1368.9241187919997,1368.9186985006656,1368.9241187919997,1368.9241187919997,1370.0625619999992,Incorrect! The correct answer is Speaker3. نادرست! پاسخ صحیح گوینده۳ است,2,1.1337810000004538,None,0,75,1370.0665091669998,1370.0797155839991,1372.089425791999,1372.0658051249993,,,,,,,,,,,,,,,,,,,,,,,,,,,,117743,001,2024-06-30_12h55.52.894,5-22,2024.1.4,None,2024-06-30 12h55.59.808038 +0900,
Images/Speaker1.jpg,Images/Speaker2.jpg,Images/Speaker3.jpg,Images/Speaker4.jpg,Audio/Speaker3_En/P3-9-En.wav,Speaker3,گوینده۳,,,,,,,,,,,,,,,,0,75,75,48,,,,,1372.089425791999,,,,,,,,,,,,,,,,,,,,,,,,,,,,,,,,,,,,,,,,,,,,,1372.0659765839991,1372.089425791999,1372.089425791999,1372.089425791999,1372.089425791999,1372.0988606673332,1372.089425791999,1372.089425791999,1373.4430652089995,Incorrect! The correct answer is Speaker3. نادرست! پاسخ صحیح گوینده۳ است,1,1.3443892920004146,None,0,76,1373.446802417,1373.4604798340006,,1375.4522350419993,,,,,,,,,,,,,,,,,,,,,,,,,,,,117743,001,2024-06-30_12h55.52.894,5-22,2024.1.4,None,2024-06-30 12h55.59.808038 +0900,
Images/Speaker1.jpg,Images/Speaker2.jpg,Images/Speaker3.jpg,Images/Speaker4.jpg,Audio/Speaker1_En/P1-3-En.wav,Speaker1,گوینده ۱,,,,,,,,,,,,,,,,0,76,76,2,,,,,1375.4770603340003,,,,,,,,,,,,,,,,,,,,,,,,,,,,,,,,,,,,,,,,,,,,,1375.452847958999,1375.4770603340003,1375.4770603340003,1375.4770603340003,1375.4770603340003,1375.4853806253327,1375.4770603340003,1375.4770603340003,1376.4360322920002,Incorrect! The correct answer is Speaker1. نادرست! پاسخ صحیح گوینده ۱ است,2,0.9573775829994702,None,0,77,1376.4402522090004,1376.4544489590007,,1378.4443628749996,,,,,,,,,,,,,,,,,,,,,,,,,,,,117743,001,2024-06-30_12h55.52.894,5-22,2024.1.4,None,2024-06-30 12h55.59.808038 +0900,
Images/Speaker1.jpg,Images/Speaker2.jpg,Images/Speaker3.jpg,Images/Speaker4.jpg,Audio/Speaker4_En/P4-11-En.wav,Speaker4,گوینده۴,,,,,,,,,,,,,,,,0,77,77,70,,,,,1378.4694325839992,,,,,,,,,,,,,,,,,,,,,,,,,,,,,,,,,,,,,,,,,,,,,1378.4449035840007,1378.4694325839992,1378.4694325839992,1378.4694325839992,1378.4694325839992,1378.477502917333,1378.4694325839992,1378.4694325839992,1379.431064667,Incorrect! The correct answer is Speaker4. نادرست! پاسخ صحیح گوینده۴ است,2,0.9526144999999815,None,0,78,1379.4349774170005,1379.445178124999,1381.4558988339995,1381.4295760000005,,,,,,,,,,,,,,,,,,,,,,,,,,,,117743,001,2024-06-30_12h55.52.894,5-22,2024.1.4,None,2024-06-30 12h55.59.808038 +0900,
Images/Speaker1.jpg,Images/Speaker2.jpg,Images/Speaker3.jpg,Images/Speaker4.jpg,Audio/Speaker1_En/P1-16-En.wav,Speaker1,گوینده ۱,,,,,,,,,,,,,,,,0,78,78,15,,,,,1381.4558988339995,,,,,,,,,,,,,,,,,,,,,,,,,,,,,,,,,,,,,,,,,,,,,1381.4303407919997,1381.4558988339995,1381.4558988339995,1381.4558988339995,1381.4558988339995,1381.4620663753326,1381.4558988339995,1381.4558988339995,1382.8349129590006,Incorrect! The correct answer is Speaker1. نادرست! پاسخ صحیح گوینده ۱ است,2,1.374243332998958,None,0,79,1382.8391267919997,1382.8528615840005,1384.8584952090005,1384.8361429590004,,,,,,,,,,,,,,,,,,,,,,,,,,,,117743,001,2024-06-30_12h55.52.894,5-22,2024.1.4,None,2024-06-30 12h55.59.808038 +0900,
Images/Speaker1.jpg,Images/Speaker2.jpg,Images/Speaker3.jpg,Images/Speaker4.jpg,Audio/Speaker4_En/P4-8-En.wav,Speaker4,گوینده۴,,,,,,,,,,,,,,,,0,79,79,67,,,,,1384.8584952090005,,,,,,,,,,,,,,,,,,,,,,,,,,,,,,,,,,,,,,,,,,,,,1384.8363182089997,1384.8584952090005,1384.8584952090005,1384.8584952090005,1384.8584952090005,1384.8525190836665,1384.8584952090005,1384.8584952090005,1385.7787834169994,Incorrect! The correct answer is Speaker4. نادرست! پاسخ صحیح گوینده۴ است,2,0.913879083998836,None,0,80,1385.7828289589997,1385.7962900839993,,1387.784883291999,,,,,,,,,,,,,,,,,,,,,,,,,,,,117743,001,2024-06-30_12h55.52.894,5-22,2024.1.4,None,2024-06-30 12h55.59.808038 +0900,
,,,,,,,,,,,,,,,,,,,,,,,,,,,,,,,,,,,,,,,,,,,,,,,,,,,,,,,,,,,,,,,,,,,,,,,,,,,,,,,,,,,,,,,,,,,,,,1387.7849284170006,1387.7851285420002,TrainingGroup1,,,,,,,,,,,,,,,,,,,,,,,,,117743,001,2024-06-30_12h55.52.894,5-22,2024.1.4,None,2024-06-30 12h55.59.808038 +0900,
,,,,,,,,,,,,,,,,,,,,,,,,,,,,,,,,,,,,,,,,,,,,,,,,,,,,,,,,,,,,,,,,,,,,,,,,,,,,,,,,,,,,,,,,,,,,,,,,,1387.7851429170005,1387.7885482500005,1392.8195463749998,1392.7760473750004,,,,,,,,,,,,,,,,,,,,,117743,001,2024-06-30_12h55.52.894,5-22,2024.1.4,None,2024-06-30 12h55.59.808038 +0900,
,,,,,,,Images/Speaker1.jpg,Images/Speaker2.jpg,Images/Speaker3.jpg,Images/Speaker4.jpg,Audio/Speaker1_Per/P1-7-Per.wav,Speaker1,گوینده ۱,,,,,,,,,,,,,0,0,0,6,1392.8195463749998,,,,,,,,,,,,,,,,,,,,,,,,,,,,,,,,,,,,,,,,,,,,,,,,,,,,,,,,,,,,,,,,,,,,,,,1392.7955882499991,1392.8195463749998,1392.8195463749998,1392.8195463749998,1392.8195463749998,1392.8258334999998,1392.8195463749998,1392.8195463749998,1399.2929614589993,2,6.4709161250011675,None,2,Images/Speaker1.jpg,Images/Speaker2.jpg,Images/Speaker3.jpg,Images/Speaker4.jpg,Audio/Speaker1_Per/P1-7-Per.wav,Speaker4,گوینده۴,117743,001,2024-06-30_12h55.52.894,5-22,2024.1.4,None,2024-06-30 12h55.59.808038 +0900,
,,,,,,,Images/Speaker1.jpg,Images/Speaker2.jpg,Images/Speaker3.jpg,Images/Speaker4.jpg,Audio/Speaker4_Per/P4-10-Per.wav,Speaker4,گوینده۴,,,,,,,,,,,,,0,1,1,69,1399.3205558749996,,,,,,,,,,,,,,,,,,,,,,,,,,,,,,,,,,,,,,,,,,,,,,,,,,,,,,,,,,,,,,,,,,,,,,,1399.2934934999994,1399.3205558749996,1399.3205558749996,1399.3205558749996,1399.3205558749996,1399.3253958753326,1399.3205558749996,1399.3205558749996,1403.2452629170002,1,3.9231009169998288,None,1,Images/Speaker1.jpg,Images/Speaker2.jpg,Images/Speaker3.jpg,Images/Speaker4.jpg,Audio/Speaker4_Per/P4-10-Per.wav,Speaker4,گوینده۴,117743,001,2024-06-30_12h55.52.894,5-22,2024.1.4,None,2024-06-30 12h55.59.808038 +0900,
,,,,,,,,,,,,,,,,,,,,,,,,,,,,,,1403.2704749589993,,,,,,,,,,,,,,,,,,,,,,,,,,,,,,,,,,,,,,,,,,,,,,,,,,,,,,,,,,,,,,,,,,,,,,,1403.2455701670006,1403.2704749589993,1403.2704749589993,1403.2704749589993,1403.2704749589993,1403.2776309173337,1403.2704749589993,1403.2704749589993,,,,,,,,,,,,,,,,,,,,
