SpeakerImage1,SpeakerImage2,SpeakerImage3,SpeakerImage4,TrainingSound,EnglishCorrectAnswer,PersianCorrectAnswer,SpeakerPhoto1,SpeakerPhoto2,SpeakerPhoto3,SpeakerPhoto4,TestingSound,EnglishCorrectResponse,PersianCorrectResponse,TrainingLoopGroup1.thisRepN,TrainingLoopGroup1.thisTrialN,TrainingLoopGroup1.thisN,TrainingLoopGroup1.thisIndex,TrainingLoopGroup2.thisRepN,TrainingLoopGroup2.thisTrialN,TrainingLoopGroup2.thisN,TrainingLoopGroup2.thisIndex,TrainingLoopGroup3.thisRepN,TrainingLoopGroup3.thisTrialN,TrainingLoopGroup3.thisN,TrainingLoopGroup3.thisIndex,testPhase1Loop.thisRepN,testPhase1Loop.thisTrialN,testPhase1Loop.thisN,testPhase1Loop.thisIndex,testPhase2Loop.thisRepN,testPhase2Loop.thisTrialN,testPhase2Loop.thisN,testPhase2Loop.thisIndex,testPhase3Loop.thisRepN,testPhase3Loop.thisTrialN,testPhase3Loop.thisN,testPhase3Loop.thisIndex,thisRow.t,notes,trial.started,trial.stopped,GroupSelection.started,GroupInstructions.started,key_resp.started,GroupSelection.stopped,key_resp.keys,key_resp.rt,key_resp.duration,Introduction.started,text_2.started,image.started,sound_7.started,text_4.started,text_2.stopped,sound_8.started,image.stopped,text_4.stopped,image_7.started,sound_9.started,text_5.started,sound_10.started,image_7.stopped,text_5.stopped,image_8.started,sound_11.started,text_6.started,sound_12.started,image_8.stopped,text_6.stopped,image_9.started,sound_13.started,text_7.started,sound_14.started,image_9.stopped,text_7.stopped,Introduction.stopped,Instructions.started,InstructionText.started,InstructionText.stopped,Instructions.stopped,InitializeExperiment.started,InitializeExperiment.stopped,TrainingGroup3.started,SpeakerPicture3.started,image_15.started,image_16.started,image_17.started,Sound3.started,Instruction3.started,Response3.started,TrainingGroup3.stopped,feedbackText,Response3.keys,Response3.rt,Response3.duration,correct_responses_group3,total_trials_group3,FeedbackRoutine3.started,FeedbackText3.started,FeedbackText3.stopped,FeedbackRoutine3.stopped,CheckAccuracy3.started,accuracy_group3,proceed_to_test_group3,CheckAccuracy3.stopped,WelcomeTest.started,text_12.started,text_12.stopped,WelcomeTest.stopped,TestPhase1.started,TestPhase1.stopped,test1_response_keyboard.keys,test1_response,test1_image_file1,test1_image_file2,test1_image_file3,test1_image_file4,test1_sound_file,english_correct_answer,persian_correct_answer,TestPhase2.started,TestPhase2.stopped,test2_response_keyboard.keys,test2_response,test2_image_file1,test2_image_file2,test2_image_file3,test2_image_file4,test2_sound_file,test_group3.started,test3_image1.started,test3_image2.started,test3_image3.started,test3_image4.started,test3_sound.started,text_10.started,test3_response_keyboard.started,test_group3.stopped,test3_response_keyboard.keys,test3_response_keyboard.rt,test3_response_keyboard.duration,test3_response,test3_image_file1,test3_image_file2,test3_image_file3,test3_image_file4,test3_sound_file,participant,session,date,expName,psychopyVersion,frameRate,expStart,
,,,,,,,,,,,,,,,,,,,,,,,,,,,,,,,,,,,,,,,,0.008625791999975263,0.008951416999934736,,,,,,,,,,,,,,,,,,,,,,,,,,,,,,,,,,,,,,,,,,,,,,,,,,,,,,,,,,,,,,,,,,,,,,,,,,,,,,,,,,,,,,,,,,,,,,,,,,,,,,,,,,,120126,001,2024-07-01_16h30.59.170,5-26,2024.1.4,None,2024-07-01 16h31.03.725903 +0900,
,,,,,,,,,,,,,,,,,,,,,,,,,,,,,,,,,,,,,,,,,,0.008966999999984182,0.013575541999898633,0.013575541999898633,1.0549894170001153,3,1.0059008750001794,None,,,,,,,,,,,,,,,,,,,,,,,,,,,,,,,,,,,,,,,,,,,,,,,,,,,,,,,,,,,,,,,,,,,,,,,,,,,,,,,,,,,,,,,,,,,,,,,,,,,,120126,001,2024-07-01_16h30.59.170,5-26,2024.1.4,None,2024-07-01 16h31.03.725903 +0900,
,,,,,,,,,,,,,,,,,,,,,,,,,,,,,,,,,,,,,,,,,,,,,,,,,1.0550193340000078,1.1109072920000926,6.057279041999891,6.066897541666564,6.057279041999891,6.109152875000063,11.056759916666595,16.05013937500007,16.05013937500007,16.05013937500007,16.059309833666717,16.05013937500007,21.05920850066674,26.048671499999955,26.048671499999955,26.048671499999955,26.058370625666626,26.048671499999955,31.05724541666656,36.03634633399997,36.03634633399997,36.05433941699994,36.067475500666674,36.05433941699994,41.05986816666656,46.05135300000006,46.05135300000006,46.0391655840001,,,,,,,,,,,,,,,,,,,,,,,,,,,,,,,,,,,,,,,,,,,,,,,,,,,,,,,,,,,,,,,,,,,,,,,,120126,001,2024-07-01_16h30.59.170,5-26,2024.1.4,None,2024-07-01 16h31.03.725903 +0900,
,,,,,,,,,,,,,,,,,,,,,,,,,,,,,,,,,,,,,,,,,,,,,,,,,,,,,,,,,,,,,,,,,,,,,,,,,,,,,46.0391863750001,46.05135300000006,47.12612679199992,47.04375991699999,,,,,,,,,,,,,,,,,,,,,,,,,,,,,,,,,,,,,,,,,,,,,,,,,,,,,,,,,,,,,,,,,,,,120126,001,2024-07-01_16h30.59.170,5-26,2024.1.4,None,2024-07-01 16h31.03.725903 +0900,
,,,,,,,,,,,,,,,,,,,,,,,,,,,,,,,,,,,,,,,,,,,,,,,,,,,,,,,,,,,,,,,,,,,,,,,,,,,,,,,,,47.04380179200007,47.04412337500003,,,,,,,,,,,,,,,,,,,,,,,,,,,,,,,,,,,,,,,,,,,,,,,,,,,,,,,,,,,,,,,,,,120126,001,2024-07-01_16h30.59.170,5-26,2024.1.4,None,2024-07-01 16h31.03.725903 +0900,
Images/Speaker1.jpg,Images/Speaker2.jpg,Images/Speaker3.jpg,Images/Speaker4.jpg,Audio/Speaker2_En/P2-1-En.wav,Speaker2,گوینده۲,,,,,,,,,,,,,,,,0,0,0,20,,,,,,,,,,,,,47.12612679199992,,,,,,,,,,,,,,,,,,,,,,,,,,,,,,,,,,,,,,,,,,,,,47.10085875000004,47.12612679199992,47.12612679199992,47.12612679199992,47.12612679199992,47.126139417333285,47.12612679199992,47.12612679199992,52.630481334000024,Incorrect! The correct answer is Speaker2. نادرست! پاسخ صحیح گوینده۲ است,1,5.499757415999966,None,68,81,52.6309752090001,52.64437233400008,54.65388508399997,54.62955666700009,54.6295654999999,0.8395061728395061,False,54.62977908399989,,,,,,,,,,,,,,,,,,,,,,,,,,,,,,,,,,,,,,,,,,,120126,001,2024-07-01_16h30.59.170,5-26,2024.1.4,None,2024-07-01 16h31.03.725903 +0900,
Images/Speaker1.jpg,Images/Speaker2.jpg,Images/Speaker3.jpg,Images/Speaker4.jpg,Audio/Speaker1_En/P1-4-En.wav,Speaker1,گوینده ۱,,,,,,,,,,,,,,,,0,1,1,3,,,,,,,,,,,,,54.65388508399997,,,,,,,,,,,,,,,,,,,,,,,,,,,,,,,,,,,,,,,,,,,,,54.62993400000005,54.65388508399997,54.65388508399997,54.65388508399997,54.65388508399997,54.66263595833337,54.65388508399997,54.65388508399997,54.88833345900002,Correct! صحیح است,1,0.22814666699991903,None,68,82,54.89209266700004,54.909249875000114,,56.89246808400003,56.892497542,0.8292682926829268,False,56.892884084000116,,,,,,,,,,,,,,,,,,,,,,,,,,,,,,,,,,,,,,,,,,,120126,001,2024-07-01_16h30.59.170,5-26,2024.1.4,None,2024-07-01 16h31.03.725903 +0900,
Images/Speaker1.jpg,Images/Speaker2.jpg,Images/Speaker3.jpg,Images/Speaker4.jpg,Audio/Speaker4_En/P4-18-En.wav,Speaker4,گوینده۴,,,,,,,,,,,,,,,,0,2,2,77,,,,,,,,,,,,,56.91694899999993,,,,,,,,,,,,,,,,,,,,,,,,,,,,,,,,,,,,,,,,,,,,,56.89340712500007,56.91694899999993,56.91694899999993,56.91694899999993,56.91694899999993,56.92567983333336,56.91694899999993,56.91694899999993,57.1068445840001,Incorrect! The correct answer is Speaker4. نادرست! پاسخ صحیح گوینده۴ است,1,0.18721716599998217,None,68,83,57.11114150000003,57.12399449999998,59.13446141700001,59.10893391700006,59.10894287499991,0.8192771084337349,False,59.10944320899989,,,,,,,,,,,,,,,,,,,,,,,,,,,,,,,,,,,,,,,,,,,120126,001,2024-07-01_16h30.59.170,5-26,2024.1.4,None,2024-07-01 16h31.03.725903 +0900,
Images/Speaker1.jpg,Images/Speaker2.jpg,Images/Speaker3.jpg,Images/Speaker4.jpg,Audio/Speaker3_En/P3-5-En.wav,Speaker3,گوینده۳,,,,,,,,,,,,,,,,0,3,3,44,,,,,,,,,,,,,59.13446141700001,,,,,,,,,,,,,,,,,,,,,,,,,,,,,,,,,,,,,,,,,,,,,59.11040404200003,59.13446141700001,59.13446141700001,59.13446141700001,59.13446141700001,59.14203675033335,59.13446141700001,59.13446141700001,59.13499849999994,Incorrect! The correct answer is Speaker3. نادرست! پاسخ صحیح گوینده۳ است,1,2.163127083000063,None,68,84,59.13553449999995,59.14495483399992,61.158567417000086,61.13483641700009,61.13485029200001,0.8095238095238095,False,61.135009625000066,,,,,,,,,,,,,,,,,,,,,,,,,,,,,,,,,,,,,,,,,,,120126,001,2024-07-01_16h30.59.170,5-26,2024.1.4,None,2024-07-01 16h31.03.725903 +0900,
Images/Speaker1.jpg,Images/Speaker2.jpg,Images/Speaker3.jpg,Images/Speaker4.jpg,Audio/Speaker3_En/P3-6-En.wav,Speaker3,گوینده۳,,,,,,,,,,,,,,,,0,4,4,45,,,,,,,,,,,,,61.158567417000086,,,,,,,,,,,,,,,,,,,,,,,,,,,,,,,,,,,,,,,,,,,,,61.135186917000055,61.158567417000086,61.158567417000086,61.158567417000086,61.158567417000086,61.16792541733324,61.158567417000086,61.158567417000086,61.655937416999905,Incorrect! The correct answer is Speaker3. نادرست! پاسخ صحیح گوینده۳ است,1,0.49496912500012513,None,68,85,61.65992725000001,61.67281708399992,63.68371937500001,63.660099500000115,63.66011312499995,0.8,False,63.66026441700001,,,,,,,,,,,,,,,,,,,,,,,,,,,,,,,,,,,,,,,,,,,120126,001,2024-07-01_16h30.59.170,5-26,2024.1.4,None,2024-07-01 16h31.03.725903 +0900,
Images/Speaker1.jpg,Images/Speaker2.jpg,Images/Speaker3.jpg,Images/Speaker4.jpg,Audio/Speaker4_En/P4-9-En.wav,Speaker4,گوینده۴,,,,,,,,,,,,,,,,0,5,5,68,,,,,,,,,,,,,63.68371937500001,,,,,,,,,,,,,,,,,,,,,,,,,,,,,,,,,,,,,,,,,,,,,63.6604810419999,63.68371937500001,63.68371937500001,63.68371937500001,63.68371937500001,63.693173417333384,63.68371937500001,63.68371937500001,63.873468209000066,Incorrect! The correct answer is Speaker4. نادرست! پاسخ صحیح گوینده۴ است,1,0.18852875000015956,None,68,86,63.877418499999976,63.89063437499999,,65.88501887500001,65.8850434169999,0.7906976744186046,False,65.8857183749999,,,,,,,,,,,,,,,,,,,,,,,,,,,,,,,,,,,,,,,,,,,120126,001,2024-07-01_16h30.59.170,5-26,2024.1.4,None,2024-07-01 16h31.03.725903 +0900,
Images/Speaker1.jpg,Images/Speaker2.jpg,Images/Speaker3.jpg,Images/Speaker4.jpg,Audio/Speaker3_En/P3-1-En.wav,Speaker3,گوینده۳,,,,,,,,,,,,,,,,0,6,6,40,,,,,,,,,,,,,65.91311762500004,,,,,,,,,,,,,,,,,,,,,,,,,,,,,,,,,,,,,,,,,,,,,65.88628833400003,65.91311762500004,65.91311762500004,65.91311762500004,65.91311762500004,65.91818362533334,65.91311762500004,65.91311762500004,66.07047154199995,Incorrect! The correct answer is Speaker3. نادرست! پاسخ صحیح گوینده۳ است,1,0.14984420900009354,None,68,87,66.0752346669999,66.08972129199992,,68.07702441700008,68.07705229199996,0.7816091954022989,False,68.0778110419999,,,,,,,,,,,,,,,,,,,,,,,,,,,,,,,,,,,,,,,,,,,120126,001,2024-07-01_16h30.59.170,5-26,2024.1.4,None,2024-07-01 16h31.03.725903 +0900,
Images/Speaker1.jpg,Images/Speaker2.jpg,Images/Speaker3.jpg,Images/Speaker4.jpg,Audio/Speaker1_En/P1-18-En.wav,Speaker1,گوینده ۱,,,,,,,,,,,,,,,,0,7,7,17,,,,,,,,,,,,,68.09883429199999,,,,,,,,,,,,,,,,,,,,,,,,,,,,,,,,,,,,,,,,,,,,,68.0781455419999,68.09883429199999,68.09883429199999,68.09883429199999,68.09883429199999,68.09352983366672,68.09883429199999,68.09883429199999,68.39790212499997,Correct! صحیح است,1,0.2939916660000108,None,68,88,68.40181716699999,68.41253812500008,,70.40258133399993,70.40261433399996,0.7727272727272727,False,70.40327150000007,,,,,,,,,,,,,,,,,,,,,,,,,,,,,,,,,,,,,,,,,,,120126,001,2024-07-01_16h30.59.170,5-26,2024.1.4,None,2024-07-01 16h31.03.725903 +0900,
Images/Speaker1.jpg,Images/Speaker2.jpg,Images/Speaker3.jpg,Images/Speaker4.jpg,Audio/Speaker2_En/P2-9-En.wav,Speaker2,گوینده۲,,,,,,,,,,,,,,,,0,8,8,28,,,,,,,,,,,,,70.427348875,,,,,,,,,,,,,,,,,,,,,,,,,,,,,,,,,,,,,,,,,,,,,70.40403850000007,70.427348875,70.427348875,70.427348875,70.427348875,70.43571916733325,70.427348875,70.427348875,70.65165054199997,Incorrect! The correct answer is Speaker2. نادرست! پاسخ صحیح گوینده۲ است,1,0.21966687499980253,None,68,89,70.65592074999995,70.66856224999992,72.68199991699998,72.6546115839999,72.6546531250001,0.7640449438202247,False,72.65497449999998,,,,,,,,,,,,,,,,,,,,,,,,,,,,,,,,,,,,,,,,,,,120126,001,2024-07-01_16h30.59.170,5-26,2024.1.4,None,2024-07-01 16h31.03.725903 +0900,
Images/Speaker1.jpg,Images/Speaker2.jpg,Images/Speaker3.jpg,Images/Speaker4.jpg,Audio/Speaker4_En/P4-11-En.wav,Speaker4,گوینده۴,,,,,,,,,,,,,,,,0,9,9,70,,,,,,,,,,,,,72.68199991699998,,,,,,,,,,,,,,,,,,,,,,,,,,,,,,,,,,,,,,,,,,,,,72.65586341700009,72.68199991699998,72.68199991699998,72.68199991699998,72.68199991699998,72.68711320833339,72.68199991699998,72.68199991699998,72.99196395900003,Incorrect! The correct answer is Speaker4. نادرست! پاسخ صحیح گوینده۴ است,1,0.3026416249999784,None,68,90,72.996248917,73.00849208399995,,75.00048295900001,75.00049133399989,0.7555555555555555,False,75.00066908400004,,,,,,,,,,,,,,,,,,,,,,,,,,,,,,,,,,,,,,,,,,,120126,001,2024-07-01_16h30.59.170,5-26,2024.1.4,None,2024-07-01 16h31.03.725903 +0900,
Images/Speaker1.jpg,Images/Speaker2.jpg,Images/Speaker3.jpg,Images/Speaker4.jpg,Audio/Speaker1_En/P1-5-En.wav,Speaker1,گوینده ۱,,,,,,,,,,,,,,,,0,10,10,4,,,,,,,,,,,,,75.02352458399992,,,,,,,,,,,,,,,,,,,,,,,,,,,,,,,,,,,,,,,,,,,,,75.00082825000004,75.02352458399992,75.02352458399992,75.02352458399992,75.02352458399992,75.0171157916666,75.02352458399992,75.02352458399992,75.31849829199996,Correct! صحیح است,1,0.28786954199995307,None,68,91,75.32277770900009,75.33430991699993,,77.32542454200006,77.32545249999998,0.7472527472527473,False,77.32608045899997,,,,,,,,,,,,,,,,,,,,,,,,,,,,,,,,,,,,,,,,,,,120126,001,2024-07-01_16h30.59.170,5-26,2024.1.4,None,2024-07-01 16h31.03.725903 +0900,
Images/Speaker1.jpg,Images/Speaker2.jpg,Images/Speaker3.jpg,Images/Speaker4.jpg,Audio/Speaker3_En/P3-14-En.wav,Speaker3,گوینده۳,,,,,,,,,,,,,,,,0,11,11,53,,,,,,,,,,,,,77.350970125,,,,,,,,,,,,,,,,,,,,,,,,,,,,,,,,,,,,,,,,,,,,,77.32684537499995,77.350970125,77.350970125,77.350970125,77.350970125,77.35861625033343,77.350970125,77.350970125,77.662356542,Incorrect! The correct answer is Speaker3. نادرست! پاسخ صحیح گوینده۳ است,1,0.2979883330001485,None,68,92,77.667160792,77.681203375,,79.6688892090001,79.66891020899993,0.7391304347826086,False,79.66914520899991,,,,,,,,,,,,,,,,,,,,,,,,,,,,,,,,,,,,,,,,,,,120126,001,2024-07-01_16h30.59.170,5-26,2024.1.4,None,2024-07-01 16h31.03.725903 +0900,
Images/Speaker1.jpg,Images/Speaker2.jpg,Images/Speaker3.jpg,Images/Speaker4.jpg,Audio/Speaker4_En/P4-15-En.wav,Speaker4,گوینده۴,,,,,,,,,,,,,,,,0,12,12,74,,,,,,,,,,,,,79.6925967919999,,,,,,,,,,,,,,,,,,,,,,,,,,,,,,,,,,,,,,,,,,,,,79.66933666699993,79.6925967919999,79.6925967919999,79.6925967919999,79.6925967919999,79.7021465423334,79.6925967919999,79.6925967919999,79.877424625,Incorrect! The correct answer is Speaker4. نادرست! پاسخ صحیح گوینده۴ است,1,0.17460345799986499,None,68,93,79.88126733400009,79.89410154200004,,81.8838384170001,81.88384999999994,0.7311827956989247,False,81.88404408399992,,,,,,,,,,,,,,,,,,,,,,,,,,,,,,,,,,,,,,,,,,,120126,001,2024-07-01_16h30.59.170,5-26,2024.1.4,None,2024-07-01 16h31.03.725903 +0900,
Images/Speaker1.jpg,Images/Speaker2.jpg,Images/Speaker3.jpg,Images/Speaker4.jpg,Audio/Speaker1_En/P1-2-En.wav,Speaker1,گوینده ۱,,,,,,,,,,,,,,,,0,13,13,1,,,,,,,,,,,,,81.90754654200009,,,,,,,,,,,,,,,,,,,,,,,,,,,,,,,,,,,,,,,,,,,,,81.8842487500001,81.90754654200009,81.90754654200009,81.90754654200009,81.90754654200009,81.91713758333324,81.90754654200009,81.90754654200009,82.12066249999998,Correct! صحیح است,1,0.20394820899991828,None,68,94,82.12537629200006,82.13737245900006,84.14370529200005,84.12155645899998,84.12156508399994,0.723404255319149,False,84.121727792,,,,,,,,,,,,,,,,,,,,,,,,,,,,,,,,,,,,,,,,,,,120126,001,2024-07-01_16h30.59.170,5-26,2024.1.4,None,2024-07-01 16h31.03.725903 +0900,
Images/Speaker1.jpg,Images/Speaker2.jpg,Images/Speaker3.jpg,Images/Speaker4.jpg,Audio/Speaker3_En/P3-20-En.wav,Speaker3,گوینده۳,,,,,,,,,,,,,,,,0,14,14,59,,,,,,,,,,,,,84.14370529200005,,,,,,,,,,,,,,,,,,,,,,,,,,,,,,,,,,,,,,,,,,,,,84.1218994169999,84.14370529200005,84.14370529200005,84.14370529200005,84.14370529200005,84.13801908366669,84.14370529200005,84.14370529200005,84.31247950000011,Incorrect! The correct answer is Speaker3. نادرست! پاسخ صحیح گوینده۳ است,1,0.15745125000012195,None,68,95,84.3165735,84.32917354200004,86.33922466700005,86.31601945900002,86.31602804199997,0.7157894736842105,False,86.31619458399996,,,,,,,,,,,,,,,,,,,,,,,,,,,,,,,,,,,,,,,,,,,120126,001,2024-07-01_16h30.59.170,5-26,2024.1.4,None,2024-07-01 16h31.03.725903 +0900,
Images/Speaker1.jpg,Images/Speaker2.jpg,Images/Speaker3.jpg,Images/Speaker4.jpg,Audio/Speaker4_En/P4-12-En.wav,Speaker4,گوینده۴,,,,,,,,,,,,,,,,0,15,15,71,,,,,,,,,,,,,86.33922466700005,,,,,,,,,,,,,,,,,,,,,,,,,,,,,,,,,,,,,,,,,,,,,86.31637541700002,86.33922466700005,86.33922466700005,86.33922466700005,86.33922466700005,86.3490480003334,86.33922466700005,86.33922466700005,86.49598887499997,Incorrect! The correct answer is Speaker4. نادرست! پاسخ صحیح گوینده۴ است,1,0.1486603749999631,None,68,96,86.50000812500002,86.51288312499992,88.52324991699993,88.49872012500009,88.49872970899992,0.7083333333333334,False,88.49890725,,,,,,,,,,,,,,,,,,,,,,,,,,,,,,,,,,,,,,,,,,,120126,001,2024-07-01_16h30.59.170,5-26,2024.1.4,None,2024-07-01 16h31.03.725903 +0900,
Images/Speaker1.jpg,Images/Speaker2.jpg,Images/Speaker3.jpg,Images/Speaker4.jpg,Audio/Speaker4_En/P4-16-En.wav,Speaker4,گوینده۴,,,,,,,,,,,,,,,,0,16,16,75,,,,,,,,,,,,,88.52324991699993,,,,,,,,,,,,,,,,,,,,,,,,,,,,,,,,,,,,,,,,,,,,,88.49907525000003,88.52324991699993,88.52324991699993,88.52324991699993,88.52324991699993,88.53179745833339,88.52324991699993,88.52324991699993,88.6918814170001,Incorrect! The correct answer is Speaker4. نادرست! پاسخ صحیح گوینده۴ است,1,0.1650582919999124,None,68,97,88.69594200000006,88.70877666699994,90.71550670900001,90.69214295899997,90.69215120900003,0.7010309278350515,False,90.6923005839999,,,,,,,,,,,,,,,,,,,,,,,,,,,,,,,,,,,,,,,,,,,120126,001,2024-07-01_16h30.59.170,5-26,2024.1.4,None,2024-07-01 16h31.03.725903 +0900,
Images/Speaker1.jpg,Images/Speaker2.jpg,Images/Speaker3.jpg,Images/Speaker4.jpg,Audio/Speaker1_En/P1-6-En.wav,Speaker1,گوینده ۱,,,,,,,,,,,,,,,,0,17,17,5,,,,,,,,,,,,,90.71550670900001,,,,,,,,,,,,,,,,,,,,,,,,,,,,,,,,,,,,,,,,,,,,,90.69247666699994,90.71550670900001,90.71550670900001,90.71550670900001,90.71550670900001,90.72515250033328,90.71550670900001,90.71550670900001,90.76959712500002,Correct! صحیح است,1,0.04655470900002001,None,68,98,90.77377237499991,90.78479749999997,92.79177000000004,92.76917516699996,92.76918345900003,0.6938775510204082,False,92.7693388749999,,,,,,,,,,,,,,,,,,,,,,,,,,,,,,,,,,,,,,,,,,,120126,001,2024-07-01_16h30.59.170,5-26,2024.1.4,None,2024-07-01 16h31.03.725903 +0900,
Images/Speaker1.jpg,Images/Speaker2.jpg,Images/Speaker3.jpg,Images/Speaker4.jpg,Audio/Speaker1_En/P1-10-En.wav,Speaker1,گوینده ۱,,,,,,,,,,,,,,,,0,18,18,9,,,,,,,,,,,,,92.79177000000004,,,,,,,,,,,,,,,,,,,,,,,,,,,,,,,,,,,,,,,,,,,,,92.7694939999999,92.79177000000004,92.79177000000004,92.79177000000004,92.79177000000004,92.80229195833343,92.79177000000004,92.79177000000004,92.91433675000007,Correct! صحیح است,1,0.1206299579998813,None,68,99,92.91817720900008,92.92920733400001,94.93601879199991,94.91305975,94.91306837499997,0.6868686868686869,False,94.91321541699995,,,,,,,,,,,,,,,,,,,,,,,,,,,,,,,,,,,,,,,,,,,120126,001,2024-07-01_16h30.59.170,5-26,2024.1.4,None,2024-07-01 16h31.03.725903 +0900,
Images/Speaker1.jpg,Images/Speaker2.jpg,Images/Speaker3.jpg,Images/Speaker4.jpg,Audio/Speaker2_En/P2-19-En.wav,Speaker2,گوینده۲,,,,,,,,,,,,,,,,0,19,19,38,,,,,,,,,,,,,94.93601879199991,,,,,,,,,,,,,,,,,,,,,,,,,,,,,,,,,,,,,,,,,,,,,94.9134100419999,94.93601879199991,94.93601879199991,94.93601879199991,94.93601879199991,94.94619550033329,94.93601879199991,94.93601879199991,94.967936625,Incorrect! The correct answer is Speaker2. نادرست! پاسخ صحیح گوینده۲ است,1,0.026330165999979727,None,68,100,94.97162091700011,94.98428587500007,96.99377783399996,96.9694622500001,96.96949520900012,0.68,False,96.96981750000009,,,,,,,,,,,,,,,,,,,,,,,,,,,,,,,,,,,,,,,,,,,120126,001,2024-07-01_16h30.59.170,5-26,2024.1.4,None,2024-07-01 16h31.03.725903 +0900,
Images/Speaker1.jpg,Images/Speaker2.jpg,Images/Speaker3.jpg,Images/Speaker4.jpg,Audio/Speaker3_En/P3-12-En.wav,Speaker3,گوینده۳,,,,,,,,,,,,,,,,0,20,20,51,,,,,,,,,,,,,96.99377783399996,,,,,,,,,,,,,,,,,,,,,,,,,,,,,,,,,,,,,,,,,,,,,96.97067804199992,96.99377783399996,96.99377783399996,96.99377783399996,96.99377783399996,97.00183829233336,96.99377783399996,96.99377783399996,97.14992620900011,Incorrect! The correct answer is Speaker3. نادرست! پاسخ صحیح گوینده۳ است,1,0.14985041599993565,None,68,101,97.15417316699995,97.16660216700006,99.1733401250001,99.150038709,99.15004762500007,0.6732673267326733,False,99.150219375,,,,,,,,,,,,,,,,,,,,,,,,,,,,,,,,,,,,,,,,,,,120126,001,2024-07-01_16h30.59.170,5-26,2024.1.4,None,2024-07-01 16h31.03.725903 +0900,
Images/Speaker1.jpg,Images/Speaker2.jpg,Images/Speaker3.jpg,Images/Speaker4.jpg,Audio/Speaker2_En/P2-7-En.wav,Speaker2,گوینده۲,,,,,,,,,,,,,,,,0,21,21,26,,,,,,,,,,,,,99.1733401250001,,,,,,,,,,,,,,,,,,,,,,,,,,,,,,,,,,,,,,,,,,,,,99.15038245899996,99.1733401250001,99.1733401250001,99.1733401250001,99.1733401250001,99.18312087533334,99.1733401250001,99.1733401250001,99.23928295900009,Incorrect! The correct answer is Speaker2. نادرست! پاسخ صحیح گوینده۲ است,1,0.06347770799993668,None,68,102,99.24350908399992,99.2560249170001,101.26544633399999,101.24140179200003,101.2414113750001,0.6666666666666666,False,101.24157666699989,,,,,,,,,,,,,,,,,,,,,,,,,,,,,,,,,,,,,,,,,,,120126,001,2024-07-01_16h30.59.170,5-26,2024.1.4,None,2024-07-01 16h31.03.725903 +0900,
Images/Speaker1.jpg,Images/Speaker2.jpg,Images/Speaker3.jpg,Images/Speaker4.jpg,Audio/Speaker1_En/P1-15-En.wav,Speaker1,گوینده ۱,,,,,,,,,,,,,,,,0,22,22,14,,,,,,,,,,,,,101.26544633399999,,,,,,,,,,,,,,,,,,,,,,,,,,,,,,,,,,,,,,,,,,,,,101.24176970899998,101.26544633399999,101.26544633399999,101.26544633399999,101.26544633399999,101.27441625033342,101.26544633399999,101.26544633399999,101.42560125,Correct! صحیح است,1,0.14869616700002553,None,68,103,101.42950658399991,101.440929375,,103.43357920900007,103.43358766699998,0.6601941747572816,False,103.43374949999998,,,,,,,,,,,,,,,,,,,,,,,,,,,,,,,,,,,,,,,,,,,120126,001,2024-07-01_16h30.59.170,5-26,2024.1.4,None,2024-07-01 16h31.03.725903 +0900,
Images/Speaker1.jpg,Images/Speaker2.jpg,Images/Speaker3.jpg,Images/Speaker4.jpg,Audio/Speaker4_En/P4-10-En.wav,Speaker4,گوینده۴,,,,,,,,,,,,,,,,0,23,23,69,,,,,,,,,,,,,103.45703683400006,,,,,,,,,,,,,,,,,,,,,,,,,,,,,,,,,,,,,,,,,,,,,103.43392441700007,103.45703683400006,103.45703683400006,103.45703683400006,103.45703683400006,103.46687750033337,103.45703683400006,103.45703683400006,103.6033540840001,Incorrect! The correct answer is Speaker4. نادرست! پاسخ صحیح گوینده۴ است,1,0.1448078749999695,None,68,104,103.60730508400002,103.6199294170001,105.6288361249999,105.60560295899995,105.60561170899996,0.6538461538461539,False,105.60578533400007,,,,,,,,,,,,,,,,,,,,,,,,,,,,,,,,,,,,,,,,,,,120126,001,2024-07-01_16h30.59.170,5-26,2024.1.4,None,2024-07-01 16h31.03.725903 +0900,
Images/Speaker1.jpg,Images/Speaker2.jpg,Images/Speaker3.jpg,Images/Speaker4.jpg,Audio/Speaker4_En/P4-3-En.wav,Speaker4,گوینده۴,,,,,,,,,,,,,,,,0,24,24,62,,,,,,,,,,,,,105.6288361249999,,,,,,,,,,,,,,,,,,,,,,,,,,,,,,,,,,,,,,,,,,,,,105.60595358399996,105.6288361249999,105.6288361249999,105.6288361249999,105.6288361249999,105.63868441733328,105.6288361249999,105.6288361249999,105.78803554199999,Incorrect! The correct answer is Speaker4. نادرست! پاسخ صحیح گوینده۴ است,1,0.145867459000101,None,68,105,105.79235491700001,105.80608241699997,,107.79555233399992,107.79557879200001,0.6476190476190476,False,107.79631145899998,,,,,,,,,,,,,,,,,,,,,,,,,,,,,,,,,,,,,,,,,,,120126,001,2024-07-01_16h30.59.170,5-26,2024.1.4,None,2024-07-01 16h31.03.725903 +0900,
Images/Speaker1.jpg,Images/Speaker2.jpg,Images/Speaker3.jpg,Images/Speaker4.jpg,Audio/Speaker2_En/P2-6-En.wav,Speaker2,گوینده۲,,,,,,,,,,,,,,,,0,25,25,25,,,,,,,,,,,,,107.82384529199999,,,,,,,,,,,,,,,,,,,,,,,,,,,,,,,,,,,,,,,,,,,,,107.7972857090001,107.82384529199999,107.82384529199999,107.82384529199999,107.82384529199999,107.82871629233344,107.82384529199999,107.82384529199999,107.88619745899996,Incorrect! The correct answer is Speaker2. نادرست! پاسخ صحیح گوینده۲ است,1,0.059972667000010915,None,68,106,107.8901364589999,107.90298595900003,,109.89460749999989,109.89461733400003,0.6415094339622641,False,109.89484279199996,,,,,,,,,,,,,,,,,,,,,,,,,,,,,,,,,,,,,,,,,,,120126,001,2024-07-01_16h30.59.170,5-26,2024.1.4,None,2024-07-01 16h31.03.725903 +0900,
Images/Speaker1.jpg,Images/Speaker2.jpg,Images/Speaker3.jpg,Images/Speaker4.jpg,Audio/Speaker2_En/P2-13-En.wav,Speaker2,گوینده۲,,,,,,,,,,,,,,,,0,26,26,32,,,,,,,,,,,,,109.91736704200002,,,,,,,,,,,,,,,,,,,,,,,,,,,,,,,,,,,,,,,,,,,,,109.89503691699997,109.91736704200002,109.91736704200002,109.91736704200002,109.91736704200002,109.92790362533336,109.91736704200002,109.91736704200002,110.10226145899992,Incorrect! The correct answer is Speaker2. نادرست! پاسخ صحیح گوینده۲ است,1,0.17573012499997276,None,68,107,110.10606358399991,110.11856591700007,112.126674375,112.10369354199997,112.10370295899997,0.6355140186915887,False,112.1038517500001,,,,,,,,,,,,,,,,,,,,,,,,,,,,,,,,,,,,,,,,,,,120126,001,2024-07-01_16h30.59.170,5-26,2024.1.4,None,2024-07-01 16h31.03.725903 +0900,
Images/Speaker1.jpg,Images/Speaker2.jpg,Images/Speaker3.jpg,Images/Speaker4.jpg,Audio/Speaker1_En/P1-3-En.wav,Speaker1,گوینده ۱,,,,,,,,,,,,,,,,0,27,27,2,,,,,,,,,,,,,112.126674375,,,,,,,,,,,,,,,,,,,,,,,,,,,,,,,,,,,,,,,,,,,,,112.1040157089999,112.126674375,112.126674375,112.126674375,112.126674375,112.12016479166665,112.126674375,112.126674375,112.24401991700006,Correct! صحیح است,1,0.10450183300008575,None,68,108,112.2482681250001,112.25893179200011,,114.25096604200007,114.25100425000005,0.6296296296296297,False,114.25193383400006,,,,,,,,,,,,,,,,,,,,,,,,,,,,,,,,,,,,,,,,,,,120126,001,2024-07-01_16h30.59.170,5-26,2024.1.4,None,2024-07-01 16h31.03.725903 +0900,
Images/Speaker1.jpg,Images/Speaker2.jpg,Images/Speaker3.jpg,Images/Speaker4.jpg,Audio/Speaker1_En/P1-4-En.wav,Speaker1,گوینده ۱,,,,,,,,,,,,,,,,0,28,28,13,,,,,,,,,,,,,114.27662620899991,,,,,,,,,,,,,,,,,,,,,,,,,,,,,,,,,,,,,,,,,,,,,114.2524645420001,114.27662620899991,114.27662620899991,114.27662620899991,114.27662620899991,114.28414183333328,114.27662620899991,114.27662620899991,114.45048433400007,Correct! صحیح است,1,0.17274337499998182,None,68,109,114.45506483400004,114.46668875,116.48006516700002,116.45422979199998,116.45426225000006,0.6238532110091743,False,116.45460600000001,,,,,,,,,,,,,,,,,,,,,,,,,,,,,,,,,,,,,,,,,,,120126,001,2024-07-01_16h30.59.170,5-26,2024.1.4,None,2024-07-01 16h31.03.725903 +0900,
Images/Speaker1.jpg,Images/Speaker2.jpg,Images/Speaker3.jpg,Images/Speaker4.jpg,Audio/Speaker2_En/P2-12-En.wav,Speaker2,گوینده۲,,,,,,,,,,,,,,,,0,29,29,31,,,,,,,,,,,,,116.48006516700002,,,,,,,,,,,,,,,,,,,,,,,,,,,,,,,,,,,,,,,,,,,,,116.455449542,116.48006516700002,116.48006516700002,116.48006516700002,116.48006516700002,116.48675083333345,116.48006516700002,116.48006516700002,116.57256666700005,Incorrect! The correct answer is Speaker2. نادرست! پاسخ صحیح گوینده۲ است,1,0.08905862500000694,None,68,110,116.57671145900008,116.58902045900004,,118.58433375000004,118.58436174999997,0.6181818181818182,False,118.58509270900004,,,,,,,,,,,,,,,,,,,,,,,,,,,,,,,,,,,,,,,,,,,120126,001,2024-07-01_16h30.59.170,5-26,2024.1.4,None,2024-07-01 16h31.03.725903 +0900,
Images/Speaker1.jpg,Images/Speaker2.jpg,Images/Speaker3.jpg,Images/Speaker4.jpg,Audio/Speaker2_En/P2-5-En.wav,Speaker2,گوینده۲,,,,,,,,,,,,,,,,0,30,30,24,,,,,,,,,,,,,118.60904520899999,,,,,,,,,,,,,,,,,,,,,,,,,,,,,,,,,,,,,,,,,,,,,118.58568120900009,118.60904520899999,118.60904520899999,118.60904520899999,118.60904520899999,118.61751016733322,118.60904520899999,118.60904520899999,118.63656595900011,Incorrect! The correct answer is Speaker2. نادرست! پاسخ صحیح گوینده۲ است,1,0.01642179199984639,None,68,111,118.64047666700003,118.65226216699989,120.66068229200005,120.63742724999997,120.63743649999992,0.6126126126126126,False,120.63758954200011,,,,,,,,,,,,,,,,,,,,,,,,,,,,,,,,,,,,,,,,,,,120126,001,2024-07-01_16h30.59.170,5-26,2024.1.4,None,2024-07-01 16h31.03.725903 +0900,
Images/Speaker1.jpg,Images/Speaker2.jpg,Images/Speaker3.jpg,Images/Speaker4.jpg,Audio/Speaker4_En/P4-13-En.wav,Speaker4,گوینده۴,,,,,,,,,,,,,,,,0,31,31,72,,,,,,,,,,,,,120.66068229200005,,,,,,,,,,,,,,,,,,,,,,,,,,,,,,,,,,,,,,,,,,,,,120.63776750000011,120.66068229200005,120.66068229200005,120.66068229200005,120.66068229200005,120.67057275033338,120.66068229200005,120.66068229200005,120.76601166699993,Incorrect! The correct answer is Speaker4. نادرست! پاسخ صحیح گوینده۴ است,1,0.10090587499985304,None,68,112,120.76993900000002,120.78220945900011,,122.77461945899995,122.7746441669999,0.6071428571428571,False,122.77546849999999,,,,,,,,,,,,,,,,,,,,,,,,,,,,,,,,,,,,,,,,,,,120126,001,2024-07-01_16h30.59.170,5-26,2024.1.4,None,2024-07-01 16h31.03.725903 +0900,
Images/Speaker1.jpg,Images/Speaker2.jpg,Images/Speaker3.jpg,Images/Speaker4.jpg,Audio/Speaker1_En/P1-9-En.wav,Speaker1,گوینده ۱,,,,,,,,,,,,,,,,0,32,32,8,,,,,,,,,,,,,122.80246850000003,,,,,,,,,,,,,,,,,,,,,,,,,,,,,,,,,,,,,,,,,,,,,122.7764010840001,122.80246850000003,122.80246850000003,122.80246850000003,122.80246850000003,122.80778712533336,122.80246850000003,122.80246850000003,122.96356450000007,Correct! صحیح است,1,0.15942295800005013,None,68,113,122.96767320899994,122.97853358399993,124.99175854200007,124.9683486670001,124.96837779199996,0.6017699115044248,False,124.96868558400001,,,,,,,,,,,,,,,,,,,,,,,,,,,,,,,,,,,,,,,,,,,120126,001,2024-07-01_16h30.59.170,5-26,2024.1.4,None,2024-07-01 16h31.03.725903 +0900,
Images/Speaker1.jpg,Images/Speaker2.jpg,Images/Speaker3.jpg,Images/Speaker4.jpg,Audio/Speaker2_En/P2-8-En.wav,Speaker2,گوینده۲,,,,,,,,,,,,,,,,0,33,33,27,,,,,,,,,,,,,124.99175854200007,,,,,,,,,,,,,,,,,,,,,,,,,,,,,,,,,,,,,,,,,,,,,124.96885983400011,124.99175854200007,124.99175854200007,124.99175854200007,124.99175854200007,125.0007856673333,124.99175854200007,124.99175854200007,125.17674620899993,Incorrect! The correct answer is Speaker2. نادرست! پاسخ صحیح گوینده۲ است,1,0.17187583300005826,None,68,114,125.1808544590001,125.19108229199992,,127.18515858399996,127.18517091700005,0.5964912280701754,False,127.18539895899994,,,,,,,,,,,,,,,,,,,,,,,,,,,,,,,,,,,,,,,,,,,120126,001,2024-07-01_16h30.59.170,5-26,2024.1.4,None,2024-07-01 16h31.03.725903 +0900,
Images/Speaker1.jpg,Images/Speaker2.jpg,Images/Speaker3.jpg,Images/Speaker4.jpg,Audio/Speaker3_En/P3-4-En.wav,Speaker3,گوینده۳,,,,,,,,,,,,,,,,0,34,34,43,,,,,,,,,,,,,127.20903762500006,,,,,,,,,,,,,,,,,,,,,,,,,,,,,,,,,,,,,,,,,,,,,127.18556041700003,127.20903762500006,127.20903762500006,127.20903762500006,127.20903762500006,127.21845175033334,127.20903762500006,127.20903762500006,127.32707600000003,Incorrect! The correct answer is Speaker3. نادرست! پاسخ صحیح گوینده۳ است,1,0.11483075000001008,None,68,115,127.33083962499995,127.34351337499993,129.3485639590001,129.32608483400008,129.326093959,0.591304347826087,False,129.32627079200006,,,,,,,,,,,,,,,,,,,,,,,,,,,,,,,,,,,,,,,,,,,120126,001,2024-07-01_16h30.59.170,5-26,2024.1.4,None,2024-07-01 16h31.03.725903 +0900,
Images/Speaker1.jpg,Images/Speaker2.jpg,Images/Speaker3.jpg,Images/Speaker4.jpg,Audio/Speaker3_En/P3-17-En.wav,Speaker3,گوینده۳,,,,,,,,,,,,,,,,0,35,35,56,,,,,,,,,,,,,129.3485639590001,,,,,,,,,,,,,,,,,,,,,,,,,,,,,,,,,,,,,,,,,,,,,129.32642504199998,129.3485639590001,129.3485639590001,129.3485639590001,129.3485639590001,129.34252437566673,129.3485639590001,129.3485639590001,129.45380849999992,Incorrect! The correct answer is Speaker3. نادرست! پاسخ صحیح گوینده۳ است,1,0.10288500000001477,None,68,116,129.4577072500001,129.469841459,,131.4615994589999,131.46163174999992,0.5862068965517241,False,131.462315,,,,,,,,,,,,,,,,,,,,,,,,,,,,,,,,,,,,,,,,,,,120126,001,2024-07-01_16h30.59.170,5-26,2024.1.4,None,2024-07-01 16h31.03.725903 +0900,
Images/Speaker1.jpg,Images/Speaker2.jpg,Images/Speaker3.jpg,Images/Speaker4.jpg,Audio/Speaker3_En/P3-15-En.wav,Speaker3,گوینده۳,,,,,,,,,,,,,,,,0,36,36,54,,,,,,,,,,,,,131.48919620900006,,,,,,,,,,,,,,,,,,,,,,,,,,,,,,,,,,,,,,,,,,,,,131.46325645899992,131.48919620900006,131.48919620900006,131.48919620900006,131.48919620900006,131.4947677083333,131.48919620900006,131.48919620900006,131.64117379200002,Incorrect! The correct answer is Speaker3. نادرست! پاسخ صحیح گوینده۳ است,1,0.14377349999995204,None,68,117,131.64520883399996,131.65527958400003,133.67256829200005,133.64505024999994,133.6450716669999,0.5811965811965812,False,133.6454000000001,,,,,,,,,,,,,,,,,,,,,,,,,,,,,,,,,,,,,,,,,,,120126,001,2024-07-01_16h30.59.170,5-26,2024.1.4,None,2024-07-01 16h31.03.725903 +0900,
Images/Speaker1.jpg,Images/Speaker2.jpg,Images/Speaker3.jpg,Images/Speaker4.jpg,Audio/Speaker1_En/P1-19-En.wav,Speaker1,گوینده ۱,,,,,,,,,,,,,,,,0,37,37,18,,,,,,,,,,,,,133.67256829200005,,,,,,,,,,,,,,,,,,,,,,,,,,,,,,,,,,,,,,,,,,,,,133.64632445899997,133.67256829200005,133.67256829200005,133.67256829200005,133.67256829200005,133.67755425033334,133.67256829200005,133.67256829200005,133.7942276670001,Correct! صحیح است,1,0.11830045800002154,None,68,118,133.79804725000008,133.808566917,135.81915841699993,135.792184334,135.7921933749999,0.576271186440678,False,135.79235874999995,,,,,,,,,,,,,,,,,,,,,,,,,,,,,,,,,,,,,,,,,,,120126,001,2024-07-01_16h30.59.170,5-26,2024.1.4,None,2024-07-01 16h31.03.725903 +0900,
Images/Speaker1.jpg,Images/Speaker2.jpg,Images/Speaker3.jpg,Images/Speaker4.jpg,Audio/Speaker3_En/P3-9-En.wav,Speaker3,گوینده۳,,,,,,,,,,,,,,,,0,38,38,48,,,,,,,,,,,,,135.81915841699993,,,,,,,,,,,,,,,,,,,,,,,,,,,,,,,,,,,,,,,,,,,,,135.79252162500006,135.81915841699993,135.81915841699993,135.81915841699993,135.81915841699993,135.82526795833343,135.81915841699993,135.81915841699993,135.81979391699997,Incorrect! The correct answer is Speaker3. نادرست! پاسخ صحیح گوینده۳ است,1,2.129745916000047,None,68,119,135.82025658399994,135.82981879199997,137.84046720900005,137.817483584,137.817499709,0.5714285714285714,False,137.8176651670001,,,,,,,,,,,,,,,,,,,,,,,,,,,,,,,,,,,,,,,,,,,120126,001,2024-07-01_16h30.59.170,5-26,2024.1.4,None,2024-07-01 16h31.03.725903 +0900,
Images/Speaker1.jpg,Images/Speaker2.jpg,Images/Speaker3.jpg,Images/Speaker4.jpg,Audio/Speaker4_En/P4-7-En.wav,Speaker4,گوینده۴,,,,,,,,,,,,,,,,0,39,39,66,,,,,,,,,,,,,137.84046720900005,,,,,,,,,,,,,,,,,,,,,,,,,,,,,,,,,,,,,,,,,,,,,137.8178110419999,137.84046720900005,137.84046720900005,137.84046720900005,137.84046720900005,137.8338900836666,137.84046720900005,137.84046720900005,137.92297000000008,Incorrect! The correct answer is Speaker4. نادرست! پاسخ صحیح گوینده۴ است,1,0.08136262500011071,None,68,120,137.92712245899997,137.94059437500005,,139.93665720900003,139.9366909590001,0.5666666666666667,False,139.9372814589999,,,,,,,,,,,,,,,,,,,,,,,,,,,,,,,,,,,,,,,,,,,120126,001,2024-07-01_16h30.59.170,5-26,2024.1.4,None,2024-07-01 16h31.03.725903 +0900,
Images/Speaker1.jpg,Images/Speaker2.jpg,Images/Speaker3.jpg,Images/Speaker4.jpg,Audio/Speaker2_En/P2-18-En.wav,Speaker2,گوینده۲,,,,,,,,,,,,,,,,0,40,40,37,,,,,,,,,,,,,139.9631260000001,,,,,,,,,,,,,,,,,,,,,,,,,,,,,,,,,,,,,,,,,,,,,139.93816175000006,139.9631260000001,139.9631260000001,139.9631260000001,139.9631260000001,139.96984375033327,139.9631260000001,139.9631260000001,140.09239987499996,Incorrect! The correct answer is Speaker2. نادرست! پاسخ صحیح گوینده۲ است,1,None,None,68,121,140.096597084,140.10785325000006,142.11715216700009,142.09255200000007,142.09256179199997,0.5619834710743802,False,142.092727792,,,,,,,,,,,,,,,,,,,,,,,,,,,,,,,,,,,,,,,,,,,120126,001,2024-07-01_16h30.59.170,5-26,2024.1.4,None,2024-07-01 16h31.03.725903 +0900,
Images/Speaker1.jpg,Images/Speaker2.jpg,Images/Speaker3.jpg,Images/Speaker4.jpg,Audio/Speaker2_En/P2-11-En.wav,Speaker2,گوینده۲,,,,,,,,,,,,,,,,0,41,41,30,,,,,,,,,,,,,142.11715216700009,,,,,,,,,,,,,,,,,,,,,,,,,,,,,,,,,,,,,,,,,,,,,142.092892292,142.11715216700009,142.11715216700009,142.11715216700009,142.11715216700009,142.1256287083334,142.11715216700009,142.11715216700009,142.11782333399992,Incorrect! The correct answer is Speaker2. نادرست! پاسخ صحیح گوینده۲ است,1,2.031995249999909,None,68,122,142.1180307499999,142.12785320900002,,144.11899495900002,144.11900958399997,0.5573770491803278,False,144.11926508400006,,,,,,,,,,,,,,,,,,,,,,,,,,,,,,,,,,,,,,,,,,,120126,001,2024-07-01_16h30.59.170,5-26,2024.1.4,None,2024-07-01 16h31.03.725903 +0900,
Images/Speaker1.jpg,Images/Speaker2.jpg,Images/Speaker3.jpg,Images/Speaker4.jpg,Audio/Speaker3_En/P3-19-En.wav,Speaker3,گوینده۳,,,,,,,,,,,,,,,,0,42,42,58,,,,,,,,,,,,,144.1426577919999,,,,,,,,,,,,,,,,,,,,,,,,,,,,,,,,,,,,,,,,,,,,,144.11945012499996,144.1426577919999,144.1426577919999,144.1426577919999,144.1426577919999,144.1522561673333,144.1426577919999,144.1426577919999,144.14323341699992,Incorrect! The correct answer is Speaker3. نادرست! پاسخ صحیح گوینده۳ است,1,1.9857150419998106,None,68,123,144.14367383400008,144.15308908399993,146.16147712499992,146.13836450000008,146.13837354199995,0.5528455284552846,False,146.13854300000003,,,,,,,,,,,,,,,,,,,,,,,,,,,,,,,,,,,,,,,,,,,120126,001,2024-07-01_16h30.59.170,5-26,2024.1.4,None,2024-07-01 16h31.03.725903 +0900,
Images/Speaker1.jpg,Images/Speaker2.jpg,Images/Speaker3.jpg,Images/Speaker4.jpg,Audio/Speaker4_En/P4-8-En.wav,Speaker4,گوینده۴,,,,,,,,,,,,,,,,0,43,43,67,,,,,,,,,,,,,146.16147712499992,,,,,,,,,,,,,,,,,,,,,,,,,,,,,,,,,,,,,,,,,,,,,146.1387279999999,146.16147712499992,146.16147712499992,146.16147712499992,146.16147712499992,146.1714290423334,146.16147712499992,146.16147712499992,146.22793008400004,Incorrect! The correct answer is Speaker4. نادرست! پاسخ صحیح گوینده۴ است,1,0.054493500000035056,None,68,124,146.2318607919999,146.24472358399998,148.25839370900007,148.23127933399996,148.23131683399993,0.5483870967741935,False,148.231761625,,,,,,,,,,,,,,,,,,,,,,,,,,,,,,,,,,,,,,,,,,,120126,001,2024-07-01_16h30.59.170,5-26,2024.1.4,None,2024-07-01 16h31.03.725903 +0900,
Images/Speaker1.jpg,Images/Speaker2.jpg,Images/Speaker3.jpg,Images/Speaker4.jpg,Audio/Speaker3_En/P3-7-En.wav,Speaker3,گوینده۳,,,,,,,,,,,,,,,,0,44,44,46,,,,,,,,,,,,,148.25839370900007,,,,,,,,,,,,,,,,,,,,,,,,,,,,,,,,,,,,,,,,,,,,,148.23275387500007,148.25839370900007,148.25839370900007,148.25839370900007,148.25839370900007,148.26353166733344,148.25839370900007,148.25839370900007,148.30114179199995,Incorrect! The correct answer is Speaker3. نادرست! پاسخ صحیح گوینده۳ است,1,0.04082970900003602,None,68,125,148.3049713339999,148.31815912499997,,150.30836891700005,150.30839674999993,0.544,False,150.30933379199996,,,,,,,,,,,,,,,,,,,,,,,,,,,,,,,,,,,,,,,,,,,120126,001,2024-07-01_16h30.59.170,5-26,2024.1.4,None,2024-07-01 16h31.03.725903 +0900,
Images/Speaker1.jpg,Images/Speaker2.jpg,Images/Speaker3.jpg,Images/Speaker4.jpg,Audio/Speaker3_En/P3-8-En.wav,Speaker3,گوینده۳,,,,,,,,,,,,,,,,0,45,45,47,,,,,,,,,,,,,150.33558270899994,,,,,,,,,,,,,,,,,,,,,,,,,,,,,,,,,,,,,,,,,,,,,150.3102047499999,150.33558270899994,150.33558270899994,150.33558270899994,150.33558270899994,150.34154891733334,150.33558270899994,150.33558270899994,150.44460416700008,Incorrect! The correct answer is Speaker3. نادرست! پاسخ صحیح گوینده۳ است,1,0.10802187499984939,None,68,126,150.4483963749999,150.46091616700005,152.47571874999994,152.4491116669999,152.449136834,0.5396825396825397,False,152.44942958399997,,,,,,,,,,,,,,,,,,,,,,,,,,,,,,,,,,,,,,,,,,,120126,001,2024-07-01_16h30.59.170,5-26,2024.1.4,None,2024-07-01 16h31.03.725903 +0900,
Images/Speaker1.jpg,Images/Speaker2.jpg,Images/Speaker3.jpg,Images/Speaker4.jpg,Audio/Speaker3_En/P3-16-En.wav,Speaker3,گوینده۳,,,,,,,,,,,,,,,,0,46,46,55,,,,,,,,,,,,,152.47571874999994,,,,,,,,,,,,,,,,,,,,,,,,,,,,,,,,,,,,,,,,,,,,,152.4503481249999,152.47571874999994,152.47571874999994,152.47571874999994,152.47571874999994,152.48162291733325,152.47571874999994,152.47571874999994,152.51433504200008,Incorrect! The correct answer is Speaker3. نادرست! پاسخ صحیح گوینده۳ است,1,0.030098917000032088,None,68,127,152.5181459590001,152.5307674589999,,154.52227666699991,154.5223034999999,0.5354330708661418,False,154.52313062500002,,,,,,,,,,,,,,,,,,,,,,,,,,,,,,,,,,,,,,,,,,,120126,001,2024-07-01_16h30.59.170,5-26,2024.1.4,None,2024-07-01 16h31.03.725903 +0900,
Images/Speaker1.jpg,Images/Speaker2.jpg,Images/Speaker3.jpg,Images/Speaker4.jpg,Audio/Speaker1_En/P1-12-En.wav,Speaker1,گوینده ۱,,,,,,,,,,,,,,,,0,47,47,11,,,,,,,,,,,,,154.54736249999996,,,,,,,,,,,,,,,,,,,,,,,,,,,,,,,,,,,,,,,,,,,,,154.52369866699996,154.54736249999996,154.54736249999996,154.54736249999996,154.54736249999996,154.55544158333333,154.54736249999996,154.54736249999996,154.71657916699996,Correct! صحیح است,1,0.15742841700011923,None,68,128,154.72066641700007,154.73140549999994,156.74236304200008,156.71504316699998,156.7150718339999,0.53125,False,156.7153968749999,,,,,,,,,,,,,,,,,,,,,,,,,,,,,,,,,,,,,,,,,,,120126,001,2024-07-01_16h30.59.170,5-26,2024.1.4,None,2024-07-01 16h31.03.725903 +0900,
Images/Speaker1.jpg,Images/Speaker2.jpg,Images/Speaker3.jpg,Images/Speaker4.jpg,Audio/Speaker4_En/P4-19-En.wav,Speaker4,گوینده۴,,,,,,,,,,,,,,,,0,48,48,78,,,,,,,,,,,,,156.74236304200008,,,,,,,,,,,,,,,,,,,,,,,,,,,,,,,,,,,,,,,,,,,,,156.71607454200011,156.74236304200008,156.74236304200008,156.74236304200008,156.74236304200008,156.74746450033336,156.74236304200008,156.74236304200008,156.74300633400003,Incorrect! The correct answer is Speaker4. نادرست! پاسخ صحیح گوینده۴ است,1,2.173778792000121,None,68,129,156.74345399999993,156.753301834,158.76671387500005,158.743454917,158.74346445900005,0.5271317829457365,False,158.74361454199993,,,,,,,,,,,,,,,,,,,,,,,,,,,,,,,,,,,,,,,,,,,120126,001,2024-07-01_16h30.59.170,5-26,2024.1.4,None,2024-07-01 16h31.03.725903 +0900,
Images/Speaker1.jpg,Images/Speaker2.jpg,Images/Speaker3.jpg,Images/Speaker4.jpg,Audio/Speaker2_En/P2-15-En.wav,Speaker2,گوینده۲,,,,,,,,,,,,,,,,0,49,49,34,,,,,,,,,,,,,158.76671387500005,,,,,,,,,,,,,,,,,,,,,,,,,,,,,,,,,,,,,,,,,,,,,158.74378795899997,158.76671387500005,158.76671387500005,158.76671387500005,158.76671387500005,158.7765532503334,158.76671387500005,158.76671387500005,158.90081091699994,Incorrect! The correct answer is Speaker2. نادرست! پاسخ صحیح گوینده۲ است,1,0.1310412500001803,None,68,130,158.9050252090001,158.9178875,,160.91147408400002,160.9115092500001,0.5230769230769231,False,160.91230329199993,,,,,,,,,,,,,,,,,,,,,,,,,,,,,,,,,,,,,,,,,,,120126,001,2024-07-01_16h30.59.170,5-26,2024.1.4,None,2024-07-01 16h31.03.725903 +0900,
Images/Speaker1.jpg,Images/Speaker2.jpg,Images/Speaker3.jpg,Images/Speaker4.jpg,Audio/Speaker2_En/P2-2-En.wav,Speaker2,گوینده۲,,,,,,,,,,,,,,,,0,50,50,21,,,,,,,,,,,,,160.93625825000004,,,,,,,,,,,,,,,,,,,,,,,,,,,,,,,,,,,,,,,,,,,,,160.913198125,160.93625825000004,160.93625825000004,160.93625825000004,160.93625825000004,160.9446523333334,160.93625825000004,160.93625825000004,161.05370570900004,Incorrect! The correct answer is Speaker2. نادرست! پاسخ صحیح گوینده۲ است,1,0.10595879200013769,None,68,131,161.0575355840001,161.06986400000005,,163.05881012500004,163.05881833400008,0.5190839694656488,False,163.058995375,,,,,,,,,,,,,,,,,,,,,,,,,,,,,,,,,,,,,,,,,,,120126,001,2024-07-01_16h30.59.170,5-26,2024.1.4,None,2024-07-01 16h31.03.725903 +0900,
Images/Speaker1.jpg,Images/Speaker2.jpg,Images/Speaker3.jpg,Images/Speaker4.jpg,Audio/Speaker3_En/P3-13-En.wav,Speaker3,گوینده۳,,,,,,,,,,,,,,,,0,51,51,52,,,,,,,,,,,,,163.08209699999998,,,,,,,,,,,,,,,,,,,,,,,,,,,,,,,,,,,,,,,,,,,,,163.059156625,163.08209699999998,163.08209699999998,163.08209699999998,163.08209699999998,163.09210645833338,163.08209699999998,163.08209699999998,163.2307538340001,Incorrect! The correct answer is Speaker3. نادرست! پاسخ صحیح گوینده۳ است,1,0.14541204199986169,None,68,132,163.2350442920001,163.24701245899996,165.26024333400005,165.23533970900007,165.23536850000005,0.5151515151515151,False,165.23574374999998,,,,,,,,,,,,,,,,,,,,,,,,,,,,,,,,,,,,,,,,,,,120126,001,2024-07-01_16h30.59.170,5-26,2024.1.4,None,2024-07-01 16h31.03.725903 +0900,
Images/Speaker1.jpg,Images/Speaker2.jpg,Images/Speaker3.jpg,Images/Speaker4.jpg,Audio/Speaker3_En/P3-18-En.wav,Speaker3,گوینده۳,,,,,,,,,,,,,,,,0,52,52,57,,,,,,,,,,,,,165.26024333400005,,,,,,,,,,,,,,,,,,,,,,,,,,,,,,,,,,,,,,,,,,,,,165.23631279200004,165.26024333400005,165.26024333400005,165.26024333400005,165.26024333400005,165.2676567503334,165.26024333400005,165.26024333400005,165.40020883400007,Incorrect! The correct answer is Speaker3. نادرست! پاسخ صحیح گوینده۳ است,1,0.1288198330000796,None,68,133,165.404417125,165.417278292,,167.40854045900005,167.40855058400007,0.5112781954887218,False,167.40874829199993,,,,,,,,,,,,,,,,,,,,,,,,,,,,,,,,,,,,,,,,,,,120126,001,2024-07-01_16h30.59.170,5-26,2024.1.4,None,2024-07-01 16h31.03.725903 +0900,
Images/Speaker1.jpg,Images/Speaker2.jpg,Images/Speaker3.jpg,Images/Speaker4.jpg,Audio/Speaker3_En/P3-11-En.wav,Speaker3,گوینده۳,,,,,,,,,,,,,,,,0,53,53,50,,,,,,,,,,,,,167.43156087500006,,,,,,,,,,,,,,,,,,,,,,,,,,,,,,,,,,,,,,,,,,,,,167.40891154199994,167.43156087500006,167.43156087500006,167.43156087500006,167.43156087500006,167.44184175033325,167.43156087500006,167.43156087500006,167.650570667,Incorrect! The correct answer is Speaker3. نادرست! پاسخ صحیح گوینده۳ است,1,0.21318745799999306,None,68,134,167.65448425,167.66684525000005,169.67502962499998,169.65037662500004,169.65039987499995,0.5074626865671642,False,169.65071716700004,,,,,,,,,,,,,,,,,,,,,,,,,,,,,,,,,,,,,,,,,,,120126,001,2024-07-01_16h30.59.170,5-26,2024.1.4,None,2024-07-01 16h31.03.725903 +0900,
Images/Speaker1.jpg,Images/Speaker2.jpg,Images/Speaker3.jpg,Images/Speaker4.jpg,Audio/Speaker2_En/P2-10-En.wav,Speaker2,گوینده۲,,,,,,,,,,,,,,,,0,54,54,29,,,,,,,,,,,,,169.67502962499998,,,,,,,,,,,,,,,,,,,,,,,,,,,,,,,,,,,,,,,,,,,,,169.651476625,169.67502962499998,169.67502962499998,169.67502962499998,169.67502962499998,169.68292370833325,169.67502962499998,169.67502962499998,169.9753404999999,Incorrect! The correct answer is Speaker2. نادرست! پاسخ صحیح گوینده۲ است,1,0.2980974580000293,None,68,135,169.97914404199992,169.9922409589999,,171.98671420899996,171.98673858400002,0.5037037037037037,False,171.98742008399995,,,,,,,,,,,,,,,,,,,,,,,,,,,,,,,,,,,,,,,,,,,120126,001,2024-07-01_16h30.59.170,5-26,2024.1.4,None,2024-07-01 16h31.03.725903 +0900,
Images/Speaker1.jpg,Images/Speaker2.jpg,Images/Speaker3.jpg,Images/Speaker4.jpg,Audio/Speaker4_En/P4-1-En.wav,Speaker4,گوینده۴,,,,,,,,,,,,,,,,0,55,55,60,,,,,,,,,,,,,172.01432799999998,,,,,,,,,,,,,,,,,,,,,,,,,,,,,,,,,,,,,,,,,,,,,171.98831204199996,172.01432799999998,172.01432799999998,172.01432799999998,172.01432799999998,172.0198731253334,172.01432799999998,172.01432799999998,172.20942483399995,Incorrect! The correct answer is Speaker4. نادرست! پاسخ صحیح گوینده۴ است,1,0.18685358400011864,None,68,136,172.21452679200002,172.22888487499995,174.24005633399997,174.21214770899996,174.21217608400002,0.5,False,174.212651542,,,,,,,,,,,,,,,,,,,,,,,,,,,,,,,,,,,,,,,,,,,120126,001,2024-07-01_16h30.59.170,5-26,2024.1.4,None,2024-07-01 16h31.03.725903 +0900,
Images/Speaker1.jpg,Images/Speaker2.jpg,Images/Speaker3.jpg,Images/Speaker4.jpg,Audio/Speaker1_En/P1-11-En.wav,Speaker1,گوینده ۱,,,,,,,,,,,,,,,,0,56,56,10,,,,,,,,,,,,,174.24005633399997,,,,,,,,,,,,,,,,,,,,,,,,,,,,,,,,,,,,,,,,,,,,,174.21353362500008,174.24005633399997,174.24005633399997,174.24005633399997,174.24005633399997,174.24459125033337,174.24005633399997,174.24005633399997,174.335613084,Correct! صحیح است,1,0.09340599999995902,None,68,137,174.33950249999998,174.35009025,,176.341932584,176.34196754200002,0.49635036496350365,False,176.34305829200002,,,,,,,,,,,,,,,,,,,,,,,,,,,,,,,,,,,,,,,,,,,120126,001,2024-07-01_16h30.59.170,5-26,2024.1.4,None,2024-07-01 16h31.03.725903 +0900,
Images/Speaker1.jpg,Images/Speaker2.jpg,Images/Speaker3.jpg,Images/Speaker4.jpg,Audio/Speaker3_En/P3-10-En.wav,Speaker3,گوینده۳,,,,,,,,,,,,,,,,0,57,57,49,,,,,,,,,,,,,176.36994195900002,,,,,,,,,,,,,,,,,,,,,,,,,,,,,,,,,,,,,,,,,,,,,176.3441090419999,176.36994195900002,176.36994195900002,176.36994195900002,176.36994195900002,176.37510370833326,176.36994195900002,176.36994195900002,176.5253082920001,Incorrect! The correct answer is Speaker3. نادرست! پاسخ صحیح گوینده۳ است,1,0.14357554200000777,None,68,138,176.5292382089999,176.54001333399992,178.5539798750001,178.52758066699994,178.52761054200005,0.4927536231884058,False,178.52792425000007,,,,,,,,,,,,,,,,,,,,,,,,,,,,,,,,,,,,,,,,,,,120126,001,2024-07-01_16h30.59.170,5-26,2024.1.4,None,2024-07-01 16h31.03.725903 +0900,
Images/Speaker1.jpg,Images/Speaker2.jpg,Images/Speaker3.jpg,Images/Speaker4.jpg,Audio/Speaker1_En/P1-7-En.wav,Speaker1,گوینده ۱,,,,,,,,,,,,,,,,0,58,58,6,,,,,,,,,,,,,178.5539798750001,,,,,,,,,,,,,,,,,,,,,,,,,,,,,,,,,,,,,,,,,,,,,178.52883270899997,178.5539798750001,178.5539798750001,178.5539798750001,178.5539798750001,178.55999804233335,178.5539798750001,178.5539798750001,178.71219833400005,Correct! صحیح است,1,0.1479568750000908,None,68,139,178.71638099999996,178.72711704199992,,180.71691687499992,180.71692525000003,0.4892086330935252,False,180.71714158400005,,,,,,,,,,,,,,,,,,,,,,,,,,,,,,,,,,,,,,,,,,,120126,001,2024-07-01_16h30.59.170,5-26,2024.1.4,None,2024-07-01 16h31.03.725903 +0900,
Images/Speaker1.jpg,Images/Speaker2.jpg,Images/Speaker3.jpg,Images/Speaker4.jpg,Audio/Speaker1_En/P1-16-En.wav,Speaker1,گوینده ۱,,,,,,,,,,,,,,,,0,59,59,15,,,,,,,,,,,,,180.7399278339999,,,,,,,,,,,,,,,,,,,,,,,,,,,,,,,,,,,,,,,,,,,,,180.71732220900003,180.7399278339999,180.7399278339999,180.7399278339999,180.7399278339999,180.73354629166673,180.7399278339999,180.7399278339999,180.8110422090001,Correct! صحیح است,1,0.061297082999999475,None,68,140,180.814825875,180.8256632089999,182.83184475000007,182.80934345900005,182.80935124999996,0.4857142857142857,False,182.80951266700004,,,,,,,,,,,,,,,,,,,,,,,,,,,,,,,,,,,,,,,,,,,120126,001,2024-07-01_16h30.59.170,5-26,2024.1.4,None,2024-07-01 16h31.03.725903 +0900,
Images/Speaker1.jpg,Images/Speaker2.jpg,Images/Speaker3.jpg,Images/Speaker4.jpg,Audio/Speaker2_En/P2-16-En.wav,Speaker2,گوینده۲,,,,,,,,,,,,,,,,0,60,60,35,,,,,,,,,,,,,182.83184475000007,,,,,,,,,,,,,,,,,,,,,,,,,,,,,,,,,,,,,,,,,,,,,182.80970795899998,182.83184475000007,182.83184475000007,182.83184475000007,182.83184475000007,182.82573779166663,182.83184475000007,182.83184475000007,182.94705591699994,Incorrect! The correct answer is Speaker2. نادرست! پاسخ صحیح گوینده۲ است,1,0.11403991699990002,None,68,141,182.95107325000004,182.96359241699997,,184.9524349589999,184.95246199999997,0.48226950354609927,False,184.95322054200005,,,,,,,,,,,,,,,,,,,,,,,,,,,,,,,,,,,,,,,,,,,120126,001,2024-07-01_16h30.59.170,5-26,2024.1.4,None,2024-07-01 16h31.03.725903 +0900,
Images/Speaker1.jpg,Images/Speaker2.jpg,Images/Speaker3.jpg,Images/Speaker4.jpg,Audio/Speaker4_En/P4-5-En.wav,Speaker4,گوینده۴,,,,,,,,,,,,,,,,0,61,61,64,,,,,,,,,,,,,184.98001295900008,,,,,,,,,,,,,,,,,,,,,,,,,,,,,,,,,,,,,,,,,,,,,184.95386795900004,184.98001295900008,184.98001295900008,184.98001295900008,184.98001295900008,184.98555808333327,184.98001295900008,184.98001295900008,185.12530041700006,Incorrect! The correct answer is Speaker4. نادرست! پاسخ صحیح گوینده۴ است,1,0.14129495800011682,None,68,142,185.1295110000001,185.14289404200008,187.1508981249999,187.1256289590001,187.12563920899993,0.4788732394366197,False,187.12579612500008,,,,,,,,,,,,,,,,,,,,,,,,,,,,,,,,,,,,,,,,,,,120126,001,2024-07-01_16h30.59.170,5-26,2024.1.4,None,2024-07-01 16h31.03.725903 +0900,
Images/Speaker1.jpg,Images/Speaker2.jpg,Images/Speaker3.jpg,Images/Speaker4.jpg,Audio/Speaker4_En/P4-14-En.wav,Speaker4,گوینده۴,,,,,,,,,,,,,,,,0,62,62,73,,,,,,,,,,,,,187.1508981249999,,,,,,,,,,,,,,,,,,,,,,,,,,,,,,,,,,,,,,,,,,,,,187.1260004170001,187.1508981249999,187.1508981249999,187.1508981249999,187.1508981249999,187.15866404233344,187.1508981249999,187.1508981249999,187.1738902919999,Incorrect! The correct answer is Speaker4. نادرست! پاسخ صحیح گوینده۴ است,1,0.015333583000028739,None,68,143,187.17809054200006,187.18849649999993,,189.1783399589999,189.17835237500003,0.4755244755244755,False,189.17854191700008,,,,,,,,,,,,,,,,,,,,,,,,,,,,,,,,,,,,,,,,,,,120126,001,2024-07-01_16h30.59.170,5-26,2024.1.4,None,2024-07-01 16h31.03.725903 +0900,
Images/Speaker1.jpg,Images/Speaker2.jpg,Images/Speaker3.jpg,Images/Speaker4.jpg,Audio/Speaker4_En/P4-17-En.wav,Speaker4,گوینده۴,,,,,,,,,,,,,,,,0,63,63,76,,,,,,,,,,,,,189.20069979200002,,,,,,,,,,,,,,,,,,,,,,,,,,,,,,,,,,,,,,,,,,,,,189.1786952089999,189.20069979200002,189.20069979200002,189.20069979200002,189.20069979200002,189.1949652916667,189.20069979200002,189.20069979200002,189.28352500000005,Incorrect! The correct answer is Speaker4. نادرست! پاسخ صحیح گوینده۴ است,1,0.08182937500009757,None,68,144,189.28738354200004,189.29979658399998,191.30876695899997,191.28512733399998,191.28513633400007,0.4722222222222222,False,191.28530449999994,,,,,,,,,,,,,,,,,,,,,,,,,,,,,,,,,,,,,,,,,,,120126,001,2024-07-01_16h30.59.170,5-26,2024.1.4,None,2024-07-01 16h31.03.725903 +0900,
Images/Speaker1.jpg,Images/Speaker2.jpg,Images/Speaker3.jpg,Images/Speaker4.jpg,Audio/Speaker1_En/P1-13-En.wav,Speaker1,گوینده ۱,,,,,,,,,,,,,,,,0,64,64,12,,,,,,,,,,,,,191.30876695899997,,,,,,,,,,,,,,,,,,,,,,,,,,,,,,,,,,,,,,,,,,,,,191.2854910000001,191.30876695899997,191.30876695899997,191.30876695899997,191.30876695899997,191.31819237533347,191.30876695899997,191.30876695899997,191.46450745900006,Correct! صحیح است,1,0.15352641599997696,None,68,145,191.46830262499998,191.47847070900002,193.4871048340001,193.4642181669999,193.46423004200005,0.4689655172413793,False,193.46440266700006,,,,,,,,,,,,,,,,,,,,,,,,,,,,,,,,,,,,,,,,,,,120126,001,2024-07-01_16h30.59.170,5-26,2024.1.4,None,2024-07-01 16h31.03.725903 +0900,
Images/Speaker1.jpg,Images/Speaker2.jpg,Images/Speaker3.jpg,Images/Speaker4.jpg,Audio/Speaker4_En/P4-6-En.wav,Speaker4,گوینده۴,,,,,,,,,,,,,,,,0,65,65,65,,,,,,,,,,,,,193.4871048340001,,,,,,,,,,,,,,,,,,,,,,,,,,,,,,,,,,,,,,,,,,,,,193.46456591700007,193.4871048340001,193.4871048340001,193.4871048340001,193.4871048340001,193.49724179233345,193.4871048340001,193.4871048340001,193.6139874999999,Incorrect! The correct answer is Speaker4. نادرست! پاسخ صحیح گوینده۴ است,1,0.12267408300021998,None,68,146,193.61798479200002,193.630019167,195.64262608400009,195.61617820900005,195.61618675,0.4657534246575342,False,195.61634841699993,,,,,,,,,,,,,,,,,,,,,,,,,,,,,,,,,,,,,,,,,,,120126,001,2024-07-01_16h30.59.170,5-26,2024.1.4,None,2024-07-01 16h31.03.725903 +0900,
Images/Speaker1.jpg,Images/Speaker2.jpg,Images/Speaker3.jpg,Images/Speaker4.jpg,Audio/Speaker2_En/P2-4-En.wav,Speaker2,گوینده۲,,,,,,,,,,,,,,,,0,66,66,23,,,,,,,,,,,,,195.64262608400009,,,,,,,,,,,,,,,,,,,,,,,,,,,,,,,,,,,,,,,,,,,,,195.61653491700008,195.64262608400009,195.64262608400009,195.64262608400009,195.64262608400009,195.64926391733326,195.64262608400009,195.64262608400009,195.64331033400003,Incorrect! The correct answer is Speaker2. نادرست! پاسخ صحیح گوینده۲ است,1,2.144059250000055,None,68,147,195.6435987089999,195.6536450420001,197.66579187499997,197.64154029199995,197.64154829199992,0.46258503401360546,False,197.6417134589999,,,,,,,,,,,,,,,,,,,,,,,,,,,,,,,,,,,,,,,,,,,120126,001,2024-07-01_16h30.59.170,5-26,2024.1.4,None,2024-07-01 16h31.03.725903 +0900,
Images/Speaker1.jpg,Images/Speaker2.jpg,Images/Speaker3.jpg,Images/Speaker4.jpg,Audio/Speaker4_En/P4-2-En.wav,Speaker4,گوینده۴,,,,,,,,,,,,,,,,0,67,67,61,,,,,,,,,,,,,197.66579187499997,,,,,,,,,,,,,,,,,,,,,,,,,,,,,,,,,,,,,,,,,,,,,197.6418941249999,197.66579187499997,197.66579187499997,197.66579187499997,197.66579187499997,197.67465004233333,197.66579187499997,197.66579187499997,197.7198699999999,Incorrect! The correct answer is Speaker4. نادرست! پاسخ صحیح گوینده۴ است,1,0.051509708999901704,None,68,148,197.72363500000006,197.73558266700002,,199.728917917,199.7289619170001,0.4594594594594595,False,199.72978429199998,,,,,,,,,,,,,,,,,,,,,,,,,,,,,,,,,,,,,,,,,,,120126,001,2024-07-01_16h30.59.170,5-26,2024.1.4,None,2024-07-01 16h31.03.725903 +0900,
Images/Speaker1.jpg,Images/Speaker2.jpg,Images/Speaker3.jpg,Images/Speaker4.jpg,Audio/Speaker2_En/P2-3-En.wav,Speaker2,گوینده۲,,,,,,,,,,,,,,,,0,68,68,22,,,,,,,,,,,,,199.75403849999998,,,,,,,,,,,,,,,,,,,,,,,,,,,,,,,,,,,,,,,,,,,,,199.73077920900005,199.75403849999998,199.75403849999998,199.75403849999998,199.75403849999998,199.76208133333336,199.75403849999998,199.75403849999998,199.84748879199992,Incorrect! The correct answer is Speaker2. نادرست! پاسخ صحیح گوینده۲ است,1,0.09106162500006576,None,68,149,199.8514627919999,199.86398570899996,201.874123542,201.85052300000007,201.85053166700004,0.4563758389261745,False,201.8507145000001,,,,,,,,,,,,,,,,,,,,,,,,,,,,,,,,,,,,,,,,,,,120126,001,2024-07-01_16h30.59.170,5-26,2024.1.4,None,2024-07-01 16h31.03.725903 +0900,
Images/Speaker1.jpg,Images/Speaker2.jpg,Images/Speaker3.jpg,Images/Speaker4.jpg,Audio/Speaker1_En/P1-20-En.wav,Speaker1,گوینده ۱,,,,,,,,,,,,,,,,0,69,69,19,,,,,,,,,,,,,201.874123542,,,,,,,,,,,,,,,,,,,,,,,,,,,,,,,,,,,,,,,,,,,,,201.8508898749999,201.874123542,201.874123542,201.874123542,201.874123542,201.88354341733344,201.874123542,201.874123542,201.9506973340001,Correct! صحیح است,1,0.07181824999997843,None,68,150,201.954927709,201.9655452500001,,203.958576709,203.9585850840001,0.4533333333333333,False,203.95879545899993,,,,,,,,,,,,,,,,,,,,,,,,,,,,,,,,,,,,,,,,,,,120126,001,2024-07-01_16h30.59.170,5-26,2024.1.4,None,2024-07-01 16h31.03.725903 +0900,
Images/Speaker1.jpg,Images/Speaker2.jpg,Images/Speaker3.jpg,Images/Speaker4.jpg,Audio/Speaker1_En/P1-1-En.wav,Speaker1,گوینده ۱,,,,,,,,,,,,,,,,0,70,70,0,,,,,,,,,,,,,203.98245945899998,,,,,,,,,,,,,,,,,,,,,,,,,,,,,,,,,,,,,,,,,,,,,203.95895158400003,203.98245945899998,203.98245945899998,203.98245945899998,203.98245945899998,203.9918722083333,203.98245945899998,203.98245945899998,204.14728479199994,Correct! صحیح است,1,0.16153062500006854,None,68,151,204.15147649999994,204.16238829200006,206.16879799999992,206.14540983400002,206.145419167,0.4503311258278146,False,206.14557916700005,,,,,,,,,,,,,,,,,,,,,,,,,,,,,,,,,,,,,,,,,,,120126,001,2024-07-01_16h30.59.170,5-26,2024.1.4,None,2024-07-01 16h31.03.725903 +0900,
Images/Speaker1.jpg,Images/Speaker2.jpg,Images/Speaker3.jpg,Images/Speaker4.jpg,Audio/Speaker2_En/P2-20-En.wav,Speaker2,گوینده۲,,,,,,,,,,,,,,,,0,71,71,39,,,,,,,,,,,,,206.16879799999992,,,,,,,,,,,,,,,,,,,,,,,,,,,,,,,,,,,,,,,,,,,,,206.14575512500005,206.16879799999992,206.16879799999992,206.16879799999992,206.16879799999992,206.17846387533342,206.16879799999992,206.16879799999992,206.23730879200002,Incorrect! The correct answer is Speaker2. نادرست! پاسخ صحیح گوینده۲ است,1,0.05641575000004195,None,68,152,206.24122887499993,206.25389437500007,208.261389,208.237091834,208.23711537500003,0.4473684210526316,False,208.2376099999999,,,,,,,,,,,,,,,,,,,,,,,,,,,,,,,,,,,,,,,,,,,120126,001,2024-07-01_16h30.59.170,5-26,2024.1.4,None,2024-07-01 16h31.03.725903 +0900,
Images/Speaker1.jpg,Images/Speaker2.jpg,Images/Speaker3.jpg,Images/Speaker4.jpg,Audio/Speaker4_En/P4-20-En.wav,Speaker4,گوینده۴,,,,,,,,,,,,,,,,0,72,72,79,,,,,,,,,,,,,208.261389,,,,,,,,,,,,,,,,,,,,,,,,,,,,,,,,,,,,,,,,,,,,,208.238582125,208.261389,208.261389,208.261389,208.261389,208.26957608333333,208.261389,208.261389,208.4617619590001,Incorrect! The correct answer is Speaker4. نادرست! پاسخ صحیح گوینده۴ است,1,0.1868435829999271,None,68,153,208.46587449999993,208.4781310840001,,210.4666386250001,210.46665200000007,0.4444444444444444,False,210.46689554199997,,,,,,,,,,,,,,,,,,,,,,,,,,,,,,,,,,,,,,,,,,,120126,001,2024-07-01_16h30.59.170,5-26,2024.1.4,None,2024-07-01 16h31.03.725903 +0900,
Images/Speaker1.jpg,Images/Speaker2.jpg,Images/Speaker3.jpg,Images/Speaker4.jpg,Audio/Speaker2_En/P2-14-En.wav,Speaker2,گوینده۲,,,,,,,,,,,,,,,,0,73,73,33,,,,,,,,,,,,,210.490985959,,,,,,,,,,,,,,,,,,,,,,,,,,,,,,,,,,,,,,,,,,,,,210.46707904200002,210.490985959,210.490985959,210.490985959,210.490985959,210.4999181253334,210.490985959,210.490985959,210.67368591700006,Incorrect! The correct answer is Speaker2. نادرست! پاسخ صحیح گوینده۲ است,1,0.17836879199990108,None,68,154,210.67778562500007,210.6901365000001,,212.686504625,212.68654112500008,0.44155844155844154,False,212.68725562500003,,,,,,,,,,,,,,,,,,,,,,,,,,,,,,,,,,,,,,,,,,,120126,001,2024-07-01_16h30.59.170,5-26,2024.1.4,None,2024-07-01 16h31.03.725903 +0900,
Images/Speaker1.jpg,Images/Speaker2.jpg,Images/Speaker3.jpg,Images/Speaker4.jpg,Audio/Speaker1_En/P1-8-En.wav,Speaker1,گوینده ۱,,,,,,,,,,,,,,,,0,74,74,7,,,,,,,,,,,,,212.71603537500005,,,,,,,,,,,,,,,,,,,,,,,,,,,,,,,,,,,,,,,,,,,,,212.68825074999995,212.71603537500005,212.71603537500005,212.71603537500005,212.71603537500005,212.71965783333332,212.71603537500005,212.71603537500005,212.93670695900005,Correct! صحیح است,1,0.21745508300000438,None,68,155,212.94091941700003,212.952169292,,214.943038334,214.9430696249999,0.43870967741935485,False,214.94389312499993,,,,,,,,,,,,,,,,,,,,,,,,,,,,,,,,,,,,,,,,,,,120126,001,2024-07-01_16h30.59.170,5-26,2024.1.4,None,2024-07-01 16h31.03.725903 +0900,
Images/Speaker1.jpg,Images/Speaker2.jpg,Images/Speaker3.jpg,Images/Speaker4.jpg,Audio/Speaker4_En/P4-4-En.wav,Speaker4,گوینده۴,,,,,,,,,,,,,,,,0,75,75,63,,,,,,,,,,,,,214.969272542,,,,,,,,,,,,,,,,,,,,,,,,,,,,,,,,,,,,,,,,,,,,,214.9444571670001,214.969272542,214.969272542,214.969272542,214.969272542,214.9762190003333,214.969272542,214.969272542,215.17600349999998,Incorrect! The correct answer is Speaker4. نادرست! پاسخ صحیح گوینده۴ است,1,0.20057120900014525,None,68,156,215.18011687500007,215.1927410840001,217.20068775000004,217.17730475000008,217.17732991699995,0.4358974358974359,False,217.17763487499997,,,,,,,,,,,,,,,,,,,,,,,,,,,,,,,,,,,,,,,,,,,120126,001,2024-07-01_16h30.59.170,5-26,2024.1.4,None,2024-07-01 16h31.03.725903 +0900,
Images/Speaker1.jpg,Images/Speaker2.jpg,Images/Speaker3.jpg,Images/Speaker4.jpg,Audio/Speaker1_En/P1-17-En.wav,Speaker1,گوینده ۱,,,,,,,,,,,,,,,,0,76,76,16,,,,,,,,,,,,,217.20068775000004,,,,,,,,,,,,,,,,,,,,,,,,,,,,,,,,,,,,,,,,,,,,,217.1783102920001,217.20068775000004,217.20068775000004,217.20068775000004,217.20068775000004,217.20967987533328,217.20068775000004,217.20068775000004,217.38569299999995,Correct! صحیح است,1,0.1789960839998912,None,68,157,217.3896992089999,217.40066116699995,,219.3927496670001,219.3927625419999,0.43312101910828027,False,219.39293162500007,,,,,,,,,,,,,,,,,,,,,,,,,,,,,,,,,,,,,,,,,,,120126,001,2024-07-01_16h30.59.170,5-26,2024.1.4,None,2024-07-01 16h31.03.725903 +0900,
Images/Speaker1.jpg,Images/Speaker2.jpg,Images/Speaker3.jpg,Images/Speaker4.jpg,Audio/Speaker3_En/P3-3-En.wav,Speaker3,گوینده۳,,,,,,,,,,,,,,,,0,77,77,42,,,,,,,,,,,,,219.415972,,,,,,,,,,,,,,,,,,,,,,,,,,,,,,,,,,,,,,,,,,,,,219.3931185419999,219.415972,219.415972,219.415972,219.415972,219.42604141733347,219.415972,219.415972,219.65380433399991,Incorrect! The correct answer is Speaker3. نادرست! پاسخ صحیح گوینده۳ است,1,0.22684987499997078,None,68,158,219.65784941700008,219.67080224999995,,221.66007583400005,221.66008583400003,0.43037974683544306,False,221.66027870900007,,,,,,,,,,,,,,,,,,,,,,,,,,,,,,,,,,,,,,,,,,,120126,001,2024-07-01_16h30.59.170,5-26,2024.1.4,None,2024-07-01 16h31.03.725903 +0900,
Images/Speaker1.jpg,Images/Speaker2.jpg,Images/Speaker3.jpg,Images/Speaker4.jpg,Audio/Speaker3_En/P3-2-En.wav,Speaker3,گوینده۳,,,,,,,,,,,,,,,,0,78,78,41,,,,,,,,,,,,,221.68492891699998,,,,,,,,,,,,,,,,,,,,,,,,,,,,,,,,,,,,,,,,,,,,,221.66048320899995,221.68492891699998,221.68492891699998,221.68492891699998,221.68492891699998,221.69337541733336,221.68492891699998,221.68492891699998,222.67220337499998,Incorrect! The correct answer is Speaker3. نادرست! پاسخ صحیح گوینده۳ است,1,0.9823760409999522,None,68,159,222.67602791700006,222.68839237499992,224.6995851669999,224.67194629200003,224.6719768339999,0.4276729559748428,False,224.67262837499993,,,,,,,,,,,,,,,,,,,,,,,,,,,,,,,,,,,,,,,,,,,120126,001,2024-07-01_16h30.59.170,5-26,2024.1.4,None,2024-07-01 16h31.03.725903 +0900,
Images/Speaker1.jpg,Images/Speaker2.jpg,Images/Speaker3.jpg,Images/Speaker4.jpg,Audio/Speaker2_En/P2-17-En.wav,Speaker2,گوینده۲,,,,,,,,,,,,,,,,0,79,79,36,,,,,,,,,,,,,224.6995851669999,,,,,,,,,,,,,,,,,,,,,,,,,,,,,,,,,,,,,,,,,,,,,224.67358491699997,224.6995851669999,224.6995851669999,224.6995851669999,224.6995851669999,224.70421666733347,224.6995851669999,224.6995851669999,226.5929316669999,Incorrect! The correct answer is Speaker2. نادرست! پاسخ صحیح گوینده۲ است,1,1.885299625000016,None,68,160,226.59725275000005,226.610347584,,228.6041822090001,228.6041936250001,0.425,False,228.60438258399995,,,,,,,,,,,,,,,,,,,,,,,,,,,,,,,,,,,,,,,,,,,120126,001,2024-07-01_16h30.59.170,5-26,2024.1.4,None,2024-07-01 16h31.03.725903 +0900,
,,,,,,,,,,,,,,,,,,,,,,,,,,,,,,,,,,,,,,,,,,,,,,,,,,,,,,,,,,,,,,,,,,,,,,,,,,,,,,,,,,,,,,,,,,,,,,,,,,,,,,,,,,228.604431792,228.60855445900006,235.4196428749999,233.59166987499998,,,,,,,,,,,,,,,,,,,,,,,,,,,,,,,,,,,,,,,120126,001,2024-07-01_16h30.59.170,5-26,2024.1.4,None,2024-07-01 16h31.03.725903 +0900,
,,,,,,,Images/Speaker1.jpg,Images/Speaker2.jpg,Images/Speaker3.jpg,Images/Speaker4.jpg,Audio/Speaker3_Per/P3-6-Per.wav,Speaker3,گوینده۳,,,,,,,,,,,,,0,0,0,45,,,,,,,,,235.4196428749999,,,,,,,,,,,,,,,,,,,,,,,,,,,,,,,,,,,,,,,,,,,,,,,,,,,,,,,,,,,,,,,,,,,,,,,,233.61134766700002,233.62959683400004,None,No response,Images/Speaker1.jpg,Images/Speaker2.jpg,Images/Speaker3.jpg,Images/Speaker4.jpg,Audio/Speaker3_Per/P3-6-Per.wav,Speaker2,گوینده۲,,,,,,,,,,,,,,,,,,,,,,,,,,,,120126,001,2024-07-01_16h30.59.170,5-26,2024.1.4,None,2024-07-01 16h31.03.725903 +0900,
,,,,,,,Images/Speaker1.jpg,Images/Speaker2.jpg,Images/Speaker3.jpg,Images/Speaker4.jpg,Audio/Speaker2_Per/P2-7-Per.wav,Speaker2,گوینده۲,,,,,,,,,,,,,0,1,1,26,,,,,,,,,235.4196428749999,,,,,,,,,,,,,,,,,,,,,,,,,,,,,,,,,,,,,,,,,,,,,,,,,,,,,,,,,,,,,,,,,,,,,,,,233.62989512500008,233.6428014999999,None,No response,Images/Speaker1.jpg,Images/Speaker2.jpg,Images/Speaker3.jpg,Images/Speaker4.jpg,Audio/Speaker2_Per/P2-7-Per.wav,Speaker2,گوینده۲,,,,,,,,,,,,,,,,,,,,,,,,,,,,120126,001,2024-07-01_16h30.59.170,5-26,2024.1.4,None,2024-07-01 16h31.03.725903 +0900,
,,,,,,,Images/Speaker1.jpg,Images/Speaker2.jpg,Images/Speaker3.jpg,Images/Speaker4.jpg,Audio/Speaker4_Per/P4-5-Per.wav,Speaker4,گوینده۴,,,,,,,,,,,,,0,2,2,64,,,,,,,,,235.4196428749999,,,,,,,,,,,,,,,,,,,,,,,,,,,,,,,,,,,,,,,,,,,,,,,,,,,,,,,,,,,,,,,,,,,,,,,,233.6429734169999,233.65600441700008,None,No response,Images/Speaker1.jpg,Images/Speaker2.jpg,Images/Speaker3.jpg,Images/Speaker4.jpg,Audio/Speaker4_Per/P4-5-Per.wav,Speaker2,گوینده۲,,,,,,,,,,,,,,,,,,,,,,,,,,,,120126,001,2024-07-01_16h30.59.170,5-26,2024.1.4,None,2024-07-01 16h31.03.725903 +0900,
,,,,,,,Images/Speaker1.jpg,Images/Speaker2.jpg,Images/Speaker3.jpg,Images/Speaker4.jpg,Audio/Speaker3_Per/P3-11-Per.wav,Speaker3,گوینده۳,,,,,,,,,,,,,0,3,3,50,,,,,,,,,235.4196428749999,,,,,,,,,,,,,,,,,,,,,,,,,,,,,,,,,,,,,,,,,,,,,,,,,,,,,,,,,,,,,,,,,,,,,,,,233.6561899589999,233.67001912499995,None,No response,Images/Speaker1.jpg,Images/Speaker2.jpg,Images/Speaker3.jpg,Images/Speaker4.jpg,Audio/Speaker3_Per/P3-11-Per.wav,Speaker2,گوینده۲,,,,,,,,,,,,,,,,,,,,,,,,,,,,120126,001,2024-07-01_16h30.59.170,5-26,2024.1.4,None,2024-07-01 16h31.03.725903 +0900,
,,,,,,,Images/Speaker1.jpg,Images/Speaker2.jpg,Images/Speaker3.jpg,Images/Speaker4.jpg,Audio/Speaker1_Per/P1-3-Per.wav,Speaker1,گوینده ۱,,,,,,,,,,,,,0,4,4,2,,,,,,,,,235.4196428749999,,,,,,,,,,,,,,,,,,,,,,,,,,,,,,,,,,,,,,,,,,,,,,,,,,,,,,,,,,,,,,,,,,,,,,,,233.67019125000002,233.68211195899994,None,No response,Images/Speaker1.jpg,Images/Speaker2.jpg,Images/Speaker3.jpg,Images/Speaker4.jpg,Audio/Speaker1_Per/P1-3-Per.wav,Speaker2,گوینده۲,,,,,,,,,,,,,,,,,,,,,,,,,,,,120126,001,2024-07-01_16h30.59.170,5-26,2024.1.4,None,2024-07-01 16h31.03.725903 +0900,
,,,,,,,Images/Speaker1.jpg,Images/Speaker2.jpg,Images/Speaker3.jpg,Images/Speaker4.jpg,Audio/Speaker3_Per/P3-13-Per.wav,Speaker3,گوینده۳,,,,,,,,,,,,,0,5,5,52,,,,,,,,,235.4196428749999,,,,,,,,,,,,,,,,,,,,,,,,,,,,,,,,,,,,,,,,,,,,,,,,,,,,,,,,,,,,,,,,,,,,,,,,233.6822635000001,233.6942242089999,None,No response,Images/Speaker1.jpg,Images/Speaker2.jpg,Images/Speaker3.jpg,Images/Speaker4.jpg,Audio/Speaker3_Per/P3-13-Per.wav,Speaker2,گوینده۲,,,,,,,,,,,,,,,,,,,,,,,,,,,,120126,001,2024-07-01_16h30.59.170,5-26,2024.1.4,None,2024-07-01 16h31.03.725903 +0900,
,,,,,,,Images/Speaker1.jpg,Images/Speaker2.jpg,Images/Speaker3.jpg,Images/Speaker4.jpg,Audio/Speaker3_Per/P3-2-Per.wav,Speaker3,گوینده۳,,,,,,,,,,,,,0,6,6,41,,,,,,,,,235.4196428749999,,,,,,,,,,,,,,,,,,,,,,,,,,,,,,,,,,,,,,,,,,,,,,,,,,,,,,,,,,,,,,,,,,,,,,,,233.69438112500006,233.70730045899995,None,No response,Images/Speaker1.jpg,Images/Speaker2.jpg,Images/Speaker3.jpg,Images/Speaker4.jpg,Audio/Speaker3_Per/P3-2-Per.wav,Speaker2,گوینده۲,,,,,,,,,,,,,,,,,,,,,,,,,,,,120126,001,2024-07-01_16h30.59.170,5-26,2024.1.4,None,2024-07-01 16h31.03.725903 +0900,
,,,,,,,Images/Speaker1.jpg,Images/Speaker2.jpg,Images/Speaker3.jpg,Images/Speaker4.jpg,Audio/Speaker1_Per/P1-8-Per.wav,Speaker1,گوینده ۱,,,,,,,,,,,,,0,7,7,7,,,,,,,,,235.4196428749999,,,,,,,,,,,,,,,,,,,,,,,,,,,,,,,,,,,,,,,,,,,,,,,,,,,,,,,,,,,,,,,,,,,,,,,,233.707453709,233.71889570899998,None,No response,Images/Speaker1.jpg,Images/Speaker2.jpg,Images/Speaker3.jpg,Images/Speaker4.jpg,Audio/Speaker1_Per/P1-8-Per.wav,Speaker2,گوینده۲,,,,,,,,,,,,,,,,,,,,,,,,,,,,120126,001,2024-07-01_16h30.59.170,5-26,2024.1.4,None,2024-07-01 16h31.03.725903 +0900,
,,,,,,,Images/Speaker1.jpg,Images/Speaker2.jpg,Images/Speaker3.jpg,Images/Speaker4.jpg,Audio/Speaker3_Per/P3-10-Per.wav,Speaker3,گوینده۳,,,,,,,,,,,,,0,8,8,49,,,,,,,,,235.4196428749999,,,,,,,,,,,,,,,,,,,,,,,,,,,,,,,,,,,,,,,,,,,,,,,,,,,,,,,,,,,,,,,,,,,,,,,,233.71904404199995,233.73061658400002,None,No response,Images/Speaker1.jpg,Images/Speaker2.jpg,Images/Speaker3.jpg,Images/Speaker4.jpg,Audio/Speaker3_Per/P3-10-Per.wav,Speaker2,گوینده۲,,,,,,,,,,,,,,,,,,,,,,,,,,,,120126,001,2024-07-01_16h30.59.170,5-26,2024.1.4,None,2024-07-01 16h31.03.725903 +0900,
,,,,,,,Images/Speaker1.jpg,Images/Speaker2.jpg,Images/Speaker3.jpg,Images/Speaker4.jpg,Audio/Speaker2_Per/P2-15-Per.wav,Speaker2,گوینده۲,,,,,,,,,,,,,0,9,9,34,,,,,,,,,235.4196428749999,,,,,,,,,,,,,,,,,,,,,,,,,,,,,,,,,,,,,,,,,,,,,,,,,,,,,,,,,,,,,,,,,,,,,,,,233.73076474999993,233.74224337500004,None,No response,Images/Speaker1.jpg,Images/Speaker2.jpg,Images/Speaker3.jpg,Images/Speaker4.jpg,Audio/Speaker2_Per/P2-15-Per.wav,Speaker2,گوینده۲,,,,,,,,,,,,,,,,,,,,,,,,,,,,120126,001,2024-07-01_16h30.59.170,5-26,2024.1.4,None,2024-07-01 16h31.03.725903 +0900,
,,,,,,,Images/Speaker1.jpg,Images/Speaker2.jpg,Images/Speaker3.jpg,Images/Speaker4.jpg,Audio/Speaker1_Per/P1-17-Per.wav,Speaker1,گوینده ۱,,,,,,,,,,,,,0,10,10,16,,,,,,,,,235.4196428749999,,,,,,,,,,,,,,,,,,,,,,,,,,,,,,,,,,,,,,,,,,,,,,,,,,,,,,,,,,,,,,,,,,,,,,,,233.742390375,233.75312562499994,None,No response,Images/Speaker1.jpg,Images/Speaker2.jpg,Images/Speaker3.jpg,Images/Speaker4.jpg,Audio/Speaker1_Per/P1-17-Per.wav,Speaker2,گوینده۲,,,,,,,,,,,,,,,,,,,,,,,,,,,,120126,001,2024-07-01_16h30.59.170,5-26,2024.1.4,None,2024-07-01 16h31.03.725903 +0900,
,,,,,,,Images/Speaker1.jpg,Images/Speaker2.jpg,Images/Speaker3.jpg,Images/Speaker4.jpg,Audio/Speaker2_Per/P2-11-Per.wav,Speaker2,گوینده۲,,,,,,,,,,,,,0,11,11,30,,,,,,,,,235.4196428749999,,,,,,,,,,,,,,,,,,,,,,,,,,,,,,,,,,,,,,,,,,,,,,,,,,,,,,,,,,,,,,,,,,,,,,,,233.75327420899998,233.7643512919999,None,No response,Images/Speaker1.jpg,Images/Speaker2.jpg,Images/Speaker3.jpg,Images/Speaker4.jpg,Audio/Speaker2_Per/P2-11-Per.wav,Speaker2,گوینده۲,,,,,,,,,,,,,,,,,,,,,,,,,,,,120126,001,2024-07-01_16h30.59.170,5-26,2024.1.4,None,2024-07-01 16h31.03.725903 +0900,
,,,,,,,Images/Speaker1.jpg,Images/Speaker2.jpg,Images/Speaker3.jpg,Images/Speaker4.jpg,Audio/Speaker1_Per/P1-1-Per.wav,Speaker1,گوینده ۱,,,,,,,,,,,,,0,12,12,0,,,,,,,,,235.4196428749999,,,,,,,,,,,,,,,,,,,,,,,,,,,,,,,,,,,,,,,,,,,,,,,,,,,,,,,,,,,,,,,,,,,,,,,,233.76449554200008,233.77553954199993,None,No response,Images/Speaker1.jpg,Images/Speaker2.jpg,Images/Speaker3.jpg,Images/Speaker4.jpg,Audio/Speaker1_Per/P1-1-Per.wav,Speaker2,گوینده۲,,,,,,,,,,,,,,,,,,,,,,,,,,,,120126,001,2024-07-01_16h30.59.170,5-26,2024.1.4,None,2024-07-01 16h31.03.725903 +0900,
,,,,,,,Images/Speaker1.jpg,Images/Speaker2.jpg,Images/Speaker3.jpg,Images/Speaker4.jpg,Audio/Speaker3_Per/P3-4-Per.wav,Speaker3,گوینده۳,,,,,,,,,,,,,0,13,13,43,,,,,,,,,235.4196428749999,,,,,,,,,,,,,,,,,,,,,,,,,,,,,,,,,,,,,,,,,,,,,,,,,,,,,,,,,,,,,,,,,,,,,,,,233.7756831250001,233.787400209,None,No response,Images/Speaker1.jpg,Images/Speaker2.jpg,Images/Speaker3.jpg,Images/Speaker4.jpg,Audio/Speaker3_Per/P3-4-Per.wav,Speaker2,گوینده۲,,,,,,,,,,,,,,,,,,,,,,,,,,,,120126,001,2024-07-01_16h30.59.170,5-26,2024.1.4,None,2024-07-01 16h31.03.725903 +0900,
,,,,,,,Images/Speaker1.jpg,Images/Speaker2.jpg,Images/Speaker3.jpg,Images/Speaker4.jpg,Audio/Speaker4_Per/P4-12-Per.wav,Speaker4,گوینده۴,,,,,,,,,,,,,0,14,14,71,,,,,,,,,235.4196428749999,,,,,,,,,,,,,,,,,,,,,,,,,,,,,,,,,,,,,,,,,,,,,,,,,,,,,,,,,,,,,,,,,,,,,,,,233.787538584,233.798319084,None,No response,Images/Speaker1.jpg,Images/Speaker2.jpg,Images/Speaker3.jpg,Images/Speaker4.jpg,Audio/Speaker4_Per/P4-12-Per.wav,Speaker2,گوینده۲,,,,,,,,,,,,,,,,,,,,,,,,,,,,120126,001,2024-07-01_16h30.59.170,5-26,2024.1.4,None,2024-07-01 16h31.03.725903 +0900,
,,,,,,,Images/Speaker1.jpg,Images/Speaker2.jpg,Images/Speaker3.jpg,Images/Speaker4.jpg,Audio/Speaker3_Per/P3-5-Per.wav,Speaker3,گوینده۳,,,,,,,,,,,,,0,15,15,44,,,,,,,,,235.4196428749999,,,,,,,,,,,,,,,,,,,,,,,,,,,,,,,,,,,,,,,,,,,,,,,,,,,,,,,,,,,,,,,,,,,,,,,,233.79846416700002,233.809602542,None,No response,Images/Speaker1.jpg,Images/Speaker2.jpg,Images/Speaker3.jpg,Images/Speaker4.jpg,Audio/Speaker3_Per/P3-5-Per.wav,Speaker2,گوینده۲,,,,,,,,,,,,,,,,,,,,,,,,,,,,120126,001,2024-07-01_16h30.59.170,5-26,2024.1.4,None,2024-07-01 16h31.03.725903 +0900,
,,,,,,,Images/Speaker1.jpg,Images/Speaker2.jpg,Images/Speaker3.jpg,Images/Speaker4.jpg,Audio/Speaker3_Per/P3-12-Per.wav,Speaker3,گوینده۳,,,,,,,,,,,,,0,16,16,51,,,,,,,,,235.4196428749999,,,,,,,,,,,,,,,,,,,,,,,,,,,,,,,,,,,,,,,,,,,,,,,,,,,,,,,,,,,,,,,,,,,,,,,,233.809746959,233.82094141700009,None,No response,Images/Speaker1.jpg,Images/Speaker2.jpg,Images/Speaker3.jpg,Images/Speaker4.jpg,Audio/Speaker3_Per/P3-12-Per.wav,Speaker2,گوینده۲,,,,,,,,,,,,,,,,,,,,,,,,,,,,120126,001,2024-07-01_16h30.59.170,5-26,2024.1.4,None,2024-07-01 16h31.03.725903 +0900,
,,,,,,,Images/Speaker1.jpg,Images/Speaker2.jpg,Images/Speaker3.jpg,Images/Speaker4.jpg,Audio/Speaker2_Per/P2-13-Per.wav,Speaker2,گوینده۲,,,,,,,,,,,,,0,17,17,32,,,,,,,,,235.4196428749999,,,,,,,,,,,,,,,,,,,,,,,,,,,,,,,,,,,,,,,,,,,,,,,,,,,,,,,,,,,,,,,,,,,,,,,,233.8210912090001,233.83262887499995,None,No response,Images/Speaker1.jpg,Images/Speaker2.jpg,Images/Speaker3.jpg,Images/Speaker4.jpg,Audio/Speaker2_Per/P2-13-Per.wav,Speaker2,گوینده۲,,,,,,,,,,,,,,,,,,,,,,,,,,,,120126,001,2024-07-01_16h30.59.170,5-26,2024.1.4,None,2024-07-01 16h31.03.725903 +0900,
,,,,,,,Images/Speaker1.jpg,Images/Speaker2.jpg,Images/Speaker3.jpg,Images/Speaker4.jpg,Audio/Speaker4_Per/P4-7-Per.wav,Speaker4,گوینده۴,,,,,,,,,,,,,0,18,18,66,,,,,,,,,235.4196428749999,,,,,,,,,,,,,,,,,,,,,,,,,,,,,,,,,,,,,,,,,,,,,,,,,,,,,,,,,,,,,,,,,,,,,,,,233.8327697919999,233.84366812500002,None,No response,Images/Speaker1.jpg,Images/Speaker2.jpg,Images/Speaker3.jpg,Images/Speaker4.jpg,Audio/Speaker4_Per/P4-7-Per.wav,Speaker2,گوینده۲,,,,,,,,,,,,,,,,,,,,,,,,,,,,120126,001,2024-07-01_16h30.59.170,5-26,2024.1.4,None,2024-07-01 16h31.03.725903 +0900,
,,,,,,,Images/Speaker1.jpg,Images/Speaker2.jpg,Images/Speaker3.jpg,Images/Speaker4.jpg,Audio/Speaker4_Per/P4-3-Per.wav,Speaker4,گوینده۴,,,,,,,,,,,,,0,19,19,62,,,,,,,,,235.4196428749999,,,,,,,,,,,,,,,,,,,,,,,,,,,,,,,,,,,,,,,,,,,,,,,,,,,,,,,,,,,,,,,,,,,,,,,,233.84380791700005,233.85471870900005,None,No response,Images/Speaker1.jpg,Images/Speaker2.jpg,Images/Speaker3.jpg,Images/Speaker4.jpg,Audio/Speaker4_Per/P4-3-Per.wav,Speaker2,گوینده۲,,,,,,,,,,,,,,,,,,,,,,,,,,,,120126,001,2024-07-01_16h30.59.170,5-26,2024.1.4,None,2024-07-01 16h31.03.725903 +0900,
,,,,,,,Images/Speaker1.jpg,Images/Speaker2.jpg,Images/Speaker3.jpg,Images/Speaker4.jpg,Audio/Speaker3_Per/P3-20-Per.wav,Speaker3,گوینده۳,,,,,,,,,,,,,0,20,20,59,,,,,,,,,235.4196428749999,,,,,,,,,,,,,,,,,,,,,,,,,,,,,,,,,,,,,,,,,,,,,,,,,,,,,,,,,,,,,,,,,,,,,,,,233.8548632500001,233.8657465419999,None,No response,Images/Speaker1.jpg,Images/Speaker2.jpg,Images/Speaker3.jpg,Images/Speaker4.jpg,Audio/Speaker3_Per/P3-20-Per.wav,Speaker2,گوینده۲,,,,,,,,,,,,,,,,,,,,,,,,,,,,120126,001,2024-07-01_16h30.59.170,5-26,2024.1.4,None,2024-07-01 16h31.03.725903 +0900,
,,,,,,,Images/Speaker1.jpg,Images/Speaker2.jpg,Images/Speaker3.jpg,Images/Speaker4.jpg,Audio/Speaker1_Per/P1-13-Per.wav,Speaker1,گوینده ۱,,,,,,,,,,,,,0,21,21,12,,,,,,,,,235.4196428749999,,,,,,,,,,,,,,,,,,,,,,,,,,,,,,,,,,,,,,,,,,,,,,,,,,,,,,,,,,,,,,,,,,,,,,,,233.86588645899997,233.87708395899995,None,No response,Images/Speaker1.jpg,Images/Speaker2.jpg,Images/Speaker3.jpg,Images/Speaker4.jpg,Audio/Speaker1_Per/P1-13-Per.wav,Speaker2,گوینده۲,,,,,,,,,,,,,,,,,,,,,,,,,,,,120126,001,2024-07-01_16h30.59.170,5-26,2024.1.4,None,2024-07-01 16h31.03.725903 +0900,
,,,,,,,Images/Speaker1.jpg,Images/Speaker2.jpg,Images/Speaker3.jpg,Images/Speaker4.jpg,Audio/Speaker3_Per/P3-1-Per.wav,Speaker3,گوینده۳,,,,,,,,,,,,,0,22,22,40,,,,,,,,,235.4196428749999,,,,,,,,,,,,,,,,,,,,,,,,,,,,,,,,,,,,,,,,,,,,,,,,,,,,,,,,,,,,,,,,,,,,,,,,233.87722125000005,233.88867179199997,None,No response,Images/Speaker1.jpg,Images/Speaker2.jpg,Images/Speaker3.jpg,Images/Speaker4.jpg,Audio/Speaker3_Per/P3-1-Per.wav,Speaker2,گوینده۲,,,,,,,,,,,,,,,,,,,,,,,,,,,,120126,001,2024-07-01_16h30.59.170,5-26,2024.1.4,None,2024-07-01 16h31.03.725903 +0900,
,,,,,,,Images/Speaker1.jpg,Images/Speaker2.jpg,Images/Speaker3.jpg,Images/Speaker4.jpg,Audio/Speaker1_Per/P1-11-Per.wav,Speaker1,گوینده ۱,,,,,,,,,,,,,0,23,23,10,,,,,,,,,235.4196428749999,,,,,,,,,,,,,,,,,,,,,,,,,,,,,,,,,,,,,,,,,,,,,,,,,,,,,,,,,,,,,,,,,,,,,,,,233.8888118750001,233.90005733399994,None,No response,Images/Speaker1.jpg,Images/Speaker2.jpg,Images/Speaker3.jpg,Images/Speaker4.jpg,Audio/Speaker1_Per/P1-11-Per.wav,Speaker2,گوینده۲,,,,,,,,,,,,,,,,,,,,,,,,,,,,120126,001,2024-07-01_16h30.59.170,5-26,2024.1.4,None,2024-07-01 16h31.03.725903 +0900,
,,,,,,,Images/Speaker1.jpg,Images/Speaker2.jpg,Images/Speaker3.jpg,Images/Speaker4.jpg,Audio/Speaker2_Per/P2-18-Per.wav,Speaker2,گوینده۲,,,,,,,,,,,,,0,24,24,37,,,,,,,,,235.4196428749999,,,,,,,,,,,,,,,,,,,,,,,,,,,,,,,,,,,,,,,,,,,,,,,,,,,,,,,,,,,,,,,,,,,,,,,,233.900209959,233.91149266699995,None,No response,Images/Speaker1.jpg,Images/Speaker2.jpg,Images/Speaker3.jpg,Images/Speaker4.jpg,Audio/Speaker2_Per/P2-18-Per.wav,Speaker2,گوینده۲,,,,,,,,,,,,,,,,,,,,,,,,,,,,120126,001,2024-07-01_16h30.59.170,5-26,2024.1.4,None,2024-07-01 16h31.03.725903 +0900,
,,,,,,,Images/Speaker1.jpg,Images/Speaker2.jpg,Images/Speaker3.jpg,Images/Speaker4.jpg,Audio/Speaker3_Per/P3-17-Per.wav,Speaker3,گوینده۳,,,,,,,,,,,,,0,25,25,56,,,,,,,,,235.4196428749999,,,,,,,,,,,,,,,,,,,,,,,,,,,,,,,,,,,,,,,,,,,,,,,,,,,,,,,,,,,,,,,,,,,,,,,,233.9116375839999,233.9223360840001,None,No response,Images/Speaker1.jpg,Images/Speaker2.jpg,Images/Speaker3.jpg,Images/Speaker4.jpg,Audio/Speaker3_Per/P3-17-Per.wav,Speaker2,گوینده۲,,,,,,,,,,,,,,,,,,,,,,,,,,,,120126,001,2024-07-01_16h30.59.170,5-26,2024.1.4,None,2024-07-01 16h31.03.725903 +0900,
,,,,,,,Images/Speaker1.jpg,Images/Speaker2.jpg,Images/Speaker3.jpg,Images/Speaker4.jpg,Audio/Speaker4_Per/P4-8-Per.wav,Speaker4,گوینده۴,,,,,,,,,,,,,0,26,26,67,,,,,,,,,235.4196428749999,,,,,,,,,,,,,,,,,,,,,,,,,,,,,,,,,,,,,,,,,,,,,,,,,,,,,,,,,,,,,,,,,,,,,,,,233.9224751669999,233.93326350000007,None,No response,Images/Speaker1.jpg,Images/Speaker2.jpg,Images/Speaker3.jpg,Images/Speaker4.jpg,Audio/Speaker4_Per/P4-8-Per.wav,Speaker2,گوینده۲,,,,,,,,,,,,,,,,,,,,,,,,,,,,120126,001,2024-07-01_16h30.59.170,5-26,2024.1.4,None,2024-07-01 16h31.03.725903 +0900,
,,,,,,,Images/Speaker1.jpg,Images/Speaker2.jpg,Images/Speaker3.jpg,Images/Speaker4.jpg,Audio/Speaker1_Per/P1-4-Per.wav,Speaker1,گوینده ۱,,,,,,,,,,,,,0,27,27,13,,,,,,,,,235.4196428749999,,,,,,,,,,,,,,,,,,,,,,,,,,,,,,,,,,,,,,,,,,,,,,,,,,,,,,,,,,,,,,,,,,,,,,,,233.93340725000007,233.94471550000003,None,No response,Images/Speaker1.jpg,Images/Speaker2.jpg,Images/Speaker3.jpg,Images/Speaker4.jpg,Audio/Speaker1_Per/P1-4-Per.wav,Speaker2,گوینده۲,,,,,,,,,,,,,,,,,,,,,,,,,,,,120126,001,2024-07-01_16h30.59.170,5-26,2024.1.4,None,2024-07-01 16h31.03.725903 +0900,
,,,,,,,Images/Speaker1.jpg,Images/Speaker2.jpg,Images/Speaker3.jpg,Images/Speaker4.jpg,Audio/Speaker4_Per/P4-6-Per.wav,Speaker4,گوینده۴,,,,,,,,,,,,,0,28,28,65,,,,,,,,,235.4196428749999,,,,,,,,,,,,,,,,,,,,,,,,,,,,,,,,,,,,,,,,,,,,,,,,,,,,,,,,,,,,,,,,,,,,,,,,233.94486008400008,233.95604520899997,None,No response,Images/Speaker1.jpg,Images/Speaker2.jpg,Images/Speaker3.jpg,Images/Speaker4.jpg,Audio/Speaker4_Per/P4-6-Per.wav,Speaker2,گوینده۲,,,,,,,,,,,,,,,,,,,,,,,,,,,,120126,001,2024-07-01_16h30.59.170,5-26,2024.1.4,None,2024-07-01 16h31.03.725903 +0900,
,,,,,,,Images/Speaker1.jpg,Images/Speaker2.jpg,Images/Speaker3.jpg,Images/Speaker4.jpg,Audio/Speaker1_Per/P1-7-Per.wav,Speaker1,گوینده ۱,,,,,,,,,,,,,0,29,29,6,,,,,,,,,235.4196428749999,,,,,,,,,,,,,,,,,,,,,,,,,,,,,,,,,,,,,,,,,,,,,,,,,,,,,,,,,,,,,,,,,,,,,,,,233.95618949999994,233.967078334,None,No response,Images/Speaker1.jpg,Images/Speaker2.jpg,Images/Speaker3.jpg,Images/Speaker4.jpg,Audio/Speaker1_Per/P1-7-Per.wav,Speaker2,گوینده۲,,,,,,,,,,,,,,,,,,,,,,,,,,,,120126,001,2024-07-01_16h30.59.170,5-26,2024.1.4,None,2024-07-01 16h31.03.725903 +0900,
,,,,,,,Images/Speaker1.jpg,Images/Speaker2.jpg,Images/Speaker3.jpg,Images/Speaker4.jpg,Audio/Speaker3_Per/P3-16-Per.wav,Speaker3,گوینده۳,,,,,,,,,,,,,0,30,30,55,,,,,,,,,235.4196428749999,,,,,,,,,,,,,,,,,,,,,,,,,,,,,,,,,,,,,,,,,,,,,,,,,,,,,,,,,,,,,,,,,,,,,,,,233.96722191699996,233.9778006250001,None,No response,Images/Speaker1.jpg,Images/Speaker2.jpg,Images/Speaker3.jpg,Images/Speaker4.jpg,Audio/Speaker3_Per/P3-16-Per.wav,Speaker2,گوینده۲,,,,,,,,,,,,,,,,,,,,,,,,,,,,120126,001,2024-07-01_16h30.59.170,5-26,2024.1.4,None,2024-07-01 16h31.03.725903 +0900,
,,,,,,,Images/Speaker1.jpg,Images/Speaker2.jpg,Images/Speaker3.jpg,Images/Speaker4.jpg,Audio/Speaker1_Per/P1-10-Per.wav,Speaker1,گوینده ۱,,,,,,,,,,,,,0,31,31,9,,,,,,,,,235.4196428749999,,,,,,,,,,,,,,,,,,,,,,,,,,,,,,,,,,,,,,,,,,,,,,,,,,,,,,,,,,,,,,,,,,,,,,,,233.9779410420001,233.989723292,None,No response,Images/Speaker1.jpg,Images/Speaker2.jpg,Images/Speaker3.jpg,Images/Speaker4.jpg,Audio/Speaker1_Per/P1-10-Per.wav,Speaker2,گوینده۲,,,,,,,,,,,,,,,,,,,,,,,,,,,,120126,001,2024-07-01_16h30.59.170,5-26,2024.1.4,None,2024-07-01 16h31.03.725903 +0900,
,,,,,,,Images/Speaker1.jpg,Images/Speaker2.jpg,Images/Speaker3.jpg,Images/Speaker4.jpg,Audio/Speaker2_Per/P2-9-Per.wav,Speaker2,گوینده۲,,,,,,,,,,,,,0,32,32,28,,,,,,,,,235.4196428749999,,,,,,,,,,,,,,,,,,,,,,,,,,,,,,,,,,,,,,,,,,,,,,,,,,,,,,,,,,,,,,,,,,,,,,,,233.98986483399995,234.00062741700003,None,No response,Images/Speaker1.jpg,Images/Speaker2.jpg,Images/Speaker3.jpg,Images/Speaker4.jpg,Audio/Speaker2_Per/P2-9-Per.wav,Speaker2,گوینده۲,,,,,,,,,,,,,,,,,,,,,,,,,,,,120126,001,2024-07-01_16h30.59.170,5-26,2024.1.4,None,2024-07-01 16h31.03.725903 +0900,
,,,,,,,Images/Speaker1.jpg,Images/Speaker2.jpg,Images/Speaker3.jpg,Images/Speaker4.jpg,Audio/Speaker2_Per/P2-17-Per.wav,Speaker2,گوینده۲,,,,,,,,,,,,,0,33,33,36,,,,,,,,,235.4196428749999,,,,,,,,,,,,,,,,,,,,,,,,,,,,,,,,,,,,,,,,,,,,,,,,,,,,,,,,,,,,,,,,,,,,,,,,234.000774375,234.01131587500004,None,No response,Images/Speaker1.jpg,Images/Speaker2.jpg,Images/Speaker3.jpg,Images/Speaker4.jpg,Audio/Speaker2_Per/P2-17-Per.wav,Speaker2,گوینده۲,,,,,,,,,,,,,,,,,,,,,,,,,,,,120126,001,2024-07-01_16h30.59.170,5-26,2024.1.4,None,2024-07-01 16h31.03.725903 +0900,
,,,,,,,Images/Speaker1.jpg,Images/Speaker2.jpg,Images/Speaker3.jpg,Images/Speaker4.jpg,Audio/Speaker1_Per/P1-2-Per.wav,Speaker1,گوینده ۱,,,,,,,,,,,,,0,34,34,1,,,,,,,,,235.4196428749999,,,,,,,,,,,,,,,,,,,,,,,,,,,,,,,,,,,,,,,,,,,,,,,,,,,,,,,,,,,,,,,,,,,,,,,,234.01145466699995,234.0229958750001,None,No response,Images/Speaker1.jpg,Images/Speaker2.jpg,Images/Speaker3.jpg,Images/Speaker4.jpg,Audio/Speaker1_Per/P1-2-Per.wav,Speaker2,گوینده۲,,,,,,,,,,,,,,,,,,,,,,,,,,,,120126,001,2024-07-01_16h30.59.170,5-26,2024.1.4,None,2024-07-01 16h31.03.725903 +0900,
,,,,,,,Images/Speaker1.jpg,Images/Speaker2.jpg,Images/Speaker3.jpg,Images/Speaker4.jpg,Audio/Speaker1_Per/P1-9-Per.wav,Speaker1,گوینده ۱,,,,,,,,,,,,,0,35,35,8,,,,,,,,,235.4196428749999,,,,,,,,,,,,,,,,,,,,,,,,,,,,,,,,,,,,,,,,,,,,,,,,,,,,,,,,,,,,,,,,,,,,,,,,234.02314016700007,234.03468470899998,None,No response,Images/Speaker1.jpg,Images/Speaker2.jpg,Images/Speaker3.jpg,Images/Speaker4.jpg,Audio/Speaker1_Per/P1-9-Per.wav,Speaker2,گوینده۲,,,,,,,,,,,,,,,,,,,,,,,,,,,,120126,001,2024-07-01_16h30.59.170,5-26,2024.1.4,None,2024-07-01 16h31.03.725903 +0900,
,,,,,,,Images/Speaker1.jpg,Images/Speaker2.jpg,Images/Speaker3.jpg,Images/Speaker4.jpg,Audio/Speaker4_Per/P4-18-Per.wav,Speaker4,گوینده۴,,,,,,,,,,,,,0,36,36,77,,,,,,,,,235.4196428749999,,,,,,,,,,,,,,,,,,,,,,,,,,,,,,,,,,,,,,,,,,,,,,,,,,,,,,,,,,,,,,,,,,,,,,,,234.03482699999995,234.0454319999999,None,No response,Images/Speaker1.jpg,Images/Speaker2.jpg,Images/Speaker3.jpg,Images/Speaker4.jpg,Audio/Speaker4_Per/P4-18-Per.wav,Speaker2,گوینده۲,,,,,,,,,,,,,,,,,,,,,,,,,,,,120126,001,2024-07-01_16h30.59.170,5-26,2024.1.4,None,2024-07-01 16h31.03.725903 +0900,
,,,,,,,Images/Speaker1.jpg,Images/Speaker2.jpg,Images/Speaker3.jpg,Images/Speaker4.jpg,Audio/Speaker2_Per/P2-12-Per.wav,Speaker2,گوینده۲,,,,,,,,,,,,,0,37,37,31,,,,,,,,,235.4196428749999,,,,,,,,,,,,,,,,,,,,,,,,,,,,,,,,,,,,,,,,,,,,,,,,,,,,,,,,,,,,,,,,,,,,,,,,234.04557679200002,234.0568082090001,None,No response,Images/Speaker1.jpg,Images/Speaker2.jpg,Images/Speaker3.jpg,Images/Speaker4.jpg,Audio/Speaker2_Per/P2-12-Per.wav,Speaker2,گوینده۲,,,,,,,,,,,,,,,,,,,,,,,,,,,,120126,001,2024-07-01_16h30.59.170,5-26,2024.1.4,None,2024-07-01 16h31.03.725903 +0900,
,,,,,,,Images/Speaker1.jpg,Images/Speaker2.jpg,Images/Speaker3.jpg,Images/Speaker4.jpg,Audio/Speaker3_Per/P3-3-Per.wav,Speaker3,گوینده۳,,,,,,,,,,,,,0,38,38,42,,,,,,,,,235.4196428749999,,,,,,,,,,,,,,,,,,,,,,,,,,,,,,,,,,,,,,,,,,,,,,,,,,,,,,,,,,,,,,,,,,,,,,,,234.056953625,234.06779866700003,None,No response,Images/Speaker1.jpg,Images/Speaker2.jpg,Images/Speaker3.jpg,Images/Speaker4.jpg,Audio/Speaker3_Per/P3-3-Per.wav,Speaker2,گوینده۲,,,,,,,,,,,,,,,,,,,,,,,,,,,,120126,001,2024-07-01_16h30.59.170,5-26,2024.1.4,None,2024-07-01 16h31.03.725903 +0900,
,,,,,,,Images/Speaker1.jpg,Images/Speaker2.jpg,Images/Speaker3.jpg,Images/Speaker4.jpg,Audio/Speaker3_Per/P3-9-Per.wav,Speaker3,گوینده۳,,,,,,,,,,,,,0,39,39,48,,,,,,,,,235.4196428749999,,,,,,,,,,,,,,,,,,,,,,,,,,,,,,,,,,,,,,,,,,,,,,,,,,,,,,,,,,,,,,,,,,,,,,,,234.06794100000002,234.07908791699992,None,No response,Images/Speaker1.jpg,Images/Speaker2.jpg,Images/Speaker3.jpg,Images/Speaker4.jpg,Audio/Speaker3_Per/P3-9-Per.wav,Speaker2,گوینده۲,,,,,,,,,,,,,,,,,,,,,,,,,,,,120126,001,2024-07-01_16h30.59.170,5-26,2024.1.4,None,2024-07-01 16h31.03.725903 +0900,
,,,,,,,Images/Speaker1.jpg,Images/Speaker2.jpg,Images/Speaker3.jpg,Images/Speaker4.jpg,Audio/Speaker1_Per/P1-16-Per.wav,Speaker1,گوینده ۱,,,,,,,,,,,,,0,40,40,15,,,,,,,,,235.4196428749999,,,,,,,,,,,,,,,,,,,,,,,,,,,,,,,,,,,,,,,,,,,,,,,,,,,,,,,,,,,,,,,,,,,,,,,,234.07922979199998,234.09021245899999,None,No response,Images/Speaker1.jpg,Images/Speaker2.jpg,Images/Speaker3.jpg,Images/Speaker4.jpg,Audio/Speaker1_Per/P1-16-Per.wav,Speaker2,گوینده۲,,,,,,,,,,,,,,,,,,,,,,,,,,,,120126,001,2024-07-01_16h30.59.170,5-26,2024.1.4,None,2024-07-01 16h31.03.725903 +0900,
,,,,,,,Images/Speaker1.jpg,Images/Speaker2.jpg,Images/Speaker3.jpg,Images/Speaker4.jpg,Audio/Speaker2_Per/P2-19-Per.wav,Speaker2,گوینده۲,,,,,,,,,,,,,0,41,41,38,,,,,,,,,235.4196428749999,,,,,,,,,,,,,,,,,,,,,,,,,,,,,,,,,,,,,,,,,,,,,,,,,,,,,,,,,,,,,,,,,,,,,,,,234.09035604199994,234.1014849170001,None,No response,Images/Speaker1.jpg,Images/Speaker2.jpg,Images/Speaker3.jpg,Images/Speaker4.jpg,Audio/Speaker2_Per/P2-19-Per.wav,Speaker2,گوینده۲,,,,,,,,,,,,,,,,,,,,,,,,,,,,120126,001,2024-07-01_16h30.59.170,5-26,2024.1.4,None,2024-07-01 16h31.03.725903 +0900,
,,,,,,,Images/Speaker1.jpg,Images/Speaker2.jpg,Images/Speaker3.jpg,Images/Speaker4.jpg,Audio/Speaker1_Per/P1-20-Per.wav,Speaker1,گوینده ۱,,,,,,,,,,,,,0,42,42,19,,,,,,,,,235.4196428749999,,,,,,,,,,,,,,,,,,,,,,,,,,,,,,,,,,,,,,,,,,,,,,,,,,,,,,,,,,,,,,,,,,,,,,,,234.10162949999994,234.11207712500004,None,No response,Images/Speaker1.jpg,Images/Speaker2.jpg,Images/Speaker3.jpg,Images/Speaker4.jpg,Audio/Speaker1_Per/P1-20-Per.wav,Speaker2,گوینده۲,,,,,,,,,,,,,,,,,,,,,,,,,,,,120126,001,2024-07-01_16h30.59.170,5-26,2024.1.4,None,2024-07-01 16h31.03.725903 +0900,
,,,,,,,Images/Speaker1.jpg,Images/Speaker2.jpg,Images/Speaker3.jpg,Images/Speaker4.jpg,Audio/Speaker2_Per/P2-14-Per.wav,Speaker2,گوینده۲,,,,,,,,,,,,,0,43,43,33,,,,,,,,,235.4196428749999,,,,,,,,,,,,,,,,,,,,,,,,,,,,,,,,,,,,,,,,,,,,,,,,,,,,,,,,,,,,,,,,,,,,,,,,234.11221712499992,234.1236886250001,None,No response,Images/Speaker1.jpg,Images/Speaker2.jpg,Images/Speaker3.jpg,Images/Speaker4.jpg,Audio/Speaker2_Per/P2-14-Per.wav,Speaker2,گوینده۲,,,,,,,,,,,,,,,,,,,,,,,,,,,,120126,001,2024-07-01_16h30.59.170,5-26,2024.1.4,None,2024-07-01 16h31.03.725903 +0900,
,,,,,,,Images/Speaker1.jpg,Images/Speaker2.jpg,Images/Speaker3.jpg,Images/Speaker4.jpg,Audio/Speaker4_Per/P4-14-Per.wav,Speaker4,گوینده۴,,,,,,,,,,,,,0,44,44,73,,,,,,,,,235.4196428749999,,,,,,,,,,,,,,,,,,,,,,,,,,,,,,,,,,,,,,,,,,,,,,,,,,,,,,,,,,,,,,,,,,,,,,,,234.12382995899998,234.13592545899996,None,No response,Images/Speaker1.jpg,Images/Speaker2.jpg,Images/Speaker3.jpg,Images/Speaker4.jpg,Audio/Speaker4_Per/P4-14-Per.wav,Speaker2,گوینده۲,,,,,,,,,,,,,,,,,,,,,,,,,,,,120126,001,2024-07-01_16h30.59.170,5-26,2024.1.4,None,2024-07-01 16h31.03.725903 +0900,
,,,,,,,Images/Speaker1.jpg,Images/Speaker2.jpg,Images/Speaker3.jpg,Images/Speaker4.jpg,Audio/Speaker4_Per/P4-15-Per.wav,Speaker4,گوینده۴,,,,,,,,,,,,,0,45,45,74,,,,,,,,,235.4196428749999,,,,,,,,,,,,,,,,,,,,,,,,,,,,,,,,,,,,,,,,,,,,,,,,,,,,,,,,,,,,,,,,,,,,,,,,234.13606720899998,234.14733787499995,None,No response,Images/Speaker1.jpg,Images/Speaker2.jpg,Images/Speaker3.jpg,Images/Speaker4.jpg,Audio/Speaker4_Per/P4-15-Per.wav,Speaker2,گوینده۲,,,,,,,,,,,,,,,,,,,,,,,,,,,,120126,001,2024-07-01_16h30.59.170,5-26,2024.1.4,None,2024-07-01 16h31.03.725903 +0900,
,,,,,,,Images/Speaker1.jpg,Images/Speaker2.jpg,Images/Speaker3.jpg,Images/Speaker4.jpg,Audio/Speaker2_Per/P2-6-Per.wav,Speaker2,گوینده۲,,,,,,,,,,,,,0,46,46,25,,,,,,,,,235.4196428749999,,,,,,,,,,,,,,,,,,,,,,,,,,,,,,,,,,,,,,,,,,,,,,,,,,,,,,,,,,,,,,,,,,,,,,,,234.1474828339999,234.15849545900005,None,No response,Images/Speaker1.jpg,Images/Speaker2.jpg,Images/Speaker3.jpg,Images/Speaker4.jpg,Audio/Speaker2_Per/P2-6-Per.wav,Speaker2,گوینده۲,,,,,,,,,,,,,,,,,,,,,,,,,,,,120126,001,2024-07-01_16h30.59.170,5-26,2024.1.4,None,2024-07-01 16h31.03.725903 +0900,
,,,,,,,Images/Speaker1.jpg,Images/Speaker2.jpg,Images/Speaker3.jpg,Images/Speaker4.jpg,Audio/Speaker4_Per/P4-9-Per.wav,Speaker4,گوینده۴,,,,,,,,,,,,,0,47,47,68,,,,,,,,,235.4196428749999,,,,,,,,,,,,,,,,,,,,,,,,,,,,,,,,,,,,,,,,,,,,,,,,,,,,,,,,,,,,,,,,,,,,,,,,234.15863783400005,234.16958616700003,None,No response,Images/Speaker1.jpg,Images/Speaker2.jpg,Images/Speaker3.jpg,Images/Speaker4.jpg,Audio/Speaker4_Per/P4-9-Per.wav,Speaker2,گوینده۲,,,,,,,,,,,,,,,,,,,,,,,,,,,,120126,001,2024-07-01_16h30.59.170,5-26,2024.1.4,None,2024-07-01 16h31.03.725903 +0900,
,,,,,,,Images/Speaker1.jpg,Images/Speaker2.jpg,Images/Speaker3.jpg,Images/Speaker4.jpg,Audio/Speaker2_Per/P2-20-Per.wav,Speaker2,گوینده۲,,,,,,,,,,,,,0,48,48,39,,,,,,,,,235.4196428749999,,,,,,,,,,,,,,,,,,,,,,,,,,,,,,,,,,,,,,,,,,,,,,,,,,,,,,,,,,,,,,,,,,,,,,,,234.169735834,234.18029625000008,None,No response,Images/Speaker1.jpg,Images/Speaker2.jpg,Images/Speaker3.jpg,Images/Speaker4.jpg,Audio/Speaker2_Per/P2-20-Per.wav,Speaker2,گوینده۲,,,,,,,,,,,,,,,,,,,,,,,,,,,,120126,001,2024-07-01_16h30.59.170,5-26,2024.1.4,None,2024-07-01 16h31.03.725903 +0900,
,,,,,,,Images/Speaker1.jpg,Images/Speaker2.jpg,Images/Speaker3.jpg,Images/Speaker4.jpg,Audio/Speaker2_Per/P2-5-Per.wav,Speaker2,گوینده۲,,,,,,,,,,,,,0,49,49,24,,,,,,,,,235.4196428749999,,,,,,,,,,,,,,,,,,,,,,,,,,,,,,,,,,,,,,,,,,,,,,,,,,,,,,,,,,,,,,,,,,,,,,,,234.18043079199992,234.191137625,None,No response,Images/Speaker1.jpg,Images/Speaker2.jpg,Images/Speaker3.jpg,Images/Speaker4.jpg,Audio/Speaker2_Per/P2-5-Per.wav,Speaker2,گوینده۲,,,,,,,,,,,,,,,,,,,,,,,,,,,,120126,001,2024-07-01_16h30.59.170,5-26,2024.1.4,None,2024-07-01 16h31.03.725903 +0900,
,,,,,,,Images/Speaker1.jpg,Images/Speaker2.jpg,Images/Speaker3.jpg,Images/Speaker4.jpg,Audio/Speaker1_Per/P1-4-Per.wav,Speaker1,گوینده ۱,,,,,,,,,,,,,0,50,50,3,,,,,,,,,235.4196428749999,,,,,,,,,,,,,,,,,,,,,,,,,,,,,,,,,,,,,,,,,,,,,,,,,,,,,,,,,,,,,,,,,,,,,,,,234.19127608400004,234.2017122499999,None,No response,Images/Speaker1.jpg,Images/Speaker2.jpg,Images/Speaker3.jpg,Images/Speaker4.jpg,Audio/Speaker1_Per/P1-4-Per.wav,Speaker2,گوینده۲,,,,,,,,,,,,,,,,,,,,,,,,,,,,120126,001,2024-07-01_16h30.59.170,5-26,2024.1.4,None,2024-07-01 16h31.03.725903 +0900,
,,,,,,,Images/Speaker1.jpg,Images/Speaker2.jpg,Images/Speaker3.jpg,Images/Speaker4.jpg,Audio/Speaker4_Per/P4-19-Per.wav,Speaker4,گوینده۴,,,,,,,,,,,,,0,51,51,78,,,,,,,,,235.4196428749999,,,,,,,,,,,,,,,,,,,,,,,,,,,,,,,,,,,,,,,,,,,,,,,,,,,,,,,,,,,,,,,,,,,,,,,,234.20184637500006,234.213125084,None,No response,Images/Speaker1.jpg,Images/Speaker2.jpg,Images/Speaker3.jpg,Images/Speaker4.jpg,Audio/Speaker4_Per/P4-19-Per.wav,Speaker2,گوینده۲,,,,,,,,,,,,,,,,,,,,,,,,,,,,120126,001,2024-07-01_16h30.59.170,5-26,2024.1.4,None,2024-07-01 16h31.03.725903 +0900,
,,,,,,,Images/Speaker1.jpg,Images/Speaker2.jpg,Images/Speaker3.jpg,Images/Speaker4.jpg,Audio/Speaker3_Per/P3-8-Per.wav,Speaker3,گوینده۳,,,,,,,,,,,,,0,52,52,47,,,,,,,,,235.4196428749999,,,,,,,,,,,,,,,,,,,,,,,,,,,,,,,,,,,,,,,,,,,,,,,,,,,,,,,,,,,,,,,,,,,,,,,,234.213264042,234.22480204199996,None,No response,Images/Speaker1.jpg,Images/Speaker2.jpg,Images/Speaker3.jpg,Images/Speaker4.jpg,Audio/Speaker3_Per/P3-8-Per.wav,Speaker2,گوینده۲,,,,,,,,,,,,,,,,,,,,,,,,,,,,120126,001,2024-07-01_16h30.59.170,5-26,2024.1.4,None,2024-07-01 16h31.03.725903 +0900,
,,,,,,,Images/Speaker1.jpg,Images/Speaker2.jpg,Images/Speaker3.jpg,Images/Speaker4.jpg,Audio/Speaker2_Per/P2-4-Per.wav,Speaker2,گوینده۲,,,,,,,,,,,,,0,53,53,23,,,,,,,,,235.4196428749999,,,,,,,,,,,,,,,,,,,,,,,,,,,,,,,,,,,,,,,,,,,,,,,,,,,,,,,,,,,,,,,,,,,,,,,,234.224945167,234.235683375,None,No response,Images/Speaker1.jpg,Images/Speaker2.jpg,Images/Speaker3.jpg,Images/Speaker4.jpg,Audio/Speaker2_Per/P2-4-Per.wav,Speaker2,گوینده۲,,,,,,,,,,,,,,,,,,,,,,,,,,,,120126,001,2024-07-01_16h30.59.170,5-26,2024.1.4,None,2024-07-01 16h31.03.725903 +0900,
,,,,,,,Images/Speaker1.jpg,Images/Speaker2.jpg,Images/Speaker3.jpg,Images/Speaker4.jpg,Audio/Speaker3_Per/P3-18-Per.wav,Speaker3,گوینده۳,,,,,,,,,,,,,0,54,54,57,,,,,,,,,235.4196428749999,,,,,,,,,,,,,,,,,,,,,,,,,,,,,,,,,,,,,,,,,,,,,,,,,,,,,,,,,,,,,,,,,,,,,,,,234.23582525000006,234.24647508399994,None,No response,Images/Speaker1.jpg,Images/Speaker2.jpg,Images/Speaker3.jpg,Images/Speaker4.jpg,Audio/Speaker3_Per/P3-18-Per.wav,Speaker2,گوینده۲,,,,,,,,,,,,,,,,,,,,,,,,,,,,120126,001,2024-07-01_16h30.59.170,5-26,2024.1.4,None,2024-07-01 16h31.03.725903 +0900,
,,,,,,,Images/Speaker1.jpg,Images/Speaker2.jpg,Images/Speaker3.jpg,Images/Speaker4.jpg,Audio/Speaker4_Per/P4-20-Per.wav,Speaker4,گوینده۴,,,,,,,,,,,,,0,55,55,79,,,,,,,,,235.4196428749999,,,,,,,,,,,,,,,,,,,,,,,,,,,,,,,,,,,,,,,,,,,,,,,,,,,,,,,,,,,,,,,,,,,,,,,,234.24661395900011,234.257277209,None,No response,Images/Speaker1.jpg,Images/Speaker2.jpg,Images/Speaker3.jpg,Images/Speaker4.jpg,Audio/Speaker4_Per/P4-20-Per.wav,Speaker2,گوینده۲,,,,,,,,,,,,,,,,,,,,,,,,,,,,120126,001,2024-07-01_16h30.59.170,5-26,2024.1.4,None,2024-07-01 16h31.03.725903 +0900,
,,,,,,,Images/Speaker1.jpg,Images/Speaker2.jpg,Images/Speaker3.jpg,Images/Speaker4.jpg,Audio/Speaker2_Per/P2-10-Per.wav,Speaker2,گوینده۲,,,,,,,,,,,,,0,56,56,29,,,,,,,,,235.4196428749999,,,,,,,,,,,,,,,,,,,,,,,,,,,,,,,,,,,,,,,,,,,,,,,,,,,,,,,,,,,,,,,,,,,,,,,,234.2574165420001,234.2685772499999,None,No response,Images/Speaker1.jpg,Images/Speaker2.jpg,Images/Speaker3.jpg,Images/Speaker4.jpg,Audio/Speaker2_Per/P2-10-Per.wav,Speaker2,گوینده۲,,,,,,,,,,,,,,,,,,,,,,,,,,,,120126,001,2024-07-01_16h30.59.170,5-26,2024.1.4,None,2024-07-01 16h31.03.725903 +0900,
,,,,,,,Images/Speaker1.jpg,Images/Speaker2.jpg,Images/Speaker3.jpg,Images/Speaker4.jpg,Audio/Speaker3_Per/P3-19-Per.wav,Speaker3,گوینده۳,,,,,,,,,,,,,0,57,57,58,,,,,,,,,235.4196428749999,,,,,,,,,,,,,,,,,,,,,,,,,,,,,,,,,,,,,,,,,,,,,,,,,,,,,,,,,,,,,,,,,,,,,,,,234.2687189589999,234.2797169170001,None,No response,Images/Speaker1.jpg,Images/Speaker2.jpg,Images/Speaker3.jpg,Images/Speaker4.jpg,Audio/Speaker3_Per/P3-19-Per.wav,Speaker2,گوینده۲,,,,,,,,,,,,,,,,,,,,,,,,,,,,120126,001,2024-07-01_16h30.59.170,5-26,2024.1.4,None,2024-07-01 16h31.03.725903 +0900,
,,,,,,,Images/Speaker1.jpg,Images/Speaker2.jpg,Images/Speaker3.jpg,Images/Speaker4.jpg,Audio/Speaker2_Per/P2-2-Per.wav,Speaker2,گوینده۲,,,,,,,,,,,,,0,58,58,21,,,,,,,,,235.4196428749999,,,,,,,,,,,,,,,,,,,,,,,,,,,,,,,,,,,,,,,,,,,,,,,,,,,,,,,,,,,,,,,,,,,,,,,,234.2798620000001,234.29132045899996,None,No response,Images/Speaker1.jpg,Images/Speaker2.jpg,Images/Speaker3.jpg,Images/Speaker4.jpg,Audio/Speaker2_Per/P2-2-Per.wav,Speaker2,گوینده۲,,,,,,,,,,,,,,,,,,,,,,,,,,,,120126,001,2024-07-01_16h30.59.170,5-26,2024.1.4,None,2024-07-01 16h31.03.725903 +0900,
,,,,,,,Images/Speaker1.jpg,Images/Speaker2.jpg,Images/Speaker3.jpg,Images/Speaker4.jpg,Audio/Speaker4_Per/P4-17-Per.wav,Speaker4,گوینده۴,,,,,,,,,,,,,0,59,59,76,,,,,,,,,235.4196428749999,,,,,,,,,,,,,,,,,,,,,,,,,,,,,,,,,,,,,,,,,,,,,,,,,,,,,,,,,,,,,,,,,,,,,,,,234.29147216699994,234.30203541700007,None,No response,Images/Speaker1.jpg,Images/Speaker2.jpg,Images/Speaker3.jpg,Images/Speaker4.jpg,Audio/Speaker4_Per/P4-17-Per.wav,Speaker2,گوینده۲,,,,,,,,,,,,,,,,,,,,,,,,,,,,120126,001,2024-07-01_16h30.59.170,5-26,2024.1.4,None,2024-07-01 16h31.03.725903 +0900,
,,,,,,,Images/Speaker1.jpg,Images/Speaker2.jpg,Images/Speaker3.jpg,Images/Speaker4.jpg,Audio/Speaker1_Per/P1-5-Per.wav,Speaker1,گوینده ۱,,,,,,,,,,,,,0,60,60,4,,,,,,,,,235.4196428749999,,,,,,,,,,,,,,,,,,,,,,,,,,,,,,,,,,,,,,,,,,,,,,,,,,,,,,,,,,,,,,,,,,,,,,,,234.30217283399998,234.31311270900005,None,No response,Images/Speaker1.jpg,Images/Speaker2.jpg,Images/Speaker3.jpg,Images/Speaker4.jpg,Audio/Speaker1_Per/P1-5-Per.wav,Speaker2,گوینده۲,,,,,,,,,,,,,,,,,,,,,,,,,,,,120126,001,2024-07-01_16h30.59.170,5-26,2024.1.4,None,2024-07-01 16h31.03.725903 +0900,
,,,,,,,Images/Speaker1.jpg,Images/Speaker2.jpg,Images/Speaker3.jpg,Images/Speaker4.jpg,Audio/Speaker4_Per/P4-16-Per.wav,Speaker4,گوینده۴,,,,,,,,,,,,,0,61,61,75,,,,,,,,,235.4196428749999,,,,,,,,,,,,,,,,,,,,,,,,,,,,,,,,,,,,,,,,,,,,,,,,,,,,,,,,,,,,,,,,,,,,,,,,234.31325058400012,234.3242245419999,None,No response,Images/Speaker1.jpg,Images/Speaker2.jpg,Images/Speaker3.jpg,Images/Speaker4.jpg,Audio/Speaker4_Per/P4-16-Per.wav,Speaker2,گوینده۲,,,,,,,,,,,,,,,,,,,,,,,,,,,,120126,001,2024-07-01_16h30.59.170,5-26,2024.1.4,None,2024-07-01 16h31.03.725903 +0900,
,,,,,,,Images/Speaker1.jpg,Images/Speaker2.jpg,Images/Speaker3.jpg,Images/Speaker4.jpg,Audio/Speaker4_Per/P4-13-Per.wav,Speaker4,گوینده۴,,,,,,,,,,,,,0,62,62,72,,,,,,,,,235.4196428749999,,,,,,,,,,,,,,,,,,,,,,,,,,,,,,,,,,,,,,,,,,,,,,,,,,,,,,,,,,,,,,,,,,,,,,,,234.3243621250001,234.3355797920001,None,No response,Images/Speaker1.jpg,Images/Speaker2.jpg,Images/Speaker3.jpg,Images/Speaker4.jpg,Audio/Speaker4_Per/P4-13-Per.wav,Speaker2,گوینده۲,,,,,,,,,,,,,,,,,,,,,,,,,,,,120126,001,2024-07-01_16h30.59.170,5-26,2024.1.4,None,2024-07-01 16h31.03.725903 +0900,
,,,,,,,Images/Speaker1.jpg,Images/Speaker2.jpg,Images/Speaker3.jpg,Images/Speaker4.jpg,Audio/Speaker4_Per/P4-4-Per.wav,Speaker4,گوینده۴,,,,,,,,,,,,,0,63,63,63,,,,,,,,,235.4196428749999,,,,,,,,,,,,,,,,,,,,,,,,,,,,,,,,,,,,,,,,,,,,,,,,,,,,,,,,,,,,,,,,,,,,,,,,234.33571604200006,234.34706737500005,None,No response,Images/Speaker1.jpg,Images/Speaker2.jpg,Images/Speaker3.jpg,Images/Speaker4.jpg,Audio/Speaker4_Per/P4-4-Per.wav,Speaker2,گوینده۲,,,,,,,,,,,,,,,,,,,,,,,,,,,,120126,001,2024-07-01_16h30.59.170,5-26,2024.1.4,None,2024-07-01 16h31.03.725903 +0900,
