SpeakerImage1,SpeakerImage2,SpeakerImage3,SpeakerImage4,TrainingSound,EnglishCorrectAnswer,PersianCorrectAnswer,TrainingLoopGroup1.thisRepN,TrainingLoopGroup1.thisTrialN,TrainingLoopGroup1.thisN,TrainingLoopGroup1.thisIndex,TrainingLoopGroup2.thisRepN,TrainingLoopGroup2.thisTrialN,TrainingLoopGroup2.thisN,TrainingLoopGroup2.thisIndex,Repeat_TrainingLoopGroup3.thisRepN,Repeat_TrainingLoopGroup3.thisTrialN,Repeat_TrainingLoopGroup3.thisN,Repeat_TrainingLoopGroup3.thisIndex,TrainingLoopGroup3.thisRepN,TrainingLoopGroup3.thisTrialN,TrainingLoopGroup3.thisN,TrainingLoopGroup3.thisIndex,thisRow.t,notes,trial.started,trial.stopped,GroupSelection.started,GroupInstructions.started,key_resp.started,GroupSelection.stopped,key_resp.keys,key_resp.rt,key_resp.duration,Introduction.started,text_2.started,image.started,sound_7.started,text_4.started,text_2.stopped,sound_8.started,image.stopped,text_4.stopped,image_7.started,sound_9.started,text_5.started,sound_10.started,image_7.stopped,text_5.stopped,image_8.started,sound_11.started,text_6.started,sound_12.started,image_8.stopped,text_6.stopped,image_9.started,sound_13.started,text_7.started,sound_14.started,image_9.stopped,text_7.stopped,Introduction.stopped,Instructions.started,InstructionText.started,InstructionText.stopped,Instructions.stopped,InitializeExperiment.started,InitializeExperiment.stopped,TrainingGroup3.started,SpeakerPicture3.started,image_15.started,image_16.started,image_17.started,Sound3.started,Instruction3.started,Response3.started,TrainingGroup3.stopped,feedbackText,correct_responses_group3,total_trials_group3,Response3.keys,Response3.rt,Response3.duration,FeedbackRoutine3.started,FeedbackText3.started,FeedbackRoutine3.stopped,FeedbackText3.stopped,CheckAccuracy3.started,CheckAccuracy3.stopped,participant,session,date,expName,psychopyVersion,frameRate,expStart,
,,,,,,,,,,,,,,,,,,,,,,,,,0.00904149999951187,0.009343208999780472,,,,,,,,,,,,,,,,,,,,,,,,,,,,,,,,,,,,,,,,,,,,,,,,,,,,,,,,,,,,,,,132303,001,2024-07-01_19h01.45.474,5-26,2024.1.4,None,2024-07-01 19h01.50.427866 +0900,
,,,,,,,,,,,,,,,,,,,,,,,,,,,0.009356583999760915,0.013978083999973023,0.013978083999973023,0.2929151249991264,3,0.24309245900076348,None,,,,,,,,,,,,,,,,,,,,,,,,,,,,,,,,,,,,,,,,,,,,,,,,,,,,,,,,132303,001,2024-07-01_19h01.45.474,5-26,2024.1.4,None,2024-07-01 19h01.50.427866 +0900,
,,,,,,,,,,,,,,,,,,,,,,,,,,,,,,,,,,0.29294279199893936,0.341635333999875,5.291203583999959,5.297971166665108,5.291203583999959,5.3293849999990925,10.296800625665371,15.291745791999347,15.291745791999347,15.291745791999347,15.300121583666867,15.291745791999347,20.294317041665877,25.291944124999645,25.291944124999645,25.291944124999645,25.300917041666494,25.291944124999645,30.300450791666904,35.29057833399929,35.29057833399929,35.29057833399929,35.29518120866511,35.29057833399929,40.29816425066589,45.28886958399926,45.28886958399926,45.28333287499845,,,,,,,,,,,,,,,,,,,,,,,,,,,,132303,001,2024-07-01_19h01.45.474,5-26,2024.1.4,None,2024-07-01 19h01.50.427866 +0900,
,,,,,,,,,,,,,,,,,,,,,,,,,,,,,,,,,,,,,,,,,,,,,,,,,,,,,,,,,,,,,,45.283376874998794,45.28886958399926,46.38046229199972,46.28363216700018,,,,,,,,,,,,,,,,,,,,,,,,132303,001,2024-07-01_19h01.45.474,5-26,2024.1.4,None,2024-07-01 19h01.50.427866 +0900,
,,,,,,,,,,,,,,,,,,,,,,,,,,,,,,,,,,,,,,,,,,,,,,,,,,,,,,,,,,,,,,,,,,46.283643791999566,46.2837697089999,,,,,,,,,,,,,,,,,,,,,,132303,001,2024-07-01_19h01.45.474,5-26,2024.1.4,None,2024-07-01 19h01.50.427866 +0900,
Images/Speaker1.jpg,Images/Speaker2.jpg,Images/Speaker3.jpg,Images/Speaker4.jpg,Audio/Speaker1_En/P1-13-En.wav,Speaker1,گوینده ۱,,,,,,,,,0,0,0,5,0,0,0,12,46.38046229199972,,,,,,,,,,,,,,,,,,,,,,,,,,,,,,,,,,,,,,,,,,,,,46.354955416998564,46.38046229199972,46.38046229199972,46.38046229199972,46.38046229199972,46.38338933399937,46.38046229199972,46.38046229199972,47.239281041998765,Correct! صحیح است,0,2,1,0.8545227909999085,None,47.24338641699978,47.255867124998986,49.24804674999905,,,,132303,001,2024-07-01_19h01.45.474,5-26,2024.1.4,None,2024-07-01 19h01.50.427866 +0900,
Images/Speaker1.jpg,Images/Speaker2.jpg,Images/Speaker3.jpg,Images/Speaker4.jpg,Audio/Speaker1_En/P1-4-En.wav,Speaker1,گوینده ۱,,,,,,,,,0,0,0,5,0,1,1,13,49.27270216699981,,,,,,,,,,,,,,,,,,,,,,,,,,,,,,,,,,,,,,,,,,,,,49.24859354199907,49.27270216699981,49.27270216699981,49.27270216699981,49.27270216699981,49.28124900033302,49.27270216699981,49.27270216699981,50.373332249999294,Correct! صحیح است,0,4,1,1.0882832080005755,None,50.37730283400015,50.38615883399871,52.3736412090002,52.39613658399867,,,132303,001,2024-07-01_19h01.45.474,5-26,2024.1.4,None,2024-07-01 19h01.50.427866 +0900,
Images/Speaker1.jpg,Images/Speaker2.jpg,Images/Speaker3.jpg,Images/Speaker4.jpg,Audio/Speaker2_En/P2-2-En.wav,Speaker2,گوینده۲,,,,,,,,,0,0,0,5,0,2,2,21,52.39613658399867,,,,,,,,,,,,,,,,,,,,,,,,,,,,,,,,,,,,,,,,,,,,,52.37379329199939,52.39613658399867,52.39613658399867,52.39613658399867,52.39613658399867,52.390094875665696,52.39613658399867,52.39613658399867,52.43750504199852,Incorrect! The correct answer is Speaker2. نادرست! پاسخ صحیح گوینده۲ است,0,6,1,0.03912862499964831,None,52.441304791998846,52.453973874999065,54.437512583999705,54.46074024999871,,,132303,001,2024-07-01_19h01.45.474,5-26,2024.1.4,None,2024-07-01 19h01.50.427866 +0900,
Images/Speaker1.jpg,Images/Speaker2.jpg,Images/Speaker3.jpg,Images/Speaker4.jpg,Audio/Speaker3_En/P3-14-En.wav,Speaker3,گوینده۳,,,,,,,,,0,0,0,5,0,3,3,53,54.46074024999871,,,,,,,,,,,,,,,,,,,,,,,,,,,,,,,,,,,,,,,,,,,,,54.43769954199888,54.46074024999871,54.46074024999871,54.46074024999871,54.46074024999871,54.47061579233244,54.46074024999871,54.46074024999871,54.51540449999993,Incorrect! The correct answer is Speaker3. نادرست! پاسخ صحیح گوینده۳ است,0,8,1,0.04804462500032969,None,54.51912862499921,54.53131083399967,56.51675591699859,56.54081649999898,,,132303,001,2024-07-01_19h01.45.474,5-26,2024.1.4,None,2024-07-01 19h01.50.427866 +0900,
Images/Speaker1.jpg,Images/Speaker2.jpg,Images/Speaker3.jpg,Images/Speaker4.jpg,Audio/Speaker2_En/P2-18-En.wav,Speaker2,گوینده۲,,,,,,,,,0,0,0,5,0,4,4,37,56.54081649999898,,,,,,,,,,,,,,,,,,,,,,,,,,,,,,,,,,,,,,,,,,,,,56.5172782919999,56.54081649999898,56.54081649999898,56.54081649999898,56.54081649999898,56.54914537533344,56.54081649999898,56.54081649999898,56.541356708999956,Incorrect! The correct answer is Speaker2. نادرست! پاسخ صحیح گوینده۲ است,0,10,1,2.0270570000011503,None,56.54160724999929,56.551643166998474,58.544169583999974,,,,132303,001,2024-07-01_19h01.45.474,5-26,2024.1.4,None,2024-07-01 19h01.50.427866 +0900,
Images/Speaker1.jpg,Images/Speaker2.jpg,Images/Speaker3.jpg,Images/Speaker4.jpg,Audio/Speaker2_En/P2-3-En.wav,Speaker2,گوینده۲,,,,,,,,,0,0,0,5,0,5,5,22,58.56770095899992,,,,,,,,,,,,,,,,,,,,,,,,,,,,,,,,,,,,,,,,,,,,,58.5447514589996,58.56770095899992,58.56770095899992,58.56770095899992,58.56770095899992,58.57733229233284,58.56770095899992,58.56770095899992,58.56826212499982,Incorrect! The correct answer is Speaker2. نادرست! پاسخ صحیح گوینده۲ است,0,12,1,1.9272692909999023,None,58.56849004200012,58.57807437500014,60.566718874999424,60.58744966699851,,,132303,001,2024-07-01_19h01.45.474,5-26,2024.1.4,None,2024-07-01 19h01.50.427866 +0900,
Images/Speaker1.jpg,Images/Speaker2.jpg,Images/Speaker3.jpg,Images/Speaker4.jpg,Audio/Speaker1_En/P1-7-En.wav,Speaker1,گوینده ۱,,,,,,,,,0,0,0,5,0,6,6,6,60.58744966699851,,,,,,,,,,,,,,,,,,,,,,,,,,,,,,,,,,,,,,,,,,,,,60.56689537499915,60.58744966699851,60.58744966699851,60.58744966699851,60.58744966699851,60.58317729166653,60.58744966699851,60.58744966699851,60.58799254199948,Correct! صحیح است,0,14,1,1.9218747909999365,None,60.59193408399915,60.599965333998625,62.58642233399951,62.60745495899937,,,132303,001,2024-07-01_19h01.45.474,5-26,2024.1.4,None,2024-07-01 19h01.50.427866 +0900,
Images/Speaker1.jpg,Images/Speaker2.jpg,Images/Speaker3.jpg,Images/Speaker4.jpg,Audio/Speaker2_En/P2-17-En.wav,Speaker2,گوینده۲,,,,,,,,,0,0,0,5,0,7,7,36,62.60745495899937,,,,,,,,,,,,,,,,,,,,,,,,,,,,,,,,,,,,,,,,,,,,,62.58659033399999,62.60745495899937,62.60745495899937,62.60745495899937,62.60745495899937,62.60282875066538,62.60745495899937,62.60745495899937,62.61380741699941,Incorrect! The correct answer is Speaker2. نادرست! پاسخ صحیح گوینده۲ است,0,16,1,0.005339208000805229,None,62.61788558399894,62.630053208999016,64.61760470899935,64.64113974999964,,,132303,001,2024-07-01_19h01.45.474,5-26,2024.1.4,None,2024-07-01 19h01.50.427866 +0900,
Images/Speaker1.jpg,Images/Speaker2.jpg,Images/Speaker3.jpg,Images/Speaker4.jpg,Audio/Speaker2_En/P2-13-En.wav,Speaker2,گوینده۲,,,,,,,,,0,0,0,5,0,8,8,32,64.64113974999964,,,,,,,,,,,,,,,,,,,,,,,,,,,,,,,,,,,,,,,,,,,,,64.61779958399893,64.64113974999964,64.64113974999964,64.64113974999964,64.64113974999964,64.63364725066664,64.64113974999964,64.64113974999964,64.6417142499995,Incorrect! The correct answer is Speaker2. نادرست! پاسخ صحیح گوینده۲ است,0,18,1,2.0072384159993817,None,64.64573608399951,64.6552647919998,66.63954216699858,66.66181562499878,,,132303,001,2024-07-01_19h01.45.474,5-26,2024.1.4,None,2024-07-01 19h01.50.427866 +0900,
Images/Speaker1.jpg,Images/Speaker2.jpg,Images/Speaker3.jpg,Images/Speaker4.jpg,Audio/Speaker3_En/P3-10-En.wav,Speaker3,گوینده۳,,,,,,,,,0,0,0,5,0,9,9,49,66.66181562499878,,,,,,,,,,,,,,,,,,,,,,,,,,,,,,,,,,,,,,,,,,,,,66.63971666699945,66.66181562499878,66.66181562499878,66.66181562499878,66.66181562499878,66.6559498336667,66.66181562499878,66.66181562499878,66.66234449999865,Incorrect! The correct answer is Speaker3. نادرست! پاسخ صحیح گوینده۳ است,0,20,1,1.9841452920009033,None,66.66604099999859,66.67608558400025,68.66857358400011,,,,132303,001,2024-07-01_19h01.45.474,5-26,2024.1.4,None,2024-07-01 19h01.50.427866 +0900,
Images/Speaker1.jpg,Images/Speaker2.jpg,Images/Speaker3.jpg,Images/Speaker4.jpg,Audio/Speaker4_En/P4-9-En.wav,Speaker4,گوینده۴,,,,,,,,,0,0,0,5,0,10,10,68,68.6889191249993,,,,,,,,,,,,,,,,,,,,,,,,,,,,,,,,,,,,,,,,,,,,,68.66873424999903,68.6889191249993,68.6889191249993,68.6889191249993,68.6889191249993,68.6852042506655,68.6889191249993,68.6889191249993,68.68952416699904,Incorrect! The correct answer is Speaker4. نادرست! پاسخ صحیح گوینده۴ است,0,22,1,1.868927875000736,None,68.69354558399937,68.70425454199903,70.68998087499858,70.71116895900013,,,132303,001,2024-07-01_19h01.45.474,5-26,2024.1.4,None,2024-07-01 19h01.50.427866 +0900,
Images/Speaker1.jpg,Images/Speaker2.jpg,Images/Speaker3.jpg,Images/Speaker4.jpg,Audio/Speaker1_En/P1-10-En.wav,Speaker1,گوینده ۱,,,,,,,,,0,0,0,5,0,11,11,9,70.71116895900013,,,,,,,,,,,,,,,,,,,,,,,,,,,,,,,,,,,,,,,,,,,,,70.69014699999934,70.71116895900013,70.71116895900013,70.71116895900013,70.71116895900013,70.70642200066528,70.71116895900013,70.71116895900013,70.71168475000013,Correct! صحیح است,0,24,1,1.6631489160008641,None,70.71543141700022,70.72364554199885,72.70628475000012,72.72779637500025,,,132303,001,2024-07-01_19h01.45.474,5-26,2024.1.4,None,2024-07-01 19h01.50.427866 +0900,
Images/Speaker1.jpg,Images/Speaker2.jpg,Images/Speaker3.jpg,Images/Speaker4.jpg,Audio/Speaker2_En/P2-15-En.wav,Speaker2,گوینده۲,,,,,,,,,0,0,0,5,0,12,12,34,72.72779637500025,,,,,,,,,,,,,,,,,,,,,,,,,,,,,,,,,,,,,,,,,,,,,72.70643945899974,72.72779637500025,72.72779637500025,72.72779637500025,72.72779637500025,72.72273879166666,72.72779637500025,72.72779637500025,72.72832337499858,Incorrect! The correct answer is Speaker2. نادرست! پاسخ صحیح گوینده۲ است,0,26,1,0.0666177080001944,None,72.73199604199908,72.74120766699889,74.72965795900018,74.74961824999991,,,132303,001,2024-07-01_19h01.45.474,5-26,2024.1.4,None,2024-07-01 19h01.50.427866 +0900,
Images/Speaker1.jpg,Images/Speaker2.jpg,Images/Speaker3.jpg,Images/Speaker4.jpg,Audio/Speaker4_En/P4-18-En.wav,Speaker4,گوینده۴,,,,,,,,,0,0,0,5,0,13,13,77,74.74961824999991,,,,,,,,,,,,,,,,,,,,,,,,,,,,,,,,,,,,,,,,,,,,,74.72982841699923,74.74961824999991,74.74961824999991,74.74961824999991,74.74961824999991,74.74605029166584,74.74961824999991,74.74961824999991,74.75014699999883,Incorrect! The correct answer is Speaker4. نادرست! پاسخ صحیح گوینده۴ است,0,28,1,1.8022310419983114,None,74.7541954999997,74.76430829199853,76.75632283399864,,,,132303,001,2024-07-01_19h01.45.474,5-26,2024.1.4,None,2024-07-01 19h01.50.427866 +0900,
Images/Speaker1.jpg,Images/Speaker2.jpg,Images/Speaker3.jpg,Images/Speaker4.jpg,Audio/Speaker4_En/P4-1-En.wav,Speaker4,گوینده۴,,,,,,,,,0,0,0,5,0,14,14,60,76.7830671669999,,,,,,,,,,,,,,,,,,,,,,,,,,,,,,,,,,,,,,,,,,,,,76.75694741699954,76.7830671669999,76.7830671669999,76.7830671669999,76.7830671669999,76.78951050033223,76.7830671669999,76.7830671669999,76.78363758399973,Incorrect! The correct answer is Speaker4. نادرست! پاسخ صحیح گوینده۴ است,0,30,1,1.8203988749992277,None,76.78388983399964,76.79316712499894,78.77730999999949,78.79870241699973,,,132303,001,2024-07-01_19h01.45.474,5-26,2024.1.4,None,2024-07-01 19h01.50.427866 +0900,
Images/Speaker1.jpg,Images/Speaker2.jpg,Images/Speaker3.jpg,Images/Speaker4.jpg,Audio/Speaker4_En/P4-5-En.wav,Speaker4,گوینده۴,,,,,,,,,0,0,0,5,0,15,15,64,78.79870241699973,,,,,,,,,,,,,,,,,,,,,,,,,,,,,,,,,,,,,,,,,,,,,78.77747320900016,78.79870241699973,78.79870241699973,78.79870241699973,78.79870241699973,78.79374795866558,78.79870241699973,78.79870241699973,78.79925612499937,Incorrect! The correct answer is Speaker4. نادرست! پاسخ صحیح گوینده۴ است,0,32,1,1.9594217079993541,None,78.80298154199954,78.81240204200003,80.80663491699852,,,,132303,001,2024-07-01_19h01.45.474,5-26,2024.1.4,None,2024-07-01 19h01.50.427866 +0900,
Images/Speaker1.jpg,Images/Speaker2.jpg,Images/Speaker3.jpg,Images/Speaker4.jpg,Audio/Speaker3_En/P3-11-En.wav,Speaker3,گوینده۳,,,,,,,,,0,0,0,5,0,16,16,50,80.83196270899862,,,,,,,,,,,,,,,,,,,,,,,,,,,,,,,,,,,,,,,,,,,,,80.8072722500001,80.83196270899862,80.83196270899862,80.83196270899862,80.83196270899862,80.8398109173327,80.83196270899862,80.83196270899862,80.83252433399866,Incorrect! The correct answer is Speaker3. نادرست! پاسخ صحیح گوینده۳ است,0,34,1,1.9523101659997337,None,80.8329987090001,80.84241120899969,82.82881424999869,82.8519873339992,,,132303,001,2024-07-01_19h01.45.474,5-26,2024.1.4,None,2024-07-01 19h01.50.427866 +0900,
Images/Speaker1.jpg,Images/Speaker2.jpg,Images/Speaker3.jpg,Images/Speaker4.jpg,Audio/Speaker3_En/P3-2-En.wav,Speaker3,گوینده۳,,,,,,,,,0,0,0,5,0,17,17,41,82.8519873339992,,,,,,,,,,,,,,,,,,,,,,,,,,,,,,,,,,,,,,,,,,,,,82.8289675420001,82.8519873339992,82.8519873339992,82.8519873339992,82.8519873339992,82.86190479233349,82.8519873339992,82.8519873339992,82.85258141699887,Incorrect! The correct answer is Speaker3. نادرست! پاسخ صحیح گوینده۳ است,0,36,1,1.9797091250002268,None,82.85299995899913,82.86297329199988,84.84884770899953,84.87178058399877,,,132303,001,2024-07-01_19h01.45.474,5-26,2024.1.4,None,2024-07-01 19h01.50.427866 +0900,
Images/Speaker1.jpg,Images/Speaker2.jpg,Images/Speaker3.jpg,Images/Speaker4.jpg,Audio/Speaker1_En/P1-17-En.wav,Speaker1,گوینده ۱,,,,,,,,,0,0,0,5,0,18,18,16,84.87178058399877,,,,,,,,,,,,,,,,,,,,,,,,,,,,,,,,,,,,,,,,,,,,,84.84900145899883,84.87178058399877,84.87178058399877,84.87178058399877,84.87178058399877,84.86526262566646,84.87178058399877,84.87178058399877,84.87235362499996,Correct! صحیح است,0,38,1,2.0016971660006675,None,84.87614541699986,84.88444883400007,86.86949808399913,86.88994604199979,,,132303,001,2024-07-01_19h01.45.474,5-26,2024.1.4,None,2024-07-01 19h01.50.427866 +0900,
Images/Speaker1.jpg,Images/Speaker2.jpg,Images/Speaker3.jpg,Images/Speaker4.jpg,Audio/Speaker2_En/P2-19-En.wav,Speaker2,گوینده۲,,,,,,,,,0,0,0,5,0,19,19,38,86.88994604199979,,,,,,,,,,,,,,,,,,,,,,,,,,,,,,,,,,,,,,,,,,,,,86.86965920900002,86.88994604199979,86.88994604199979,86.88994604199979,86.88994604199979,86.88598004166512,86.88994604199979,86.88994604199979,87.06516916699911,Incorrect! The correct answer is Speaker2. نادرست! پاسخ صحیح گوینده۲ است,0,40,1,0.172379000001456,None,87.06927941699905,87.0818915839991,89.06860224999946,89.09087558399915,,,132303,001,2024-07-01_19h01.45.474,5-26,2024.1.4,None,2024-07-01 19h01.50.427866 +0900,
Images/Speaker1.jpg,Images/Speaker2.jpg,Images/Speaker3.jpg,Images/Speaker4.jpg,Audio/Speaker4_En/P4-12-En.wav,Speaker4,گوینده۴,,,,,,,,,0,0,0,5,0,20,20,71,89.09087558399915,,,,,,,,,,,,,,,,,,,,,,,,,,,,,,,,,,,,,,,,,,,,,89.06950395899912,89.09087558399915,89.09087558399915,89.09087558399915,89.09087558399915,89.10096154233227,89.09087558399915,89.09087558399915,89.09149995899861,Incorrect! The correct answer is Speaker4. نادرست! پاسخ صحیح گوینده۴ است,0,42,1,2.061347000000751,None,89.09178749999955,89.10134362499957,91.09011258399914,91.1115478339998,,,132303,001,2024-07-01_19h01.45.474,5-26,2024.1.4,None,2024-07-01 19h01.50.427866 +0900,
Images/Speaker1.jpg,Images/Speaker2.jpg,Images/Speaker3.jpg,Images/Speaker4.jpg,Audio/Speaker1_En/P1-6-En.wav,Speaker1,گوینده ۱,,,,,,,,,0,0,0,5,0,21,21,5,91.1115478339998,,,,,,,,,,,,,,,,,,,,,,,,,,,,,,,,,,,,,,,,,,,,,91.09026116699897,91.1115478339998,91.1115478339998,91.1115478339998,91.1115478339998,91.10650825066683,91.1115478339998,91.1115478339998,91.11210500000016,Correct! صحیح است,0,44,1,1.9379988330001652,None,91.11614904199996,91.12382083400007,93.11322499999915,93.13793241699932,,,132303,001,2024-07-01_19h01.45.474,5-26,2024.1.4,None,2024-07-01 19h01.50.427866 +0900,
Images/Speaker1.jpg,Images/Speaker2.jpg,Images/Speaker3.jpg,Images/Speaker4.jpg,Audio/Speaker3_En/P3-15-En.wav,Speaker3,گوینده۳,,,,,,,,,0,0,0,5,0,22,22,54,93.13793241699932,,,,,,,,,,,,,,,,,,,,,,,,,,,,,,,,,,,,,,,,,,,,,93.11399316699863,93.13793241699932,93.13793241699932,93.13793241699932,93.13793241699932,93.14573925033304,93.13793241699932,93.13793241699932,93.13848637499905,Incorrect! The correct answer is Speaker3. نادرست! پاسخ صحیح گوینده۳ است,0,46,1,1.8904756249994534,None,93.13899283399951,93.14848312499998,95.1350679169991,95.15936408400012,,,132303,001,2024-07-01_19h01.45.474,5-26,2024.1.4,None,2024-07-01 19h01.50.427866 +0900,
Images/Speaker1.jpg,Images/Speaker2.jpg,Images/Speaker3.jpg,Images/Speaker4.jpg,Audio/Speaker1_En/P1-15-En.wav,Speaker1,گوینده ۱,,,,,,,,,0,0,0,5,0,23,23,14,95.15936408400012,,,,,,,,,,,,,,,,,,,,,,,,,,,,,,,,,,,,,,,,,,,,,95.13523887500014,95.15936408400012,95.15936408400012,95.15936408400012,95.15936408400012,95.1511349586656,95.15936408400012,95.15936408400012,95.15998991699962,Correct! صحیح است,0,48,1,1.988067875001434,None,95.16377787499914,95.1723541249994,97.16036075000011,97.1811457499989,,,132303,001,2024-07-01_19h01.45.474,5-26,2024.1.4,None,2024-07-01 19h01.50.427866 +0900,
Images/Speaker1.jpg,Images/Speaker2.jpg,Images/Speaker3.jpg,Images/Speaker4.jpg,Audio/Speaker3_En/P3-8-En.wav,Speaker3,گوینده۳,,,,,,,,,0,0,0,5,0,24,24,47,97.1811457499989,,,,,,,,,,,,,,,,,,,,,,,,,,,,,,,,,,,,,,,,,,,,,97.16054154199992,97.1811457499989,97.1811457499989,97.1811457499989,97.1811457499989,97.17679233366677,97.1811457499989,97.1811457499989,97.18173937499887,Incorrect! The correct answer is Speaker3. نادرست! پاسخ صحیح گوینده۳ است,0,50,1,1.98444870899948,None,97.18587416699847,97.19511316699936,99.18130887499865,99.20184945899928,,,132303,001,2024-07-01_19h01.45.474,5-26,2024.1.4,None,2024-07-01 19h01.50.427866 +0900,
Images/Speaker1.jpg,Images/Speaker2.jpg,Images/Speaker3.jpg,Images/Speaker4.jpg,Audio/Speaker2_En/P2-1-En.wav,Speaker2,گوینده۲,,,,,,,,,0,0,0,5,0,25,25,20,99.20184945899928,,,,,,,,,,,,,,,,,,,,,,,,,,,,,,,,,,,,,,,,,,,,,99.18148133399882,99.20184945899928,99.20184945899928,99.20184945899928,99.20184945899928,99.1977319166656,99.20184945899928,99.20184945899928,99.22902916699968,Incorrect! The correct answer is Speaker2. نادرست! پاسخ صحیح گوینده۲ است,0,52,1,0.017615125001611887,None,99.23276829199858,99.24537474999852,101.23196404199916,101.25462966699888,,,132303,001,2024-07-01_19h01.45.474,5-26,2024.1.4,None,2024-07-01 19h01.50.427866 +0900,
Images/Speaker1.jpg,Images/Speaker2.jpg,Images/Speaker3.jpg,Images/Speaker4.jpg,Audio/Speaker2_En/P2-9-En.wav,Speaker2,گوینده۲,,,,,,,,,0,0,0,5,0,26,26,28,101.25462966699888,,,,,,,,,,,,,,,,,,,,,,,,,,,,,,,,,,,,,,,,,,,,,101.23289270900023,101.25462966699888,101.25462966699888,101.25462966699888,101.25462966699888,101.26405595833288,101.25462966699888,101.25462966699888,101.25515266699949,Incorrect! The correct answer is Speaker2. نادرست! پاسخ صحیح گوینده۲ است,0,54,1,1.9549202500002139,None,101.25560016700001,101.26470100000006,103.25484745899848,103.27598704199954,,,132303,001,2024-07-01_19h01.45.474,5-26,2024.1.4,None,2024-07-01 19h01.50.427866 +0900,
Images/Speaker1.jpg,Images/Speaker2.jpg,Images/Speaker3.jpg,Images/Speaker4.jpg,Audio/Speaker2_En/P2-11-En.wav,Speaker2,گوینده۲,,,,,,,,,0,0,0,5,0,27,27,30,103.27598704199954,,,,,,,,,,,,,,,,,,,,,,,,,,,,,,,,,,,,,,,,,,,,,103.25501587500003,103.27598704199954,103.27598704199954,103.27598704199954,103.27598704199954,103.27126004166554,103.27598704199954,103.27598704199954,103.33456145899981,Incorrect! The correct answer is Speaker2. نادرست! پاسخ صحیح گوینده۲ است,0,56,1,0.05403245800152945,None,103.33869366699946,103.35120620899943,105.33564899999874,105.35767529199984,,,132303,001,2024-07-01_19h01.45.474,5-26,2024.1.4,None,2024-07-01 19h01.50.427866 +0900,
Images/Speaker1.jpg,Images/Speaker2.jpg,Images/Speaker3.jpg,Images/Speaker4.jpg,Audio/Speaker4_En/P4-10-En.wav,Speaker4,گوینده۴,,,,,,,,,0,0,0,5,0,28,28,69,105.35767529199984,,,,,,,,,,,,,,,,,,,,,,,,,,,,,,,,,,,,,,,,,,,,,105.33654866699908,105.35767529199984,105.35767529199984,105.35767529199984,105.35767529199984,105.36798400033197,105.35767529199984,105.35767529199984,105.35839745900012,Incorrect! The correct answer is Speaker4. نادرست! پاسخ صحیح گوینده۴ است,0,58,1,1.9844769160008582,None,105.35872774999916,105.36874524999985,107.36077195899998,,,,132303,001,2024-07-01_19h01.45.474,5-26,2024.1.4,None,2024-07-01 19h01.50.427866 +0900,
Images/Speaker1.jpg,Images/Speaker2.jpg,Images/Speaker3.jpg,Images/Speaker4.jpg,Audio/Speaker2_En/P2-20-En.wav,Speaker2,گوینده۲,,,,,,,,,0,0,0,5,0,29,29,39,107.38038245899952,,,,,,,,,,,,,,,,,,,,,,,,,,,,,,,,,,,,,,,,,,,,,107.36093137499847,107.38038245899952,107.38038245899952,107.38038245899952,107.38038245899952,107.37740541666632,107.38038245899952,107.38038245899952,107.3811991249986,Incorrect! The correct answer is Speaker2. نادرست! پاسخ صحیح گوینده۲ است,0,60,1,1.9804856669998117,None,107.38499812499867,107.39460712499931,109.38302537500022,109.40373029199873,,,132303,001,2024-07-01_19h01.45.474,5-26,2024.1.4,None,2024-07-01 19h01.50.427866 +0900,
Images/Speaker1.jpg,Images/Speaker2.jpg,Images/Speaker3.jpg,Images/Speaker4.jpg,Audio/Speaker2_En/P2-6-En.wav,Speaker2,گوینده۲,,,,,,,,,0,0,0,5,0,30,30,25,109.40373029199873,,,,,,,,,,,,,,,,,,,,,,,,,,,,,,,,,,,,,,,,,,,,,109.38318720899952,109.40373029199873,109.40373029199873,109.40373029199873,109.40373029199873,109.39947504166618,109.40373029199873,109.40373029199873,109.4042595840001,Incorrect! The correct answer is Speaker2. نادرست! پاسخ صحیح گوینده۲ است,0,62,1,1.8539299580006627,None,109.40841470899977,109.41807295899889,111.41247037499852,,,,132303,001,2024-07-01_19h01.45.474,5-26,2024.1.4,None,2024-07-01 19h01.50.427866 +0900,
Images/Speaker1.jpg,Images/Speaker2.jpg,Images/Speaker3.jpg,Images/Speaker4.jpg,Audio/Speaker4_En/P4-11-En.wav,Speaker4,گوینده۴,,,,,,,,,0,0,0,5,0,31,31,70,111.43629745899852,,,,,,,,,,,,,,,,,,,,,,,,,,,,,,,,,,,,,,,,,,,,,111.41308858399861,111.43629745899852,111.43629745899852,111.43629745899852,111.43629745899852,111.44559937533316,111.43629745899852,111.43629745899852,111.43698516699988,Incorrect! The correct answer is Speaker4. نادرست! پاسخ صحیح گوینده۴ است,0,64,1,1.7902397500001825,None,111.43754666699897,111.44675974999882,113.4320463339991,113.45289229199989,,,132303,001,2024-07-01_19h01.45.474,5-26,2024.1.4,None,2024-07-01 19h01.50.427866 +0900,
Images/Speaker1.jpg,Images/Speaker2.jpg,Images/Speaker3.jpg,Images/Speaker4.jpg,Audio/Speaker2_En/P2-8-En.wav,Speaker2,گوینده۲,,,,,,,,,0,0,0,5,0,32,32,27,113.45289229199989,,,,,,,,,,,,,,,,,,,,,,,,,,,,,,,,,,,,,,,,,,,,,113.43220895899867,113.45289229199989,113.45289229199989,113.45289229199989,113.45289229199989,113.44851775066515,113.45289229199989,113.45289229199989,113.45345149999957,Incorrect! The correct answer is Speaker2. نادرست! پاسخ صحیح گوینده۲ است,0,66,1,1.7229883749987494,None,113.45751241699872,113.46657233399856,115.45259524999892,115.47343412499868,,,132303,001,2024-07-01_19h01.45.474,5-26,2024.1.4,None,2024-07-01 19h01.50.427866 +0900,
Images/Speaker1.jpg,Images/Speaker2.jpg,Images/Speaker3.jpg,Images/Speaker4.jpg,Audio/Speaker1_En/P1-12-En.wav,Speaker1,گوینده ۱,,,,,,,,,0,0,0,5,0,33,33,11,115.47343412499868,,,,,,,,,,,,,,,,,,,,,,,,,,,,,,,,,,,,,,,,,,,,,115.45276783400004,115.47343412499868,115.47343412499868,115.47343412499868,115.47343412499868,115.46906166666692,115.47343412499868,115.47343412499868,115.47401158399953,Correct! صحیح است,0,68,1,0.13340333400083182,None,115.47804270899906,115.48912241699873,117.4725101669992,117.493615166999,,,132303,001,2024-07-01_19h01.45.474,5-26,2024.1.4,None,2024-07-01 19h01.50.427866 +0900,
Images/Speaker1.jpg,Images/Speaker2.jpg,Images/Speaker3.jpg,Images/Speaker4.jpg,Audio/Speaker3_En/P3-7-En.wav,Speaker3,گوینده۳,,,,,,,,,0,0,0,5,0,34,34,46,117.493615166999,,,,,,,,,,,,,,,,,,,,,,,,,,,,,,,,,,,,,,,,,,,,,117.47268974999861,117.493615166999,117.493615166999,117.493615166999,117.493615166999,117.48898183366533,117.493615166999,117.493615166999,117.49419279199901,Incorrect! The correct answer is Speaker3. نادرست! پاسخ صحیح گوینده۳ است,0,70,1,0.003371624999999767,None,117.49815412499993,117.50750783399963,119.49014083399925,119.51114741699894,,,132303,001,2024-07-01_19h01.45.474,5-26,2024.1.4,None,2024-07-01 19h01.50.427866 +0900,
Images/Speaker1.jpg,Images/Speaker2.jpg,Images/Speaker3.jpg,Images/Speaker4.jpg,Audio/Speaker1_En/P1-3-En.wav,Speaker1,گوینده ۱,,,,,,,,,0,0,0,5,0,35,35,2,119.51114741699894,,,,,,,,,,,,,,,,,,,,,,,,,,,,,,,,,,,,,,,,,,,,,119.49031145899971,119.51114741699894,119.51114741699894,119.51114741699894,119.51114741699894,119.50660654166519,119.51114741699894,119.51114741699894,119.51178633400013,Correct! صحیح است,0,72,1,0.11241512500055251,None,119.51566545899914,119.52358933399955,121.50994987499871,121.530478708999,,,132303,001,2024-07-01_19h01.45.474,5-26,2024.1.4,None,2024-07-01 19h01.50.427866 +0900,
Images/Speaker1.jpg,Images/Speaker2.jpg,Images/Speaker3.jpg,Images/Speaker4.jpg,Audio/Speaker2_En/P2-4-En.wav,Speaker2,گوینده۲,,,,,,,,,0,0,0,5,0,36,36,23,121.530478708999,,,,,,,,,,,,,,,,,,,,,,,,,,,,,,,,,,,,,,,,,,,,,121.51010874999884,121.530478708999,121.530478708999,121.530478708999,121.530478708999,121.52641233366582,121.530478708999,121.530478708999,121.53117395899972,Incorrect! The correct answer is Speaker2. نادرست! پاسخ صحیح گوینده۲ است,0,74,1,0.10884508300114248,None,121.53536620900013,121.54453345899856,123.53617374999885,,,,132303,001,2024-07-01_19h01.45.474,5-26,2024.1.4,None,2024-07-01 19h01.50.427866 +0900,
Images/Speaker1.jpg,Images/Speaker2.jpg,Images/Speaker3.jpg,Images/Speaker4.jpg,Audio/Speaker2_En/P2-7-En.wav,Speaker2,گوینده۲,,,,,,,,,0,0,0,5,0,37,37,26,123.55956724999851,,,,,,,,,,,,,,,,,,,,,,,,,,,,,,,,,,,,,,,,,,,,,123.53673483399871,123.55956724999851,123.55956724999851,123.55956724999851,123.55956724999851,123.56936425033248,123.55956724999851,123.55956724999851,123.56009029199959,Incorrect! The correct answer is Speaker2. نادرست! پاسخ صحیح گوینده۲ است,0,76,1,0.1626094169987482,None,123.56036399999903,123.56954012499955,125.5565687090002,125.5816651669993,,,132303,001,2024-07-01_19h01.45.474,5-26,2024.1.4,None,2024-07-01 19h01.50.427866 +0900,
Images/Speaker1.jpg,Images/Speaker2.jpg,Images/Speaker3.jpg,Images/Speaker4.jpg,Audio/Speaker4_En/P4-7-En.wav,Speaker4,گوینده۴,,,,,,,,,0,0,0,5,0,38,38,66,125.5816651669993,,,,,,,,,,,,,,,,,,,,,,,,,,,,,,,,,,,,,,,,,,,,,125.55743350000012,125.5816651669993,125.5816651669993,125.5816651669993,125.5816651669993,125.58903770833288,125.5816651669993,125.5816651669993,125.58255279199875,Incorrect! The correct answer is Speaker4. نادرست! پاسخ صحیح گوینده۴ است,0,78,1,0.030090083000686718,None,125.58286233399849,125.59236950000013,127.5834288749993,,,,132303,001,2024-07-01_19h01.45.474,5-26,2024.1.4,None,2024-07-01 19h01.50.427866 +0900,
Images/Speaker1.jpg,Images/Speaker2.jpg,Images/Speaker3.jpg,Images/Speaker4.jpg,Audio/Speaker3_En/P3-18-En.wav,Speaker3,گوینده۳,,,,,,,,,0,0,0,5,0,39,39,57,127.60621479200017,,,,,,,,,,,,,,,,,,,,,,,,,,,,,,,,,,,,,,,,,,,,,127.58400641699882,127.60621479200017,127.60621479200017,127.60621479200017,127.60621479200017,127.599908958666,127.60621479200017,127.60621479200017,127.6068084999988,Incorrect! The correct answer is Speaker3. نادرست! پاسخ صحیح گوینده۳ است,0,80,1,0.018393832999208826,None,127.60727608399975,127.61677124999915,129.60206370899868,129.62210187500023,,,132303,001,2024-07-01_19h01.45.474,5-26,2024.1.4,None,2024-07-01 19h01.50.427866 +0900,
Images/Speaker1.jpg,Images/Speaker2.jpg,Images/Speaker3.jpg,Images/Speaker4.jpg,Audio/Speaker2_En/P2-12-En.wav,Speaker2,گوینده۲,,,,,,,,,0,0,0,5,0,40,40,31,129.62210187500023,,,,,,,,,,,,,,,,,,,,,,,,,,,,,,,,,,,,,,,,,,,,,129.6022289169996,129.62210187500023,129.62210187500023,129.62210187500023,129.62210187500023,129.61850941666515,129.62210187500023,129.62210187500023,129.6228176249988,Incorrect! The correct answer is Speaker2. نادرست! پاسخ صحیح گوینده۲ است,0,82,1,0.04167595800026902,None,129.6269621249994,129.63670187499883,131.62594249999893,131.64737820899973,,,132303,001,2024-07-01_19h01.45.474,5-26,2024.1.4,None,2024-07-01 19h01.50.427866 +0900,
Images/Speaker1.jpg,Images/Speaker2.jpg,Images/Speaker3.jpg,Images/Speaker4.jpg,Audio/Speaker3_En/P3-5-En.wav,Speaker3,گوینده۳,,,,,,,,,0,0,0,5,0,41,41,44,131.64737820899973,,,,,,,,,,,,,,,,,,,,,,,,,,,,,,,,,,,,,,,,,,,,,131.626110666999,131.64737820899973,131.64737820899973,131.64737820899973,131.64737820899973,131.64224095866692,131.64737820899973,131.64737820899973,131.64794566699857,Incorrect! The correct answer is Speaker3. نادرست! پاسخ صحیح گوینده۳ است,0,84,1,1.78312512499906,None,131.65196158399885,131.66127933399912,133.6523500839994,,,,132303,001,2024-07-01_19h01.45.474,5-26,2024.1.4,None,2024-07-01 19h01.50.427866 +0900,
Images/Speaker1.jpg,Images/Speaker2.jpg,Images/Speaker3.jpg,Images/Speaker4.jpg,Audio/Speaker4_En/P4-13-En.wav,Speaker4,گوینده۴,,,,,,,,,0,0,0,5,0,42,42,72,133.67372366699965,,,,,,,,,,,,,,,,,,,,,,,,,,,,,,,,,,,,,,,,,,,,,133.65251029199862,133.67372366699965,133.67372366699965,133.67372366699965,133.67372366699965,133.66898225066532,133.67372366699965,133.67372366699965,133.67438224999933,Incorrect! The correct answer is Speaker4. نادرست! پاسخ صحیح گوینده۴ است,0,86,1,1.9737670829999843,None,133.6782474169995,133.68754845900003,135.67152612499922,135.69254724999882,,,132303,001,2024-07-01_19h01.45.474,5-26,2024.1.4,None,2024-07-01 19h01.50.427866 +0900,
Images/Speaker1.jpg,Images/Speaker2.jpg,Images/Speaker3.jpg,Images/Speaker4.jpg,Audio/Speaker1_En/P1-9-En.wav,Speaker1,گوینده ۱,,,,,,,,,0,0,0,5,0,43,43,8,135.69254724999882,,,,,,,,,,,,,,,,,,,,,,,,,,,,,,,,,,,,,,,,,,,,,135.67169487499996,135.69254724999882,135.69254724999882,135.69254724999882,135.69254724999882,135.6878874166653,135.69254724999882,135.69254724999882,135.69315633399856,Correct! صحیح است,0,88,1,1.9578575840005215,None,135.69699366699933,135.70449299999927,137.69317708400013,137.715564791999,,,132303,001,2024-07-01_19h01.45.474,5-26,2024.1.4,None,2024-07-01 19h01.50.427866 +0900,
Images/Speaker1.jpg,Images/Speaker2.jpg,Images/Speaker3.jpg,Images/Speaker4.jpg,Audio/Speaker1_En/P1-5-En.wav,Speaker1,گوینده ۱,,,,,,,,,0,0,0,5,0,44,44,4,137.715564791999,,,,,,,,,,,,,,,,,,,,,,,,,,,,,,,,,,,,,,,,,,,,,137.6939829589992,137.715564791999,137.715564791999,137.715564791999,137.715564791999,137.725713708333,137.715564791999,137.715564791999,137.71613787499882,Correct! صحیح است,0,90,1,0.37523787499958416,None,137.71636491699974,137.72361233399897,139.71412799999962,139.73586262499884,,,132303,001,2024-07-01_19h01.45.474,5-26,2024.1.4,None,2024-07-01 19h01.50.427866 +0900,
Images/Speaker1.jpg,Images/Speaker2.jpg,Images/Speaker3.jpg,Images/Speaker4.jpg,Audio/Speaker3_En/P3-1-En.wav,Speaker3,گوینده۳,,,,,,,,,0,0,0,5,0,45,45,40,139.73586262499884,,,,,,,,,,,,,,,,,,,,,,,,,,,,,,,,,,,,,,,,,,,,,139.7142774169988,139.73586262499884,139.73586262499884,139.73586262499884,139.73586262499884,139.73057750066644,139.73586262499884,139.73586262499884,139.73643016699862,Incorrect! The correct answer is Speaker3. نادرست! پاسخ صحیح گوینده۳ است,0,92,1,0.13789237499986484,None,139.74044549999962,139.74997595899913,141.73585954199916,141.7573657089997,,,132303,001,2024-07-01_19h01.45.474,5-26,2024.1.4,None,2024-07-01 19h01.50.427866 +0900,
Images/Speaker1.jpg,Images/Speaker2.jpg,Images/Speaker3.jpg,Images/Speaker4.jpg,Audio/Speaker2_En/P2-16-En.wav,Speaker2,گوینده۲,,,,,,,,,0,0,0,5,0,46,46,35,141.7573657089997,,,,,,,,,,,,,,,,,,,,,,,,,,,,,,,,,,,,,,,,,,,,,141.73675804199956,141.7573657089997,141.7573657089997,141.7573657089997,141.7573657089997,141.7515835416655,141.7573657089997,141.7573657089997,141.75786787499965,Incorrect! The correct answer is Speaker2. نادرست! پاسخ صحیح گوینده۲ است,0,94,1,0.1414189589995658,None,141.76202504199864,141.77092479199928,143.75516533399968,143.7758544999997,,,132303,001,2024-07-01_19h01.45.474,5-26,2024.1.4,None,2024-07-01 19h01.50.427866 +0900,
Images/Speaker1.jpg,Images/Speaker2.jpg,Images/Speaker3.jpg,Images/Speaker4.jpg,Audio/Speaker3_En/P3-19-En.wav,Speaker3,گوینده۳,,,,,,,,,0,0,0,5,0,47,47,58,143.7758544999997,,,,,,,,,,,,,,,,,,,,,,,,,,,,,,,,,,,,,,,,,,,,,143.75535987500007,143.7758544999997,143.7758544999997,143.7758544999997,143.7758544999997,143.7715726666668,143.7758544999997,143.7758544999997,143.77639412499957,Incorrect! The correct answer is Speaker3. نادرست! پاسخ صحیح گوینده۳ است,0,96,1,0.16923012499864853,None,143.78015541700006,143.78917866699885,145.78419883399874,,,,132303,001,2024-07-01_19h01.45.474,5-26,2024.1.4,None,2024-07-01 19h01.50.427866 +0900,
Images/Speaker1.jpg,Images/Speaker2.jpg,Images/Speaker3.jpg,Images/Speaker4.jpg,Audio/Speaker1_En/P1-11-En.wav,Speaker1,گوینده ۱,,,,,,,,,0,0,0,5,0,48,48,10,145.8074298749998,,,,,,,,,,,,,,,,,,,,,,,,,,,,,,,,,,,,,,,,,,,,,145.78476183400016,145.8074298749998,145.8074298749998,145.8074298749998,145.8074298749998,145.8173767503327,145.8074298749998,145.8074298749998,145.807917791999,Correct! صحیح است,0,98,1,0.31679350000013073,None,145.8082678339997,145.81549962499957,147.7999908749989,147.82111483399967,,,132303,001,2024-07-01_19h01.45.474,5-26,2024.1.4,None,2024-07-01 19h01.50.427866 +0900,
Images/Speaker1.jpg,Images/Speaker2.jpg,Images/Speaker3.jpg,Images/Speaker4.jpg,Audio/Speaker3_En/P3-4-En.wav,Speaker3,گوینده۳,,,,,,,,,0,0,0,5,0,49,49,43,147.82111483399967,,,,,,,,,,,,,,,,,,,,,,,,,,,,,,,,,,,,,,,,,,,,,147.80015325000022,147.82111483399967,147.82111483399967,147.82111483399967,147.82111483399967,147.81637545866604,147.82111483399967,147.82111483399967,150.61533637499997,Incorrect! The correct answer is Speaker3. نادرست! پاسخ صحیح گوینده۳ است,0,100,1,2.7886756250009057,None,150.6195981669989,150.63229387499996,152.6178052919986,152.640150792,,,132303,001,2024-07-01_19h01.45.474,5-26,2024.1.4,None,2024-07-01 19h01.50.427866 +0900,
Images/Speaker1.jpg,Images/Speaker2.jpg,Images/Speaker3.jpg,Images/Speaker4.jpg,Audio/Speaker4_En/P4-2-En.wav,Speaker4,گوینده۴,,,,,,,,,0,0,0,5,0,50,50,61,152.640150792,,,,,,,,,,,,,,,,,,,,,,,,,,,,,,,,,,,,,,,,,,,,,152.61796504199992,152.640150792,152.640150792,152.640150792,152.640150792,152.6341878336664,152.640150792,152.640150792,153.39927866699873,Incorrect! The correct answer is Speaker4. نادرست! پاسخ صحیح گوینده۴ است,0,102,1,0.7543189579992031,None,153.4030482090002,153.41578041699904,155.40936004200012,,,,132303,001,2024-07-01_19h01.45.474,5-26,2024.1.4,None,2024-07-01 19h01.50.427866 +0900,
Images/Speaker1.jpg,Images/Speaker2.jpg,Images/Speaker3.jpg,Images/Speaker4.jpg,Audio/Speaker3_En/P3-13-En.wav,Speaker3,گوینده۳,,,,,,,,,0,0,0,5,0,51,51,52,155.43277008399855,,,,,,,,,,,,,,,,,,,,,,,,,,,,,,,,,,,,,,,,,,,,,155.40989337499923,155.43277008399855,155.43277008399855,155.43277008399855,155.43277008399855,155.44251800033322,155.43277008399855,155.43277008399855,155.85325687499972,Incorrect! The correct answer is Speaker3. نادرست! پاسخ صحیح گوینده۳ است,0,104,1,0.4148377910005365,None,155.857115625,155.86956279199876,157.85324574999868,157.87443570899995,,,132303,001,2024-07-01_19h01.45.474,5-26,2024.1.4,None,2024-07-01 19h01.50.427866 +0900,
Images/Speaker1.jpg,Images/Speaker2.jpg,Images/Speaker3.jpg,Images/Speaker4.jpg,Audio/Speaker1_En/P1-4-En.wav,Speaker1,گوینده ۱,,,,,,,,,0,0,0,5,0,52,52,3,157.87443570899995,,,,,,,,,,,,,,,,,,,,,,,,,,,,,,,,,,,,,,,,,,,,,157.8534039999995,157.87443570899995,157.87443570899995,157.87443570899995,157.87443570899995,157.86958916666688,157.87443570899995,157.87443570899995,158.06526391699845,Correct! صحیح است,0,106,1,0.18648399999983667,None,158.06897349999963,158.07974783399914,160.06531854199966,160.089520042,,,132303,001,2024-07-01_19h01.45.474,5-26,2024.1.4,None,2024-07-01 19h01.50.427866 +0900,
Images/Speaker1.jpg,Images/Speaker2.jpg,Images/Speaker3.jpg,Images/Speaker4.jpg,Audio/Speaker1_En/P1-1-En.wav,Speaker1,گوینده ۱,,,,,,,,,0,0,0,5,0,53,53,0,160.089520042,,,,,,,,,,,,,,,,,,,,,,,,,,,,,,,,,,,,,,,,,,,,,160.06602179199945,160.089520042,160.089520042,160.089520042,160.089520042,160.09787979233312,160.089520042,160.089520042,160.36539512499985,Correct! صحیح است,0,108,1,0.2718166670001665,None,160.36963504199957,160.38010004199896,162.36401862499952,162.3853519589993,,,132303,001,2024-07-01_19h01.45.474,5-26,2024.1.4,None,2024-07-01 19h01.50.427866 +0900,
Images/Speaker1.jpg,Images/Speaker2.jpg,Images/Speaker3.jpg,Images/Speaker4.jpg,Audio/Speaker4_En/P4-19-En.wav,Speaker4,گوینده۴,,,,,,,,,0,0,0,5,0,54,54,78,162.3853519589993,,,,,,,,,,,,,,,,,,,,,,,,,,,,,,,,,,,,,,,,,,,,,162.3642067919991,162.3853519589993,162.3853519589993,162.3853519589993,162.3853519589993,162.38037829166595,162.3853519589993,162.3853519589993,162.64768241699858,Incorrect! The correct answer is Speaker4. نادرست! پاسخ صحیح گوینده۴ است,0,110,1,0.25950324999939767,None,162.6515112500001,162.66430854200007,164.64897837499848,164.67490612499932,,,132303,001,2024-07-01_19h01.45.474,5-26,2024.1.4,None,2024-07-01 19h01.50.427866 +0900,
Images/Speaker1.jpg,Images/Speaker2.jpg,Images/Speaker3.jpg,Images/Speaker4.jpg,Audio/Speaker3_En/P3-20-En.wav,Speaker3,گوینده۳,,,,,,,,,0,0,0,5,0,55,55,59,164.67490612499932,,,,,,,,,,,,,,,,,,,,,,,,,,,,,,,,,,,,,,,,,,,,,164.64983491699968,164.67490612499932,164.67490612499932,164.67490612499932,164.67490612499932,164.68150433333227,164.67490612499932,164.67490612499932,164.67557750000014,Incorrect! The correct answer is Speaker3. نادرست! پاسخ صحیح گوینده۳ است,0,112,1,2.278162041999167,None,164.67588270899978,164.6855192919993,166.6755066249989,166.69970904199909,,,132303,001,2024-07-01_19h01.45.474,5-26,2024.1.4,None,2024-07-01 19h01.50.427866 +0900,
Images/Speaker1.jpg,Images/Speaker2.jpg,Images/Speaker3.jpg,Images/Speaker4.jpg,Audio/Speaker1_En/P1-19-En.wav,Speaker1,گوینده ۱,,,,,,,,,0,0,0,5,0,56,56,18,166.69970904199909,,,,,,,,,,,,,,,,,,,,,,,,,,,,,,,,,,,,,,,,,,,,,166.67606666699976,166.69970904199909,166.69970904199909,166.69970904199909,166.69970904199909,166.70789687533266,166.69970904199909,166.69970904199909,166.94346670899904,Correct! صحیح است,0,114,1,0.2344976249987667,None,166.94748654199975,166.95616062499903,168.950963416999,,,,132303,001,2024-07-01_19h01.45.474,5-26,2024.1.4,None,2024-07-01 19h01.50.427866 +0900,
Images/Speaker1.jpg,Images/Speaker2.jpg,Images/Speaker3.jpg,Images/Speaker4.jpg,Audio/Speaker1_En/P1-16-En.wav,Speaker1,گوینده ۱,,,,,,,,,0,0,0,5,0,57,57,15,168.97622816699914,,,,,,,,,,,,,,,,,,,,,,,,,,,,,,,,,,,,,,,,,,,,,168.9515304589986,168.97622816699914,168.97622816699914,168.97622816699914,168.97622816699914,168.98413075033255,168.97622816699914,168.97622816699914,169.2163106249991,Correct! صحیح است,0,116,1,0.23662691700155847,None,169.22040424999977,169.2313721669998,171.21494983399862,171.2363895419985,,,132303,001,2024-07-01_19h01.45.474,5-26,2024.1.4,None,2024-07-01 19h01.50.427866 +0900,
Images/Speaker1.jpg,Images/Speaker2.jpg,Images/Speaker3.jpg,Images/Speaker4.jpg,Audio/Speaker2_En/P2-10-En.wav,Speaker2,گوینده۲,,,,,,,,,0,0,0,5,0,58,58,29,171.2363895419985,,,,,,,,,,,,,,,,,,,,,,,,,,,,,,,,,,,,,,,,,,,,,171.21509954199973,171.2363895419985,171.2363895419985,171.2363895419985,171.2363895419985,171.23132345866568,171.2363895419985,171.2363895419985,171.23706954199952,Incorrect! The correct answer is Speaker2. نادرست! پاسخ صحیح گوینده۲ است,0,118,1,2.168094208000184,None,171.24090754200006,171.25008654199883,173.24148745899947,173.2625520419988,,,132303,001,2024-07-01_19h01.45.474,5-26,2024.1.4,None,2024-07-01 19h01.50.427866 +0900,
Images/Speaker1.jpg,Images/Speaker2.jpg,Images/Speaker3.jpg,Images/Speaker4.jpg,Audio/Speaker1_En/P1-2-En.wav,Speaker1,گوینده ۱,,,,,,,,,0,0,0,5,0,59,59,1,173.2625520419988,,,,,,,,,,,,,,,,,,,,,,,,,,,,,,,,,,,,,,,,,,,,,173.24165058399922,173.2625520419988,173.2625520419988,173.2625520419988,173.2625520419988,173.25751933366544,173.2625520419988,173.2625520419988,173.2631670840001,Correct! صحیح است,0,120,1,1.9901588339998852,None,173.2668628749998,173.2748742499989,175.26531841699943,175.2882046249997,,,132303,001,2024-07-01_19h01.45.474,5-26,2024.1.4,None,2024-07-01 19h01.50.427866 +0900,
Images/Speaker1.jpg,Images/Speaker2.jpg,Images/Speaker3.jpg,Images/Speaker4.jpg,Audio/Speaker2_En/P2-14-En.wav,Speaker2,گوینده۲,,,,,,,,,0,0,0,5,0,60,60,33,175.2882046249997,,,,,,,,,,,,,,,,,,,,,,,,,,,,,,,,,,,,,,,,,,,,,175.26609737499894,175.2882046249997,175.2882046249997,175.2882046249997,175.2882046249997,175.29787275033283,175.2882046249997,175.2882046249997,175.35979208400022,Incorrect! The correct answer is Speaker2. نادرست! پاسخ صحیح گوینده۲ است,0,122,1,0.060094791999290464,None,175.36408383399976,175.37728741699902,177.36627724999926,,,,132303,001,2024-07-01_19h01.45.474,5-26,2024.1.4,None,2024-07-01 19h01.50.427866 +0900,
Images/Speaker1.jpg,Images/Speaker2.jpg,Images/Speaker3.jpg,Images/Speaker4.jpg,Audio/Speaker4_En/P4-6-En.wav,Speaker4,گوینده۴,,,,,,,,,0,0,0,5,0,61,61,65,177.38692945899857,,,,,,,,,,,,,,,,,,,,,,,,,,,,,,,,,,,,,,,,,,,,,177.366472624999,177.38692945899857,177.38692945899857,177.38692945899857,177.38692945899857,177.38290875066585,177.38692945899857,177.38692945899857,177.64049533399884,Incorrect! The correct answer is Speaker4. نادرست! پاسخ صحیح گوینده۴ است,0,124,1,0.24160516699885193,None,177.64441395899848,177.6565806669987,179.63997674999882,179.66479995899863,,,132303,001,2024-07-01_19h01.45.474,5-26,2024.1.4,None,2024-07-01 19h01.50.427866 +0900,
Images/Speaker1.jpg,Images/Speaker2.jpg,Images/Speaker3.jpg,Images/Speaker4.jpg,Audio/Speaker3_En/P3-17-En.wav,Speaker3,گوینده۳,,,,,,,,,0,0,0,5,0,62,62,56,179.66479995899863,,,,,,,,,,,,,,,,,,,,,,,,,,,,,,,,,,,,,,,,,,,,,179.6401456249987,179.66479995899863,179.66479995899863,179.66479995899863,179.66479995899863,179.65638387566676,179.66479995899863,179.66479995899863,179.66543320900018,Incorrect! The correct answer is Speaker3. نادرست! پاسخ صحیح گوینده۳ است,0,126,1,2.25754891699944,None,179.66941574999873,179.67873933400006,181.6623342919993,181.6835678339994,,,132303,001,2024-07-01_19h01.45.474,5-26,2024.1.4,None,2024-07-01 19h01.50.427866 +0900,
Images/Speaker1.jpg,Images/Speaker2.jpg,Images/Speaker3.jpg,Images/Speaker4.jpg,Audio/Speaker1_En/P1-18-En.wav,Speaker1,گوینده ۱,,,,,,,,,0,0,0,5,0,63,63,17,181.6835678339994,,,,,,,,,,,,,,,,,,,,,,,,,,,,,,,,,,,,,,,,,,,,,181.66251470899988,181.6835678339994,181.6835678339994,181.6835678339994,181.6835678339994,181.67877504166634,181.6835678339994,181.6835678339994,181.91944999999942,Correct! صحیح است,0,128,1,0.23458095800015144,None,181.92333091699948,181.93328258399924,183.91662316699876,183.93738516699887,,,132303,001,2024-07-01_19h01.45.474,5-26,2024.1.4,None,2024-07-01 19h01.50.427866 +0900,
Images/Speaker1.jpg,Images/Speaker2.jpg,Images/Speaker3.jpg,Images/Speaker4.jpg,Audio/Speaker3_En/P3-3-En.wav,Speaker3,گوینده۳,,,,,,,,,0,0,0,5,0,64,64,42,183.93738516699887,,,,,,,,,,,,,,,,,,,,,,,,,,,,,,,,,,,,,,,,,,,,,183.91680816699954,183.93738516699887,183.93738516699887,183.93738516699887,183.93738516699887,183.93303670866615,183.93738516699887,183.93738516699887,184.0596779589996,Incorrect! The correct answer is Speaker3. نادرست! پاسخ صحیح گوینده۳ است,0,130,1,0.11642945799940208,None,184.06380787499984,184.07573970900012,186.05992074999995,186.082086041999,,,132303,001,2024-07-01_19h01.45.474,5-26,2024.1.4,None,2024-07-01 19h01.50.427866 +0900,
Images/Speaker1.jpg,Images/Speaker2.jpg,Images/Speaker3.jpg,Images/Speaker4.jpg,Audio/Speaker3_En/P3-6-En.wav,Speaker3,گوینده۳,,,,,,,,,0,0,0,5,0,65,65,45,186.082086041999,,,,,,,,,,,,,,,,,,,,,,,,,,,,,,,,,,,,,,,,,,,,,186.0607861669996,186.082086041999,186.082086041999,186.082086041999,186.082086041999,186.0757630836654,186.082086041999,186.082086041999,186.2775697500001,Incorrect! The correct answer is Speaker3. نادرست! پاسخ صحیح گوینده۳ است,0,132,1,0.18569087500145542,None,186.28164687499884,186.29198279199954,188.2780613750001,188.30260074999933,,,132303,001,2024-07-01_19h01.45.474,5-26,2024.1.4,None,2024-07-01 19h01.50.427866 +0900,
Images/Speaker1.jpg,Images/Speaker2.jpg,Images/Speaker3.jpg,Images/Speaker4.jpg,Audio/Speaker4_En/P4-14-En.wav,Speaker4,گوینده۴,,,,,,,,,0,0,0,5,0,66,66,73,188.30260074999933,,,,,,,,,,,,,,,,,,,,,,,,,,,,,,,,,,,,,,,,,,,,,188.2789395839991,188.30260074999933,188.30260074999933,188.30260074999933,188.30260074999933,188.31018387533237,188.30260074999933,188.30260074999933,188.37827841699982,Incorrect! The correct answer is Speaker4. نادرست! پاسخ صحیح گوینده۴ است,0,134,1,0.07329862499864248,None,188.38256770899898,188.39452033399903,190.37826045899965,190.39972245899844,,,132303,001,2024-07-01_19h01.45.474,5-26,2024.1.4,None,2024-07-01 19h01.50.427866 +0900,
Images/Speaker1.jpg,Images/Speaker2.jpg,Images/Speaker3.jpg,Images/Speaker4.jpg,Audio/Speaker1_En/P1-8-En.wav,Speaker1,گوینده ۱,,,,,,,,,0,0,0,5,0,67,67,7,190.39972245899844,,,,,,,,,,,,,,,,,,,,,,,,,,,,,,,,,,,,,,,,,,,,,190.37845574999847,190.39972245899844,190.39972245899844,190.39972245899844,190.39972245899844,190.39459112566536,190.39972245899844,190.39972245899844,190.53474983399974,Correct! صحیح است,0,136,1,0.12457650000033027,None,190.53883645899987,190.5496241669989,192.54034429199965,,,,132303,001,2024-07-01_19h01.45.474,5-26,2024.1.4,None,2024-07-01 19h01.50.427866 +0900,
Images/Speaker1.jpg,Images/Speaker2.jpg,Images/Speaker3.jpg,Images/Speaker4.jpg,Audio/Speaker4_En/P4-3-En.wav,Speaker4,گوینده۴,,,,,,,,,0,0,0,5,0,68,68,62,192.56149504199857,,,,,,,,,,,,,,,,,,,,,,,,,,,,,,,,,,,,,,,,,,,,,192.54049787499935,192.56149504199857,192.56149504199857,192.56149504199857,192.56149504199857,192.55697704166622,192.56149504199857,192.56149504199857,192.64965974999905,Incorrect! The correct answer is Speaker4. نادرست! پاسخ صحیح گوینده۴ است,0,138,1,0.07668399999965914,None,192.65385375000005,192.66637004199947,194.65041049999854,194.6711915420001,,,132303,001,2024-07-01_19h01.45.474,5-26,2024.1.4,None,2024-07-01 19h01.50.427866 +0900,
Images/Speaker1.jpg,Images/Speaker2.jpg,Images/Speaker3.jpg,Images/Speaker4.jpg,Audio/Speaker4_En/P4-16-En.wav,Speaker4,گوینده۴,,,,,,,,,0,0,0,5,0,69,69,75,194.6711915420001,,,,,,,,,,,,,,,,,,,,,,,,,,,,,,,,,,,,,,,,,,,,,194.6506202499986,194.6711915420001,194.6711915420001,194.6711915420001,194.6711915420001,194.66671987566613,194.6711915420001,194.6711915420001,194.7261321249989,Incorrect! The correct answer is Speaker4. نادرست! پاسخ صحیح گوینده۴ است,0,140,1,0.05266904199925193,None,194.73040087499976,194.74257208400013,196.73166729199875,,,,132303,001,2024-07-01_19h01.45.474,5-26,2024.1.4,None,2024-07-01 19h01.50.427866 +0900,
Images/Speaker1.jpg,Images/Speaker2.jpg,Images/Speaker3.jpg,Images/Speaker4.jpg,Audio/Speaker4_En/P4-20-En.wav,Speaker4,گوینده۴,,,,,,,,,0,0,0,5,0,70,70,79,196.75239837499976,,,,,,,,,,,,,,,,,,,,,,,,,,,,,,,,,,,,,,,,,,,,,196.7318336669996,196.75239837499976,196.75239837499976,196.75239837499976,196.75239837499976,196.74830083366604,196.75239837499976,196.75239837499976,196.8786126670002,Incorrect! The correct answer is Speaker4. نادرست! پاسخ صحیح گوینده۴ است,0,142,1,0.12446545800048625,None,196.88230504199964,196.89514624999902,198.8849539169987,,,,132303,001,2024-07-01_19h01.45.474,5-26,2024.1.4,None,2024-07-01 19h01.50.427866 +0900,
Images/Speaker1.jpg,Images/Speaker2.jpg,Images/Speaker3.jpg,Images/Speaker4.jpg,Audio/Speaker4_En/P4-4-En.wav,Speaker4,گوینده۴,,,,,,,,,0,0,0,5,0,71,71,63,198.9089920839997,,,,,,,,,,,,,,,,,,,,,,,,,,,,,,,,,,,,,,,,,,,,,198.88554837499942,198.9089920839997,198.9089920839997,198.9089920839997,198.9089920839997,198.91813391733245,198.9089920839997,198.9089920839997,199.00356266699964,Incorrect! The correct answer is Speaker4. نادرست! پاسخ صحیح گوینده۴ است,0,144,1,0.09175979199972062,None,199.00762779199977,199.02022995900006,201.00877104199935,201.03186637499857,,,132303,001,2024-07-01_19h01.45.474,5-26,2024.1.4,None,2024-07-01 19h01.50.427866 +0900,
Images/Speaker1.jpg,Images/Speaker2.jpg,Images/Speaker3.jpg,Images/Speaker4.jpg,Audio/Speaker1_En/P1-20-En.wav,Speaker1,گوینده ۱,,,,,,,,,0,0,0,5,0,72,72,19,201.03186637499857,,,,,,,,,,,,,,,,,,,,,,,,,,,,,,,,,,,,,,,,,,,,,201.00897058400005,201.03186637499857,201.03186637499857,201.03186637499857,201.03186637499857,201.0231183756662,201.03186637499857,201.03186637499857,201.03251441700013,Correct! صحیح است,0,146,1,2.0954034170008526,None,201.03668620899953,201.0451703339986,203.02850529199895,203.0495654589995,,,132303,001,2024-07-01_19h01.45.474,5-26,2024.1.4,None,2024-07-01 19h01.50.427866 +0900,
Images/Speaker1.jpg,Images/Speaker2.jpg,Images/Speaker3.jpg,Images/Speaker4.jpg,Audio/Speaker4_En/P4-8-En.wav,Speaker4,گوینده۴,,,,,,,,,0,0,0,5,0,73,73,67,203.0495654589995,,,,,,,,,,,,,,,,,,,,,,,,,,,,,,,,,,,,,,,,,,,,,203.02865487499912,203.0495654589995,203.0495654589995,203.0495654589995,203.0495654589995,203.04496416666578,203.0495654589995,203.0495654589995,203.21635524999874,Incorrect! The correct answer is Speaker4. نادرست! پاسخ صحیح گوینده۴ است,0,148,1,0.15753316699920106,None,203.22042004200011,203.2304132499994,205.21519920899846,205.23611866699866,,,132303,001,2024-07-01_19h01.45.474,5-26,2024.1.4,None,2024-07-01 19h01.50.427866 +0900,
Images/Speaker1.jpg,Images/Speaker2.jpg,Images/Speaker3.jpg,Images/Speaker4.jpg,Audio/Speaker3_En/P3-9-En.wav,Speaker3,گوینده۳,,,,,,,,,0,0,0,5,0,74,74,48,205.23611866699866,,,,,,,,,,,,,,,,,,,,,,,,,,,,,,,,,,,,,,,,,,,,,205.21537241700025,205.23611866699866,205.23611866699866,205.23611866699866,205.23611866699866,205.2316079586656,205.23611866699866,205.23611866699866,205.55028516699895,Incorrect! The correct answer is Speaker3. نادرست! پاسخ صحیح گوینده۳ است,0,150,1,0.3032227919993602,None,205.55425116699917,205.5676324169999,207.55900083399865,,,,132303,001,2024-07-01_19h01.45.474,5-26,2024.1.4,None,2024-07-01 19h01.50.427866 +0900,
Images/Speaker1.jpg,Images/Speaker2.jpg,Images/Speaker3.jpg,Images/Speaker4.jpg,Audio/Speaker4_En/P4-17-En.wav,Speaker4,گوینده۴,,,,,,,,,0,0,0,5,0,75,75,76,207.57927345899952,,,,,,,,,,,,,,,,,,,,,,,,,,,,,,,,,,,,,,,,,,,,,207.55916637500013,207.57927345899952,207.57927345899952,207.57927345899952,207.57927345899952,207.5756303756664,207.57927345899952,207.57927345899952,207.77410258399868,Incorrect! The correct answer is Speaker4. نادرست! پاسخ صحیح گوینده۴ است,0,152,1,0.18954745900009584,None,207.77798879199872,207.7909061249993,209.78467895899848,,,,132303,001,2024-07-01_19h01.45.474,5-26,2024.1.4,None,2024-07-01 19h01.50.427866 +0900,
Images/Speaker1.jpg,Images/Speaker2.jpg,Images/Speaker3.jpg,Images/Speaker4.jpg,Audio/Speaker4_En/P4-15-En.wav,Speaker4,گوینده۴,,,,,,,,,0,0,0,5,0,76,76,74,209.81091449999985,,,,,,,,,,,,,,,,,,,,,,,,,,,,,,,,,,,,,,,,,,,,,209.78525233399887,209.81091449999985,209.81091449999985,209.81091449999985,209.81091449999985,209.8178528753329,209.81091449999985,209.81091449999985,209.811598667,Incorrect! The correct answer is Speaker4. نادرست! پاسخ صحیح گوینده۴ است,0,154,1,2.189933708999888,None,209.81206891699912,209.82159404199956,211.8132079169991,,,,132303,001,2024-07-01_19h01.45.474,5-26,2024.1.4,None,2024-07-01 19h01.50.427866 +0900,
Images/Speaker1.jpg,Images/Speaker2.jpg,Images/Speaker3.jpg,Images/Speaker4.jpg,Audio/Speaker2_En/P2-5-En.wav,Speaker2,گوینده۲,,,,,,,,,0,0,0,5,0,77,77,24,211.83867391700005,,,,,,,,,,,,,,,,,,,,,,,,,,,,,,,,,,,,,,,,,,,,,211.81377270899975,211.83867391700005,211.83867391700005,211.83867391700005,211.83867391700005,211.8463998753328,211.83867391700005,211.83867391700005,212.01190074999977,Incorrect! The correct answer is Speaker2. نادرست! پاسخ صحیح گوینده۲ است,0,156,1,0.16142224999930477,None,212.01582316699933,212.02797924999868,214.01974833399981,,,,132303,001,2024-07-01_19h01.45.474,5-26,2024.1.4,None,2024-07-01 19h01.50.427866 +0900,
Images/Speaker1.jpg,Images/Speaker2.jpg,Images/Speaker3.jpg,Images/Speaker4.jpg,Audio/Speaker3_En/P3-16-En.wav,Speaker3,گوینده۳,,,,,,,,,0,0,0,5,0,78,78,55,214.04069754199918,,,,,,,,,,,,,,,,,,,,,,,,,,,,,,,,,,,,,,,,,,,,,214.01990641699922,214.04069754199918,214.04069754199918,214.04069754199918,214.04069754199918,214.0363815416661,214.04069754199918,214.04069754199918,214.04131704199972,Incorrect! The correct answer is Speaker3. نادرست! پاسخ صحیح گوینده۳ است,0,158,1,2.1535037079993344,None,214.0454865419997,214.05537566699968,216.04578112499985,216.06710820899934,,,132303,001,2024-07-01_19h01.45.474,5-26,2024.1.4,None,2024-07-01 19h01.50.427866 +0900,
Images/Speaker1.jpg,Images/Speaker2.jpg,Images/Speaker3.jpg,Images/Speaker4.jpg,Audio/Speaker3_En/P3-12-En.wav,Speaker3,گوینده۳,,,,,,,,,0,0,0,5,0,79,79,51,216.06710820899934,,,,,,,,,,,,,,,,,,,,,,,,,,,,,,,,,,,,,,,,,,,,,216.04626924999866,216.06710820899934,216.06710820899934,216.06710820899934,216.06710820899934,216.0614701666657,216.06710820899934,216.06710820899934,216.24486583399994,Incorrect! The correct answer is Speaker3. نادرست! پاسخ صحیح گوینده۳ است,0,160,1,0.17393370799982222,None,216.24866629200005,216.26119983399985,218.24482408399854,218.2839729999996,,,132303,001,2024-07-01_19h01.45.474,5-26,2024.1.4,None,2024-07-01 19h01.50.427866 +0900,
Images/Speaker1.jpg,Images/Speaker2.jpg,Images/Speaker3.jpg,Images/Speaker4.jpg,Audio/Speaker1_En/P1-6-En.wav,Speaker1,گوینده ۱,,,,,,,,,0,0,0,5,,,,,,,,,,,,,,,,,,,,,,,,,,,,,,,,,,,,,,,,,,,,,,,,,,,,,,,,,,,,,,,,,,,,,218.2449033339999,218.24506679200022,132303,001,2024-07-01_19h01.45.474,5-26,2024.1.4,None,2024-07-01 19h01.50.427866 +0900,
Images/Speaker1.jpg,Images/Speaker2.jpg,Images/Speaker3.jpg,Images/Speaker4.jpg,Audio/Speaker4_En/P4-6-En.wav,Speaker4,گوینده۴,,,,,,,,,0,1,1,6,0,0,0,65,218.2839729999996,,,,,,,,,,,,,,,,,,,,,,,,,,,,,,,,,,,,,,,,,,,,,218.26310454199847,218.2839729999996,218.2839729999996,218.2839729999996,218.2839729999996,218.2778770833325,218.2839729999996,218.2839729999996,218.59077266699933,Incorrect! The correct answer is Speaker4. نادرست! پاسخ صحیح گوینده۴ است,0,162,1,0.29525762500088604,None,218.59592487499867,218.60846095899979,220.60019887499948,,,,132303,001,2024-07-01_19h01.45.474,5-26,2024.1.4,None,2024-07-01 19h01.50.427866 +0900,
Images/Speaker1.jpg,Images/Speaker2.jpg,Images/Speaker3.jpg,Images/Speaker4.jpg,Audio/Speaker2_En/P2-5-En.wav,Speaker2,گوینده۲,,,,,,,,,0,1,1,6,0,1,1,24,220.62322858399966,,,,,,,,,,,,,,,,,,,,,,,,,,,,,,,,,,,,,,,,,,,,,220.60080208399995,220.62322858399966,220.62322858399966,220.62322858399966,220.62322858399966,220.63337770833328,220.62322858399966,220.62322858399966,221.583790708999,Incorrect! The correct answer is Speaker2. نادرست! پاسخ صحیح گوینده۲ است,0,164,1,0.9567031250007858,None,221.58775733399852,221.600572542,223.5843299169992,223.60533483399922,,,132303,001,2024-07-01_19h01.45.474,5-26,2024.1.4,None,2024-07-01 19h01.50.427866 +0900,
Images/Speaker1.jpg,Images/Speaker2.jpg,Images/Speaker3.jpg,Images/Speaker4.jpg,Audio/Speaker3_En/P3-17-En.wav,Speaker3,گوینده۳,,,,,,,,,0,1,1,6,0,2,2,56,223.60533483399922,,,,,,,,,,,,,,,,,,,,,,,,,,,,,,,,,,,,,,,,,,,,,223.58451645899913,223.60533483399922,223.60533483399922,223.60533483399922,223.60533483399922,223.60078525066663,223.60533483399922,223.60533483399922,224.2608842089994,Incorrect! The correct answer is Speaker3. نادرست! پاسخ صحیح گوینده۳ است,0,166,1,0.6456839170004969,None,224.26498841699868,224.2770406669988,226.26587562499844,,,,132303,001,2024-07-01_19h01.45.474,5-26,2024.1.4,None,2024-07-01 19h01.50.427866 +0900,
Images/Speaker1.jpg,Images/Speaker2.jpg,Images/Speaker3.jpg,Images/Speaker4.jpg,Audio/Speaker2_En/P2-3-En.wav,Speaker2,گوینده۲,,,,,,,,,0,1,1,6,0,3,3,22,226.28569520899873,,,,,,,,,,,,,,,,,,,,,,,,,,,,,,,,,,,,,,,,,,,,,226.26603749999958,226.28569520899873,226.28569520899873,226.28569520899873,226.28569520899873,226.2825109586668,226.28569520899873,226.28569520899873,227.09942149999915,Incorrect! The correct answer is Speaker2. نادرست! پاسخ صحیح گوینده۲ است,0,168,1,0.8056951250000566,None,227.10463558399897,227.11834970899872,229.1063750839985,,,,132303,001,2024-07-01_19h01.45.474,5-26,2024.1.4,None,2024-07-01 19h01.50.427866 +0900,
Images/Speaker1.jpg,Images/Speaker2.jpg,Images/Speaker3.jpg,Images/Speaker4.jpg,Audio/Speaker4_En/P4-3-En.wav,Speaker4,گوینده۴,,,,,,,,,0,1,1,6,0,4,4,62,229.1305857919997,,,,,,,,,,,,,,,,,,,,,,,,,,,,,,,,,,,,,,,,,,,,,229.10693866699876,229.1305857919997,229.1305857919997,229.1305857919997,229.1305857919997,229.13957166733286,229.1305857919997,229.1305857919997,229.50755516699974,Incorrect! The correct answer is Speaker4. نادرست! پاسخ صحیح گوینده۴ است,0,170,1,0.3739609999993263,None,229.511541459,229.5245027919991,231.51852329199937,,,,132303,001,2024-07-01_19h01.45.474,5-26,2024.1.4,None,2024-07-01 19h01.50.427866 +0900,
Images/Speaker1.jpg,Images/Speaker2.jpg,Images/Speaker3.jpg,Images/Speaker4.jpg,Audio/Speaker3_En/P3-19-En.wav,Speaker3,گوینده۳,,,,,,,,,0,1,1,6,0,5,5,58,231.54411599999912,,,,,,,,,,,,,,,,,,,,,,,,,,,,,,,,,,,,,,,,,,,,,231.51913958399928,231.54411599999912,231.54411599999912,231.54411599999912,231.54411599999912,231.5516874173323,231.54411599999912,231.54411599999912,231.9251403749986,Incorrect! The correct answer is Speaker3. نادرست! پاسخ صحیح گوینده۳ است,0,172,1,0.37489116600045236,None,231.93035987499934,231.94369570900017,233.9297603340001,233.95095241699892,,,132303,001,2024-07-01_19h01.45.474,5-26,2024.1.4,None,2024-07-01 19h01.50.427866 +0900,
Images/Speaker1.jpg,Images/Speaker2.jpg,Images/Speaker3.jpg,Images/Speaker4.jpg,Audio/Speaker2_En/P2-14-En.wav,Speaker2,گوینده۲,,,,,,,,,0,1,1,6,0,6,6,33,233.95095241699892,,,,,,,,,,,,,,,,,,,,,,,,,,,,,,,,,,,,,,,,,,,,,233.92991704199994,233.95095241699892,233.95095241699892,233.95095241699892,233.95095241699892,233.94616191666526,233.95095241699892,233.95095241699892,234.28680608399918,Incorrect! The correct answer is Speaker2. نادرست! پاسخ صحیح گوینده۲ است,0,174,1,0.3268062499992084,None,234.29065274999994,234.30120449999959,236.2924168339996,,,,132303,001,2024-07-01_19h01.45.474,5-26,2024.1.4,None,2024-07-01 19h01.50.427866 +0900,
Images/Speaker1.jpg,Images/Speaker2.jpg,Images/Speaker3.jpg,Images/Speaker4.jpg,Audio/Speaker2_En/P2-6-En.wav,Speaker2,گوینده۲,,,,,,,,,0,1,1,6,0,7,7,25,236.3135937499992,,,,,,,,,,,,,,,,,,,,,,,,,,,,,,,,,,,,,,,,,,,,,236.29258141699938,236.3135937499992,236.3135937499992,236.3135937499992,236.3135937499992,236.3090467086661,236.3135937499992,236.3135937499992,236.68300429199917,Incorrect! The correct answer is Speaker2. نادرست! پاسخ صحیح گوینده۲ است,0,176,1,0.3620332499995129,None,236.68720274999941,236.69980637499975,238.68702895899878,238.71051004199944,,,132303,001,2024-07-01_19h01.45.474,5-26,2024.1.4,None,2024-07-01 19h01.50.427866 +0900,
Images/Speaker1.jpg,Images/Speaker2.jpg,Images/Speaker3.jpg,Images/Speaker4.jpg,Audio/Speaker3_En/P3-12-En.wav,Speaker3,گوینده۳,,,,,,,,,0,1,1,6,0,8,8,51,238.71051004199944,,,,,,,,,,,,,,,,,,,,,,,,,,,,,,,,,,,,,,,,,,,,,238.6878646669993,238.71051004199944,238.71051004199944,238.71051004199944,238.71051004199944,238.71942345833355,238.71051004199944,238.71051004199944,238.98290808399906,Incorrect! The correct answer is Speaker3. نادرست! پاسخ صحیح گوینده۳ است,0,178,1,0.26530237500082876,None,238.98689329199988,238.99921720899874,240.9845110419992,241.00854612500007,,,132303,001,2024-07-01_19h01.45.474,5-26,2024.1.4,None,2024-07-01 19h01.50.427866 +0900,
Images/Speaker1.jpg,Images/Speaker2.jpg,Images/Speaker3.jpg,Images/Speaker4.jpg,Audio/Speaker2_En/P2-16-En.wav,Speaker2,گوینده۲,,,,,,,,,0,1,1,6,0,9,9,35,241.00854612500007,,,,,,,,,,,,,,,,,,,,,,,,,,,,,,,,,,,,,,,,,,,,,240.98526687499907,241.00854612500007,241.00854612500007,241.00854612500007,241.00854612500007,241.01689175033295,241.00854612500007,241.00854612500007,241.25076866699965,Incorrect! The correct answer is Speaker2. نادرست! پاسخ صحیح گوینده۲ است,0,180,1,0.23654050000004645,None,241.25564433399995,241.26950795899938,243.2665563749997,,,,132303,001,2024-07-01_19h01.45.474,5-26,2024.1.4,None,2024-07-01 19h01.50.427866 +0900,
Images/Speaker1.jpg,Images/Speaker2.jpg,Images/Speaker3.jpg,Images/Speaker4.jpg,Audio/Speaker4_En/P4-12-En.wav,Speaker4,گوینده۴,,,,,,,,,0,1,1,6,0,10,10,71,243.28953141700003,,,,,,,,,,,,,,,,,,,,,,,,,,,,,,,,,,,,,,,,,,,,,243.26717474999896,243.28953141700003,243.28953141700003,243.28953141700003,243.28953141700003,243.2830272916656,243.28953141700003,243.28953141700003,243.49822291700002,Incorrect! The correct answer is Speaker4. نادرست! پاسخ صحیح گوینده۴ است,0,182,1,0.20415566699921328,None,243.50252399999954,243.51508391700008,245.509977624999,,,,132303,001,2024-07-01_19h01.45.474,5-26,2024.1.4,None,2024-07-01 19h01.50.427866 +0900,
Images/Speaker1.jpg,Images/Speaker2.jpg,Images/Speaker3.jpg,Images/Speaker4.jpg,Audio/Speaker4_En/P4-17-En.wav,Speaker4,گوینده۴,,,,,,,,,0,1,1,6,0,11,11,76,245.53395666699907,,,,,,,,,,,,,,,,,,,,,,,,,,,,,,,,,,,,,,,,,,,,,245.51055295900005,245.53395666699907,245.53395666699907,245.53395666699907,245.53395666699907,245.5431525423324,245.53395666699907,245.53395666699907,245.7820364170002,Incorrect! The correct answer is Speaker4. نادرست! پاسخ صحیح گوینده۴ است,0,184,1,0.23568637499920442,None,245.78600274999917,245.79582008399848,247.78968712499955,,,,132303,001,2024-07-01_19h01.45.474,5-26,2024.1.4,None,2024-07-01 19h01.50.427866 +0900,
Images/Speaker1.jpg,Images/Speaker2.jpg,Images/Speaker3.jpg,Images/Speaker4.jpg,Audio/Speaker4_En/P4-16-En.wav,Speaker4,گوینده۴,,,,,,,,,0,1,1,6,0,12,12,75,247.81063729199923,,,,,,,,,,,,,,,,,,,,,,,,,,,,,,,,,,,,,,,,,,,,,247.78985329199895,247.81063729199923,247.81063729199923,247.81063729199923,247.81063729199923,247.80632208366686,247.81063729199923,247.81063729199923,248.0009877499997,Incorrect! The correct answer is Speaker4. نادرست! پاسخ صحیح گوینده۴ است,0,186,1,0.18462429200008046,None,248.00474108399976,248.01789029199972,250.0013947919997,250.0249751249994,,,132303,001,2024-07-01_19h01.45.474,5-26,2024.1.4,None,2024-07-01 19h01.50.427866 +0900,
Images/Speaker1.jpg,Images/Speaker2.jpg,Images/Speaker3.jpg,Images/Speaker4.jpg,Audio/Speaker1_En/P1-12-En.wav,Speaker1,گوینده ۱,,,,,,,,,0,1,1,6,0,13,13,11,250.0249751249994,,,,,,,,,,,,,,,,,,,,,,,,,,,,,,,,,,,,,,,,,,,,,250.00155449999875,250.0249751249994,250.0249751249994,250.0249751249994,250.0249751249994,250.01785633366515,250.0249751249994,250.0249751249994,250.0256454169994,Correct! صحیح است,0,188,1,2.1965061249993596,None,250.0297312499988,250.03769887499948,252.02340999999979,252.04474791699977,,,132303,001,2024-07-01_19h01.45.474,5-26,2024.1.4,None,2024-07-01 19h01.50.427866 +0900,
Images/Speaker1.jpg,Images/Speaker2.jpg,Images/Speaker3.jpg,Images/Speaker4.jpg,Audio/Speaker4_En/P4-1-En.wav,Speaker4,گوینده۴,,,,,,,,,0,1,1,6,0,14,14,60,252.04474791699977,,,,,,,,,,,,,,,,,,,,,,,,,,,,,,,,,,,,,,,,,,,,,252.02357366700016,252.04474791699977,252.04474791699977,252.04474791699977,252.04474791699977,252.03977754166615,252.04474791699977,252.04474791699977,252.21142191699983,Incorrect! The correct answer is Speaker4. نادرست! پاسخ صحیح گوینده۴ است,0,190,1,0.16164183299952128,None,252.21540262499911,252.22814854199896,254.21778124999946,,,,132303,001,2024-07-01_19h01.45.474,5-26,2024.1.4,None,2024-07-01 19h01.50.427866 +0900,
Images/Speaker1.jpg,Images/Speaker2.jpg,Images/Speaker3.jpg,Images/Speaker4.jpg,Audio/Speaker3_En/P3-11-En.wav,Speaker3,گوینده۳,,,,,,,,,0,1,1,6,0,15,15,50,254.2416209999992,,,,,,,,,,,,,,,,,,,,,,,,,,,,,,,,,,,,,,,,,,,,,254.21833654199872,254.2416209999992,254.2416209999992,254.2416209999992,254.2416209999992,254.25096700033333,254.2416209999992,254.2416209999992,254.4726243339992,Incorrect! The correct answer is Speaker3. نادرست! پاسخ صحیح گوینده۳ است,0,192,1,0.22958445899894286,None,254.4764559999985,254.49055749999934,256.4811181669993,,,,132303,001,2024-07-01_19h01.45.474,5-26,2024.1.4,None,2024-07-01 19h01.50.427866 +0900,
Images/Speaker1.jpg,Images/Speaker2.jpg,Images/Speaker3.jpg,Images/Speaker4.jpg,Audio/Speaker4_En/P4-11-En.wav,Speaker4,گوینده۴,,,,,,,,,0,1,1,6,0,16,16,70,256.502330542,,,,,,,,,,,,,,,,,,,,,,,,,,,,,,,,,,,,,,,,,,,,,256.4812811669999,256.502330542,256.502330542,256.502330542,256.502330542,256.4977531666666,256.502330542,256.502330542,256.6427989169988,Incorrect! The correct answer is Speaker4. نادرست! پاسخ صحیح گوینده۴ است,0,194,1,0.13138854199860361,None,256.64697374999923,256.6593475419995,258.64723145899916,,,,132303,001,2024-07-01_19h01.45.474,5-26,2024.1.4,None,2024-07-01 19h01.50.427866 +0900,
Images/Speaker1.jpg,Images/Speaker2.jpg,Images/Speaker3.jpg,Images/Speaker4.jpg,Audio/Speaker1_En/P1-20-En.wav,Speaker1,گوینده ۱,,,,,,,,,0,1,1,6,0,17,17,19,258.66844270899855,,,,,,,,,,,,,,,,,,,,,,,,,,,,,,,,,,,,,,,,,,,,,258.64739304199975,258.66844270899855,258.66844270899855,258.66844270899855,258.66844270899855,258.66386070866633,258.66844270899855,258.66844270899855,258.8415395840002,Correct! صحیح است,0,196,1,0.1615850420002971,None,258.8454189999993,258.85638129200015,260.8391362499988,260.8602539169988,,,132303,001,2024-07-01_19h01.45.474,5-26,2024.1.4,None,2024-07-01 19h01.50.427866 +0900,
Images/Speaker1.jpg,Images/Speaker2.jpg,Images/Speaker3.jpg,Images/Speaker4.jpg,Audio/Speaker1_En/P1-1-En.wav,Speaker1,گوینده ۱,,,,,,,,,0,1,1,6,0,18,18,0,260.8602539169988,,,,,,,,,,,,,,,,,,,,,,,,,,,,,,,,,,,,,,,,,,,,,260.8393020839994,260.8602539169988,260.8602539169988,260.8602539169988,260.8602539169988,260.8555210006655,260.8602539169988,260.8602539169988,261.06724012499944,Correct! صحیح است,0,198,1,0.20249299999886716,None,261.0710626250002,261.08277275,263.0659804169991,263.0889705419995,,,132303,001,2024-07-01_19h01.45.474,5-26,2024.1.4,None,2024-07-01 19h01.50.427866 +0900,
Images/Speaker1.jpg,Images/Speaker2.jpg,Images/Speaker3.jpg,Images/Speaker4.jpg,Audio/Speaker4_En/P4-15-En.wav,Speaker4,گوینده۴,,,,,,,,,0,1,1,6,0,19,19,74,263.0889705419995,,,,,,,,,,,,,,,,,,,,,,,,,,,,,,,,,,,,,,,,,,,,,263.0661377919987,263.0889705419995,263.0889705419995,263.0889705419995,263.0889705419995,263.09905504233257,263.0889705419995,263.0889705419995,263.253221125,Incorrect! The correct answer is Speaker4. نادرست! پاسخ صحیح گوینده۴ است,0,200,1,0.16074570800083166,None,263.25697404199855,263.27010404199973,265.2555852919995,265.2800744999986,,,132303,001,2024-07-01_19h01.45.474,5-26,2024.1.4,None,2024-07-01 19h01.50.427866 +0900,
Images/Speaker1.jpg,Images/Speaker2.jpg,Images/Speaker3.jpg,Images/Speaker4.jpg,Audio/Speaker1_En/P1-6-En.wav,Speaker1,گوینده ۱,,,,,,,,,0,1,1,6,0,20,20,5,265.2800744999986,,,,,,,,,,,,,,,,,,,,,,,,,,,,,,,,,,,,,,,,,,,,,265.25645720899956,265.2800744999986,265.2800744999986,265.2800744999986,265.2800744999986,265.2879886253327,265.2800744999986,265.2800744999986,265.92425933399863,Correct! صحیح است,0,202,1,0.6400747499992576,None,265.928612959,265.93978195899945,267.92795337499956,267.94977058399854,,,132303,001,2024-07-01_19h01.45.474,5-26,2024.1.4,None,2024-07-01 19h01.50.427866 +0900,
Images/Speaker1.jpg,Images/Speaker2.jpg,Images/Speaker3.jpg,Images/Speaker4.jpg,Audio/Speaker4_En/P4-5-En.wav,Speaker4,گوینده۴,,,,,,,,,0,1,1,6,0,21,21,64,267.94977058399854,,,,,,,,,,,,,,,,,,,,,,,,,,,,,,,,,,,,,,,,,,,,,267.92885616700005,267.94977058399854,267.94977058399854,267.94977058399854,267.94977058399854,267.960085958332,267.94977058399854,267.94977058399854,271.24919570899874,Correct! صحیح است,0,204,4,3.2965856669998175,None,271.2542050840002,271.2665746249986,273.2599640839999,,,,132303,001,2024-07-01_19h01.45.474,5-26,2024.1.4,None,2024-07-01 19h01.50.427866 +0900,
Images/Speaker1.jpg,Images/Speaker2.jpg,Images/Speaker3.jpg,Images/Speaker4.jpg,Audio/Speaker2_En/P2-20-En.wav,Speaker2,گوینده۲,,,,,,,,,0,1,1,6,0,22,22,39,273.2809380419985,,,,,,,,,,,,,,,,,,,,,,,,,,,,,,,,,,,,,,,,,,,,,273.2601302089988,273.2809380419985,273.2809380419985,273.2809380419985,273.2809380419985,273.2765952086668,273.2809380419985,273.2809380419985,274.4664266669988,Correct! صحیح است,0,206,2,1.1772314169993479,None,274.47051112499867,274.4789627499995,276.46828958399965,276.49426279199906,,,132303,001,2024-07-01_19h01.45.474,5-26,2024.1.4,None,2024-07-01 19h01.50.427866 +0900,
Images/Speaker1.jpg,Images/Speaker2.jpg,Images/Speaker3.jpg,Images/Speaker4.jpg,Audio/Speaker2_En/P2-13-En.wav,Speaker2,گوینده۲,,,,,,,,,0,1,1,6,0,23,23,32,276.49426279199906,,,,,,,,,,,,,,,,,,,,,,,,,,,,,,,,,,,,,,,,,,,,,276.4692352089987,276.49426279199906,276.49426279199906,276.49426279199906,276.49426279199906,276.50065104233227,276.49426279199906,276.49426279199906,277.81500391699956,Correct! صحیح است,0,208,2,1.3115723749997414,None,277.8191474589985,277.8274566250002,279.8149726669999,279.83589583399953,,,132303,001,2024-07-01_19h01.45.474,5-26,2024.1.4,None,2024-07-01 19h01.50.427866 +0900,
Images/Speaker1.jpg,Images/Speaker2.jpg,Images/Speaker3.jpg,Images/Speaker4.jpg,Audio/Speaker4_En/P4-10-En.wav,Speaker4,گوینده۴,,,,,,,,,0,1,1,6,0,24,24,69,279.83589583399953,,,,,,,,,,,,,,,,,,,,,,,,,,,,,,,,,,,,,,,,,,,,,279.81515274999947,279.83589583399953,279.83589583399953,279.83589583399953,279.83589583399953,279.8313460006668,279.83589583399953,279.83589583399953,296.07750495899927,Correct! صحیح است,0,210,4,16.232036999999764,None,296.0777785419996,296.08967216699966,298.0844156669991,,,,132303,001,2024-07-01_19h01.45.474,5-26,2024.1.4,None,2024-07-01 19h01.50.427866 +0900,
Images/Speaker1.jpg,Images/Speaker2.jpg,Images/Speaker3.jpg,Images/Speaker4.jpg,Audio/Speaker4_En/P4-2-En.wav,Speaker4,گوینده۴,,,,,,,,,0,1,1,6,0,25,25,61,298.1097292499999,,,,,,,,,,,,,,,,,,,,,,,,,,,,,,,,,,,,,,,,,,,,,298.08496995899986,298.1097292499999,298.1097292499999,298.1097292499999,298.1097292499999,298.11757433333196,298.1097292499999,298.1097292499999,301.032077124999,Correct! صحیح است,0,212,4,2.910270083000796,None,301.03597049999917,301.0469809999995,303.03364141699967,303.0543805420002,,,132303,001,2024-07-01_19h01.45.474,5-26,2024.1.4,None,2024-07-01 19h01.50.427866 +0900,
Images/Speaker1.jpg,Images/Speaker2.jpg,Images/Speaker3.jpg,Images/Speaker4.jpg,Audio/Speaker1_En/P1-17-En.wav,Speaker1,گوینده ۱,,,,,,,,,0,1,1,6,0,26,26,16,303.0543805420002,,,,,,,,,,,,,,,,,,,,,,,,,,,,,,,,,,,,,,,,,,,,,303.03381133399853,303.0543805420002,303.0543805420002,303.0543805420002,303.0543805420002,303.04996820866677,303.0543805420002,303.0543805420002,304.4156047919987,Correct! صحیح است,0,214,1,1.3519345420008904,None,304.4194778339988,304.431949374999,306.4272369999999,,,,132303,001,2024-07-01_19h01.45.474,5-26,2024.1.4,None,2024-07-01 19h01.50.427866 +0900,
Images/Speaker1.jpg,Images/Speaker2.jpg,Images/Speaker3.jpg,Images/Speaker4.jpg,Audio/Speaker3_En/P3-13-En.wav,Speaker3,گوینده۳,,,,,,,,,0,1,1,6,0,27,27,52,306.4519554589988,,,,,,,,,,,,,,,,,,,,,,,,,,,,,,,,,,,,,,,,,,,,,306.4278310419995,306.4519554589988,306.4519554589988,306.4519554589988,306.4519554589988,306.46041787533295,306.4519554589988,306.4519554589988,307.7658554999998,Correct! صحیح است,0,216,3,1.3073588749994087,None,307.7697551249985,307.7808259169997,309.76566329199886,309.7865575420001,,,132303,001,2024-07-01_19h01.45.474,5-26,2024.1.4,None,2024-07-01 19h01.50.427866 +0900,
Images/Speaker1.jpg,Images/Speaker2.jpg,Images/Speaker3.jpg,Images/Speaker4.jpg,Audio/Speaker2_En/P2-2-En.wav,Speaker2,گوینده۲,,,,,,,,,0,1,1,6,0,28,28,21,309.7865575420001,,,,,,,,,,,,,,,,,,,,,,,,,,,,,,,,,,,,,,,,,,,,,309.76585145899844,309.7865575420001,309.7865575420001,309.7865575420001,309.7865575420001,309.7820746256659,309.7865575420001,309.7865575420001,322.2242266249996,Correct! صحیح است,0,218,2,12.435512292000567,None,322.22444854199966,322.2353708339997,324.2216071249986,324.2442657499996,,,132303,001,2024-07-01_19h01.45.474,5-26,2024.1.4,None,2024-07-01 19h01.50.427866 +0900,
Images/Speaker1.jpg,Images/Speaker2.jpg,Images/Speaker3.jpg,Images/Speaker4.jpg,Audio/Speaker3_En/P3-2-En.wav,Speaker3,گوینده۳,,,,,,,,,0,1,1,6,0,29,29,41,324.2442657499996,,,,,,,,,,,,,,,,,,,,,,,,,,,,,,,,,,,,,,,,,,,,,324.2217899999996,324.2442657499996,324.2442657499996,324.2442657499996,324.2442657499996,324.23793904166655,324.2442657499996,324.2442657499996,326.07030795899846,Correct! صحیح است,0,220,3,1.8217531250011234,None,326.07421620899913,326.08602933399925,328.07469049999963,,,,132303,001,2024-07-01_19h01.45.474,5-26,2024.1.4,None,2024-07-01 19h01.50.427866 +0900,
Images/Speaker1.jpg,Images/Speaker2.jpg,Images/Speaker3.jpg,Images/Speaker4.jpg,Audio/Speaker2_En/P2-9-En.wav,Speaker2,گوینده۲,,,,,,,,,0,1,1,6,0,30,30,28,328.09539887499886,,,,,,,,,,,,,,,,,,,,,,,,,,,,,,,,,,,,,,,,,,,,,328.0749122090001,328.09539887499886,328.09539887499886,328.09539887499886,328.09539887499886,328.0913065006664,328.09539887499886,328.09539887499886,331.5098051249988,Correct! صحیح است,0,222,2,3.4085213750004186,None,331.5101115839989,331.5214862499997,333.5101675419992,333.5342232089988,,,132303,001,2024-07-01_19h01.45.474,5-26,2024.1.4,None,2024-07-01 19h01.50.427866 +0900,
Images/Speaker1.jpg,Images/Speaker2.jpg,Images/Speaker3.jpg,Images/Speaker4.jpg,Audio/Speaker3_En/P3-16-En.wav,Speaker3,گوینده۳,,,,,,,,,0,1,1,6,0,31,31,55,333.5342232089988,,,,,,,,,,,,,,,,,,,,,,,,,,,,,,,,,,,,,,,,,,,,,333.5111221669995,333.5342232089988,333.5342232089988,333.5342232089988,333.5342232089988,333.54243879233263,333.5342232089988,333.5342232089988,338.0965738750001,Correct! صحیح است,0,224,3,4.557607958000517,None,338.09679770899857,338.1082031669994,340.09549804199924,340.1176360419995,,,132303,001,2024-07-01_19h01.45.474,5-26,2024.1.4,None,2024-07-01 19h01.50.427866 +0900,
Images/Speaker1.jpg,Images/Speaker2.jpg,Images/Speaker3.jpg,Images/Speaker4.jpg,Audio/Speaker1_En/P1-19-En.wav,Speaker1,گوینده ۱,,,,,,,,,0,1,1,6,0,32,32,18,340.1176360419995,,,,,,,,,,,,,,,,,,,,,,,,,,,,,,,,,,,,,,,,,,,,,340.0956855839995,340.1176360419995,340.1176360419995,340.1176360419995,340.1176360419995,340.11185191666686,340.1176360419995,340.1176360419995,341.1375879589996,Correct! صحیح است,0,226,1,1.018925374999526,None,341.14176183400014,341.15317091699944,343.13971408399993,343.16097258399896,,,132303,001,2024-07-01_19h01.45.474,5-26,2024.1.4,None,2024-07-01 19h01.50.427866 +0900,
Images/Speaker1.jpg,Images/Speaker2.jpg,Images/Speaker3.jpg,Images/Speaker4.jpg,Audio/Speaker4_En/P4-8-En.wav,Speaker4,گوینده۴,,,,,,,,,0,1,1,6,0,33,33,67,343.16097258399896,,,,,,,,,,,,,,,,,,,,,,,,,,,,,,,,,,,,,,,,,,,,,343.1398901249995,343.16097258399896,343.16097258399896,343.16097258399896,343.16097258399896,343.1561400836656,343.16097258399896,343.16097258399896,344.99060237499907,Correct! صحیح است,0,228,4,1.8278205409988004,None,344.9946368339988,345.0052349999987,346.98995529199965,347.01185895900016,,,132303,001,2024-07-01_19h01.45.474,5-26,2024.1.4,None,2024-07-01 19h01.50.427866 +0900,
Images/Speaker1.jpg,Images/Speaker2.jpg,Images/Speaker3.jpg,Images/Speaker4.jpg,Audio/Speaker3_En/P3-10-En.wav,Speaker3,گوینده۳,,,,,,,,,0,1,1,6,0,34,34,49,347.01185895900016,,,,,,,,,,,,,,,,,,,,,,,,,,,,,,,,,,,,,,,,,,,,,346.9901568339992,347.01185895900016,347.01185895900016,347.01185895900016,347.01185895900016,347.0063150836652,347.01185895900016,347.01185895900016,348.65687999999864,Correct! صحیح است,0,230,3,1.635746541998742,None,348.66184933399927,348.6743351669993,350.6618462089991,350.686924874999,,,132303,001,2024-07-01_19h01.45.474,5-26,2024.1.4,None,2024-07-01 19h01.50.427866 +0900,
Images/Speaker1.jpg,Images/Speaker2.jpg,Images/Speaker3.jpg,Images/Speaker4.jpg,Audio/Speaker3_En/P3-7-En.wav,Speaker3,گوینده۳,,,,,,,,,0,1,1,6,0,35,35,46,350.686924874999,,,,,,,,,,,,,,,,,,,,,,,,,,,,,,,,,,,,,,,,,,,,,350.66282604200023,350.686924874999,350.686924874999,350.686924874999,350.686924874999,350.6940575833328,350.686924874999,350.686924874999,352.07858245900024,Correct! صحیح است,0,232,3,1.3889408329996513,None,352.08275887499985,352.09408104199974,354.078542792,354.09954941700016,,,132303,001,2024-07-01_19h01.45.474,5-26,2024.1.4,None,2024-07-01 19h01.50.427866 +0900,
Images/Speaker1.jpg,Images/Speaker2.jpg,Images/Speaker3.jpg,Images/Speaker4.jpg,Audio/Speaker1_En/P1-7-En.wav,Speaker1,گوینده ۱,,,,,,,,,0,1,1,6,0,36,36,6,354.09954941700016,,,,,,,,,,,,,,,,,,,,,,,,,,,,,,,,,,,,,,,,,,,,,354.0787039169991,354.09954941700016,354.09954941700016,354.09954941700016,354.09954941700016,354.09497695866617,354.09954941700016,354.09954941700016,355.17355337499976,Correct! صحیح است,0,234,1,1.0708710830003838,None,355.1774762919995,355.18885033399965,357.1738904590002,357.1963729170002,,,132303,001,2024-07-01_19h01.45.474,5-26,2024.1.4,None,2024-07-01 19h01.50.427866 +0900,
Images/Speaker1.jpg,Images/Speaker2.jpg,Images/Speaker3.jpg,Images/Speaker4.jpg,Audio/Speaker4_En/P4-4-En.wav,Speaker4,گوینده۴,,,,,,,,,0,1,1,6,0,37,37,63,357.1963729170002,,,,,,,,,,,,,,,,,,,,,,,,,,,,,,,,,,,,,,,,,,,,,357.1740613339989,357.1963729170002,357.1963729170002,357.1963729170002,357.1963729170002,357.1902810836657,357.1963729170002,357.1963729170002,359.52495020899914,Correct! صحیح است,0,236,4,2.3272131670000817,None,359.5290816249999,359.5406389589989,361.52419287500015,361.5453956249985,,,132303,001,2024-07-01_19h01.45.474,5-26,2024.1.4,None,2024-07-01 19h01.50.427866 +0900,
Images/Speaker1.jpg,Images/Speaker2.jpg,Images/Speaker3.jpg,Images/Speaker4.jpg,Audio/Speaker3_En/P3-6-En.wav,Speaker3,گوینده۳,,,,,,,,,0,1,1,6,0,38,38,45,361.5453956249985,,,,,,,,,,,,,,,,,,,,,,,,,,,,,,,,,,,,,,,,,,,,,361.5243557499998,361.5453956249985,361.5453956249985,361.5453956249985,361.5453956249985,361.54062820866625,361.5453956249985,361.5453956249985,363.6394171669999,Correct! صحیح است,0,238,3,2.0836866669997107,None,363.6434043749996,363.65464624999913,365.64299191699865,365.6655300000002,,,132303,001,2024-07-01_19h01.45.474,5-26,2024.1.4,None,2024-07-01 19h01.50.427866 +0900,
Images/Speaker1.jpg,Images/Speaker2.jpg,Images/Speaker3.jpg,Images/Speaker4.jpg,Audio/Speaker3_En/P3-9-En.wav,Speaker3,گوینده۳,,,,,,,,,0,1,1,6,0,39,39,48,365.6655300000002,,,,,,,,,,,,,,,,,,,,,,,,,,,,,,,,,,,,,,,,,,,,,365.6437902919988,365.6655300000002,365.6655300000002,365.6655300000002,365.6655300000002,365.6752173753325,365.6655300000002,365.6655300000002,367.6621009589999,Correct! صحیح است,0,240,3,1.9952766250007699,None,367.6662759589999,367.67820904200016,369.66331733399966,369.6868845839999,,,132303,001,2024-07-01_19h01.45.474,5-26,2024.1.4,None,2024-07-01 19h01.50.427866 +0900,
Images/Speaker1.jpg,Images/Speaker2.jpg,Images/Speaker3.jpg,Images/Speaker4.jpg,Audio/Speaker4_En/P4-9-En.wav,Speaker4,گوینده۴,,,,,,,,,0,1,1,6,0,40,40,68,369.6868845839999,,,,,,,,,,,,,,,,,,,,,,,,,,,,,,,,,,,,,,,,,,,,,369.6642075,369.6868845839999,369.6868845839999,369.6868845839999,369.6868845839999,369.6957191673323,369.6868845839999,369.6868845839999,371.5402974999997,Correct! صحیح است,0,242,4,1.8512229160005518,None,371.54444745899855,371.55609208399983,373.5426801249996,373.5648805419987,,,132303,001,2024-07-01_19h01.45.474,5-26,2024.1.4,None,2024-07-01 19h01.50.427866 +0900,
Images/Speaker1.jpg,Images/Speaker2.jpg,Images/Speaker3.jpg,Images/Speaker4.jpg,Audio/Speaker2_En/P2-7-En.wav,Speaker2,گوینده۲,,,,,,,,,0,1,1,6,0,41,41,26,373.5648805419987,,,,,,,,,,,,,,,,,,,,,,,,,,,,,,,,,,,,,,,,,,,,,373.5434527090001,373.5648805419987,373.5648805419987,373.5648805419987,373.5648805419987,373.5584344166657,373.5648805419987,373.5648805419987,374.7546801669996,Correct! صحیح است,0,244,2,1.186398083000313,None,374.7588023749995,374.7702829589998,376.75852320899867,376.7795744999985,,,132303,001,2024-07-01_19h01.45.474,5-26,2024.1.4,None,2024-07-01 19h01.50.427866 +0900,
Images/Speaker1.jpg,Images/Speaker2.jpg,Images/Speaker3.jpg,Images/Speaker4.jpg,Audio/Speaker3_En/P3-18-En.wav,Speaker3,گوینده۳,,,,,,,,,0,1,1,6,0,42,42,57,376.7795744999985,,,,,,,,,,,,,,,,,,,,,,,,,,,,,,,,,,,,,,,,,,,,,376.7586982920002,376.7795744999985,376.7795744999985,376.7795744999985,376.7795744999985,376.7748329586668,376.7795744999985,376.7795744999985,378.07199475000016,Correct! صحیح است,0,246,3,1.2847338339997805,None,378.0760399589999,378.0847995839995,380.07426529199984,380.0939154589996,,,132303,001,2024-07-01_19h01.45.474,5-26,2024.1.4,None,2024-07-01 19h01.50.427866 +0900,
Images/Speaker1.jpg,Images/Speaker2.jpg,Images/Speaker3.jpg,Images/Speaker4.jpg,Audio/Speaker2_En/P2-17-En.wav,Speaker2,گوینده۲,,,,,,,,,0,1,1,6,0,43,43,36,380.0939154589996,,,,,,,,,,,,,,,,,,,,,,,,,,,,,,,,,,,,,,,,,,,,,380.07443904199863,380.0939154589996,380.0939154589996,380.0939154589996,380.0939154589996,380.09069633366585,380.0939154589996,380.0939154589996,381.3733454590001,Correct! صحیح است,0,248,2,1.2725716669992835,None,381.3772738339994,381.3886672919998,383.3753179999985,383.39800537500014,,,132303,001,2024-07-01_19h01.45.474,5-26,2024.1.4,None,2024-07-01 19h01.50.427866 +0900,
Images/Speaker1.jpg,Images/Speaker2.jpg,Images/Speaker3.jpg,Images/Speaker4.jpg,Audio/Speaker4_En/P4-14-En.wav,Speaker4,گوینده۴,,,,,,,,,0,1,1,6,0,44,44,73,383.39800537500014,,,,,,,,,,,,,,,,,,,,,,,,,,,,,,,,,,,,,,,,,,,,,383.3754943749991,383.39800537500014,383.39800537500014,383.39800537500014,383.39800537500014,383.3916962916667,383.39800537500014,383.39800537500014,384.9491617089989,Correct! صحیح است,0,250,4,1.5440088329996797,None,384.95383975000004,384.9665602919995,386.95436166699983,,,,132303,001,2024-07-01_19h01.45.474,5-26,2024.1.4,None,2024-07-01 19h01.50.427866 +0900,
Images/Speaker1.jpg,Images/Speaker2.jpg,Images/Speaker3.jpg,Images/Speaker4.jpg,Audio/Speaker1_En/P1-4-En.wav,Speaker1,گوینده ۱,,,,,,,,,0,1,1,6,0,45,45,13,386.9763425839992,,,,,,,,,,,,,,,,,,,,,,,,,,,,,,,,,,,,,,,,,,,,,386.9545453339997,386.9763425839992,386.9763425839992,386.9763425839992,386.9763425839992,386.97097658366533,386.9763425839992,386.9763425839992,388.11546666699905,Correct! صحیح است,0,252,1,1.137373249999655,None,388.12038495900015,388.1323193749995,390.1191725839999,390.140957833999,,,132303,001,2024-07-01_19h01.45.474,5-26,2024.1.4,None,2024-07-01 19h01.50.427866 +0900,
Images/Speaker1.jpg,Images/Speaker2.jpg,Images/Speaker3.jpg,Images/Speaker4.jpg,Audio/Speaker2_En/P2-12-En.wav,Speaker2,گوینده۲,,,,,,,,,0,1,1,6,0,46,46,31,390.140957833999,,,,,,,,,,,,,,,,,,,,,,,,,,,,,,,,,,,,,,,,,,,,,390.1201388749996,390.140957833999,390.140957833999,390.140957833999,390.140957833999,390.15152062533207,390.140957833999,390.140957833999,391.700983834,Correct! صحیح است,0,254,2,1.5512140000009822,None,391.70486845899904,391.7163536249991,393.7026802089986,393.72583137499896,,,132303,001,2024-07-01_19h01.45.474,5-26,2024.1.4,None,2024-07-01 19h01.50.427866 +0900,
Images/Speaker1.jpg,Images/Speaker2.jpg,Images/Speaker3.jpg,Images/Speaker4.jpg,Audio/Speaker3_En/P3-4-En.wav,Speaker3,گوینده۳,,,,,,,,,0,1,1,6,0,47,47,43,393.72583137499896,,,,,,,,,,,,,,,,,,,,,,,,,,,,,,,,,,,,,,,,,,,,,393.7028686249996,393.72583137499896,393.72583137499896,393.72583137499896,393.72583137499896,393.7191401256662,393.72583137499896,393.72583137499896,399.49769633399956,Correct! صحیح است,0,256,3,5.761216625000088,None,399.49796541700016,399.50933587500003,401.50032495899904,,,,132303,001,2024-07-01_19h01.45.474,5-26,2024.1.4,None,2024-07-01 19h01.50.427866 +0900,
Images/Speaker1.jpg,Images/Speaker2.jpg,Images/Speaker3.jpg,Images/Speaker4.jpg,Audio/Speaker1_En/P1-8-En.wav,Speaker1,گوینده ۱,,,,,,,,,0,1,1,6,0,48,48,7,401.5251104170002,,,,,,,,,,,,,,,,,,,,,,,,,,,,,,,,,,,,,,,,,,,,,401.5008723339997,401.5251104170002,401.5251104170002,401.5251104170002,401.5251104170002,401.53352695833246,401.5251104170002,401.5251104170002,403.6144412499998,Correct! صحیح است,0,258,1,2.085270624998884,None,403.61829008399945,403.629509417,405.6248584169989,,,,132303,001,2024-07-01_19h01.45.474,5-26,2024.1.4,None,2024-07-01 19h01.50.427866 +0900,
Images/Speaker1.jpg,Images/Speaker2.jpg,Images/Speaker3.jpg,Images/Speaker4.jpg,Audio/Speaker1_En/P1-16-En.wav,Speaker1,گوینده ۱,,,,,,,,,0,1,1,6,0,49,49,15,405.648184624999,,,,,,,,,,,,,,,,,,,,,,,,,,,,,,,,,,,,,,,,,,,,,405.6254761250002,405.648184624999,405.648184624999,405.648184624999,405.648184624999,405.6579995423331,405.648184624999,405.648184624999,406.91339337499994,Correct! صحیح است,0,260,1,1.2641464170010295,None,406.9186274999993,406.9323063339998,408.9262459999991,,,,132303,001,2024-07-01_19h01.45.474,5-26,2024.1.4,None,2024-07-01 19h01.50.427866 +0900,
Images/Speaker1.jpg,Images/Speaker2.jpg,Images/Speaker3.jpg,Images/Speaker4.jpg,Audio/Speaker2_En/P2-4-En.wav,Speaker2,گوینده۲,,,,,,,,,0,1,1,6,0,50,50,23,408.9509092919998,,,,,,,,,,,,,,,,,,,,,,,,,,,,,,,,,,,,,,,,,,,,,408.9268611669995,408.9509092919998,408.9509092919998,408.9509092919998,408.9509092919998,408.9594207923333,408.9509092919998,408.9509092919998,410.48858541699883,Correct! صحیح است,0,262,2,1.5308092920004128,None,410.492696542,410.50155212499885,412.4867317499993,412.507858125,,,132303,001,2024-07-01_19h01.45.474,5-26,2024.1.4,None,2024-07-01 19h01.50.427866 +0900,
Images/Speaker1.jpg,Images/Speaker2.jpg,Images/Speaker3.jpg,Images/Speaker4.jpg,Audio/Speaker3_En/P3-3-En.wav,Speaker3,گوینده۳,,,,,,,,,0,1,1,6,0,51,51,42,412.507858125,,,,,,,,,,,,,,,,,,,,,,,,,,,,,,,,,,,,,,,,,,,,,412.48691787499956,412.507858125,412.507858125,412.507858125,412.507858125,412.5030572086655,412.507858125,412.507858125,413.9496146249985,Correct! صحیح است,0,264,3,1.43952120799986,None,413.9533464999986,413.96412574999886,415.9496115839993,415.9726368339998,,,132303,001,2024-07-01_19h01.45.474,5-26,2024.1.4,None,2024-07-01 19h01.50.427866 +0900,
Images/Speaker1.jpg,Images/Speaker2.jpg,Images/Speaker3.jpg,Images/Speaker4.jpg,Audio/Speaker1_En/P1-2-En.wav,Speaker1,گوینده ۱,,,,,,,,,0,1,1,6,0,52,52,1,415.9726368339998,,,,,,,,,,,,,,,,,,,,,,,,,,,,,,,,,,,,,,,,,,,,,415.95018654199885,415.9726368339998,415.9726368339998,415.9726368339998,415.9726368339998,415.98245704233204,415.9726368339998,415.9726368339998,416.9294401669995,Correct! صحیح است,0,266,1,0.9508677499998157,None,416.9334626250002,416.94470645899855,418.93334904199946,418.95447024999885,,,132303,001,2024-07-01_19h01.45.474,5-26,2024.1.4,None,2024-07-01 19h01.50.427866 +0900,
Images/Speaker1.jpg,Images/Speaker2.jpg,Images/Speaker3.jpg,Images/Speaker4.jpg,Audio/Speaker2_En/P2-15-En.wav,Speaker2,گوینده۲,,,,,,,,,0,1,1,6,0,53,53,34,418.95447024999885,,,,,,,,,,,,,,,,,,,,,,,,,,,,,,,,,,,,,,,,,,,,,418.93355466699904,418.95447024999885,418.95447024999885,418.95447024999885,418.95447024999885,418.949731916666,418.95447024999885,418.95447024999885,420.39913374999924,Correct! صحیح است,0,268,2,1.4420816250003554,None,420.4033438339993,420.41468879199965,422.40826633399956,,,,132303,001,2024-07-01_19h01.45.474,5-26,2024.1.4,None,2024-07-01 19h01.50.427866 +0900,
Images/Speaker1.jpg,Images/Speaker2.jpg,Images/Speaker3.jpg,Images/Speaker4.jpg,Audio/Speaker2_En/P2-18-En.wav,Speaker2,گوینده۲,,,,,,,,,0,1,1,6,0,54,54,37,422.4306222089999,,,,,,,,,,,,,,,,,,,,,,,,,,,,,,,,,,,,,,,,,,,,,422.40883874999963,422.4306222089999,422.4306222089999,422.4306222089999,422.4306222089999,422.4247401256655,422.4306222089999,422.4306222089999,424.29014720899977,Correct! صحیح است,0,270,2,1.8548290419985278,None,424.2943636250002,424.3058372919986,426.3004347919996,,,,132303,001,2024-07-01_19h01.45.474,5-26,2024.1.4,None,2024-07-01 19h01.50.427866 +0900,
Images/Speaker1.jpg,Images/Speaker2.jpg,Images/Speaker3.jpg,Images/Speaker4.jpg,Audio/Speaker1_En/P1-3-En.wav,Speaker1,گوینده ۱,,,,,,,,,0,1,1,6,0,55,55,2,426.32298945899856,,,,,,,,,,,,,,,,,,,,,,,,,,,,,,,,,,,,,,,,,,,,,426.3010289169997,426.32298945899856,426.32298945899856,426.32298945899856,426.32298945899856,426.31695266666634,426.32298945899856,426.32298945899856,427.5619956669998,Correct! صحیح است,0,272,1,1.2379921250012558,None,427.5662459999985,427.577453459,429.56544733400005,429.5881712089995,,,132303,001,2024-07-01_19h01.45.474,5-26,2024.1.4,None,2024-07-01 19h01.50.427866 +0900,
Images/Speaker1.jpg,Images/Speaker2.jpg,Images/Speaker3.jpg,Images/Speaker4.jpg,Audio/Speaker2_En/P2-8-En.wav,Speaker2,گوینده۲,,,,,,,,,0,1,1,6,0,56,56,27,429.5881712089995,,,,,,,,,,,,,,,,,,,,,,,,,,,,,,,,,,,,,,,,,,,,,429.56560699999864,429.5881712089995,429.5881712089995,429.5881712089995,429.5881712089995,429.5818087086666,429.5881712089995,429.5881712089995,431.0790892919995,Correct! صحیح است,0,274,2,1.4877076669999951,None,431.08349275,431.0947497500001,433.0796180420002,433.103907875,,,132303,001,2024-07-01_19h01.45.474,5-26,2024.1.4,None,2024-07-01 19h01.50.427866 +0900,
Images/Speaker1.jpg,Images/Speaker2.jpg,Images/Speaker3.jpg,Images/Speaker4.jpg,Audio/Speaker3_En/P3-14-En.wav,Speaker3,گوینده۳,,,,,,,,,0,1,1,6,0,57,57,53,433.103907875,,,,,,,,,,,,,,,,,,,,,,,,,,,,,,,,,,,,,,,,,,,,,433.08024079200004,433.103907875,433.103907875,433.103907875,433.103907875,433.11257608333335,433.103907875,433.103907875,434.2578382089996,Correct! صحیح است,0,276,3,1.1506025419985235,None,434.2616005839991,434.27312570899994,436.2562554999986,436.2769019999996,,,132303,001,2024-07-01_19h01.45.474,5-26,2024.1.4,None,2024-07-01 19h01.50.427866 +0900,
Images/Speaker1.jpg,Images/Speaker2.jpg,Images/Speaker3.jpg,Images/Speaker4.jpg,Audio/Speaker4_En/P4-20-En.wav,Speaker4,گوینده۴,,,,,,,,,0,1,1,6,0,58,58,79,436.2769019999996,,,,,,,,,,,,,,,,,,,,,,,,,,,,,,,,,,,,,,,,,,,,,436.2564629169992,436.2769019999996,436.2769019999996,436.2769019999996,436.2769019999996,436.2725933756667,436.2769019999996,436.2769019999996,437.13917199999923,Correct! صحیح است,0,278,4,0.849444958001186,None,437.144171083999,437.15496487499877,439.1442991669992,439.165339666999,,,132303,001,2024-07-01_19h01.45.474,5-26,2024.1.4,None,2024-07-01 19h01.50.427866 +0900,
Images/Speaker1.jpg,Images/Speaker2.jpg,Images/Speaker3.jpg,Images/Speaker4.jpg,Audio/Speaker2_En/P2-10-En.wav,Speaker2,گوینده۲,,,,,,,,,0,1,1,6,0,59,59,29,439.165339666999,,,,,,,,,,,,,,,,,,,,,,,,,,,,,,,,,,,,,,,,,,,,,439.1444778749992,439.165339666999,439.165339666999,439.165339666999,439.165339666999,439.16072662566535,439.165339666999,439.165339666999,440.3950395840002,Correct! صحیح است,0,280,2,1.2285670000001119,None,440.39880362499935,440.4120278339997,442.3993304169999,,,,132303,001,2024-07-01_19h01.45.474,5-26,2024.1.4,None,2024-07-01 19h01.50.427866 +0900,
Images/Speaker1.jpg,Images/Speaker2.jpg,Images/Speaker3.jpg,Images/Speaker4.jpg,Audio/Speaker3_En/P3-5-En.wav,Speaker3,گوینده۳,,,,,,,,,0,1,1,6,0,60,60,44,442.42068066699903,,,,,,,,,,,,,,,,,,,,,,,,,,,,,,,,,,,,,,,,,,,,,442.39949949999937,442.42068066699903,442.42068066699903,442.42068066699903,442.42068066699903,442.4159593756651,442.42068066699903,442.42068066699903,444.0786451669992,Correct! صحیح است,0,282,3,1.6531562090003717,None,444.08286416699957,444.093427709,446.0794232499993,446.10025708399917,,,132303,001,2024-07-01_19h01.45.474,5-26,2024.1.4,None,2024-07-01 19h01.50.427866 +0900,
Images/Speaker1.jpg,Images/Speaker2.jpg,Images/Speaker3.jpg,Images/Speaker4.jpg,Audio/Speaker3_En/P3-20-En.wav,Speaker3,گوینده۳,,,,,,,,,0,1,1,6,0,61,61,59,446.10025708399917,,,,,,,,,,,,,,,,,,,,,,,,,,,,,,,,,,,,,,,,,,,,,446.0795924590002,446.10025708399917,446.10025708399917,446.10025708399917,446.10025708399917,446.0957430836663,446.10025708399917,446.10025708399917,447.2639676250001,Correct! صحیح است,0,284,3,1.1568454999996902,None,447.2681376669989,447.2794163339986,449.2652393749995,449.2876159589996,,,132303,001,2024-07-01_19h01.45.474,5-26,2024.1.4,None,2024-07-01 19h01.50.427866 +0900,
Images/Speaker1.jpg,Images/Speaker2.jpg,Images/Speaker3.jpg,Images/Speaker4.jpg,Audio/Speaker1_En/P1-13-En.wav,Speaker1,گوینده ۱,,,,,,,,,0,1,1,6,0,62,62,12,449.2876159589996,,,,,,,,,,,,,,,,,,,,,,,,,,,,,,,,,,,,,,,,,,,,,449.2654146249988,449.2876159589996,449.2876159589996,449.2876159589996,449.2876159589996,449.28168416666654,449.2876159589996,449.2876159589996,450.6459285000001,Correct! صحیح است,0,286,1,1.3572086250005668,None,450.6496625419986,450.66067520899924,452.6498011249987,452.67162920899864,,,132303,001,2024-07-01_19h01.45.474,5-26,2024.1.4,None,2024-07-01 19h01.50.427866 +0900,
Images/Speaker1.jpg,Images/Speaker2.jpg,Images/Speaker3.jpg,Images/Speaker4.jpg,Audio/Speaker4_En/P4-19-En.wav,Speaker4,گوینده۴,,,,,,,,,0,1,1,6,0,63,63,78,452.67162920899864,,,,,,,,,,,,,,,,,,,,,,,,,,,,,,,,,,,,,,,,,,,,,452.650417208999,452.67162920899864,452.67162920899864,452.67162920899864,452.67162920899864,452.6652910006653,452.67162920899864,452.67162920899864,455.9329083749999,Correct! صحیح است,0,288,4,3.25049745799879,None,455.93314258399914,455.9445447500002,457.93253000000004,457.9529730839986,,,132303,001,2024-07-01_19h01.45.474,5-26,2024.1.4,None,2024-07-01 19h01.50.427866 +0900,
Images/Speaker1.jpg,Images/Speaker2.jpg,Images/Speaker3.jpg,Images/Speaker4.jpg,Audio/Speaker2_En/P2-19-En.wav,Speaker2,گوینده۲,,,,,,,,,0,1,1,6,0,64,64,38,457.9529730839986,,,,,,,,,,,,,,,,,,,,,,,,,,,,,,,,,,,,,,,,,,,,,457.93269599999985,457.9529730839986,457.9529730839986,457.9529730839986,457.9529730839986,457.9488825836654,457.9529730839986,457.9529730839986,459.1056237089997,Correct! صحیح است,0,290,2,1.151340042000811,None,459.1097831669995,459.1216633749991,461.1108545419993,461.1366965420002,,,132303,001,2024-07-01_19h01.45.474,5-26,2024.1.4,None,2024-07-01 19h01.50.427866 +0900,
Images/Speaker1.jpg,Images/Speaker2.jpg,Images/Speaker3.jpg,Images/Speaker4.jpg,Audio/Speaker1_En/P1-4-En.wav,Speaker1,گوینده ۱,,,,,,,,,0,1,1,6,0,65,65,3,461.1366965420002,,,,,,,,,,,,,,,,,,,,,,,,,,,,,,,,,,,,,,,,,,,,,461.11189995899986,461.1366965420002,461.1366965420002,461.1366965420002,461.1366965420002,461.14290641733214,461.1366965420002,461.1366965420002,462.520264458999,Correct! صحیح است,0,292,1,1.381370875000357,None,462.52420625000013,462.53539233399897,464.5267370419988,,,,132303,001,2024-07-01_19h01.45.474,5-26,2024.1.4,None,2024-07-01 19h01.50.427866 +0900,
Images/Speaker1.jpg,Images/Speaker2.jpg,Images/Speaker3.jpg,Images/Speaker4.jpg,Audio/Speaker1_En/P1-10-En.wav,Speaker1,گوینده ۱,,,,,,,,,0,1,1,6,0,66,66,9,464.5514167499987,,,,,,,,,,,,,,,,,,,,,,,,,,,,,,,,,,,,,,,,,,,,,464.5274002919996,464.5514167499987,464.5514167499987,464.5514167499987,464.5514167499987,464.55988962533274,464.5514167499987,464.5514167499987,465.75940883399926,Correct! صحیح است,0,294,1,1.2024893329999031,None,465.76357445899885,465.774676084,467.7607427089988,467.78427437499886,,,132303,001,2024-07-01_19h01.45.474,5-26,2024.1.4,None,2024-07-01 19h01.50.427866 +0900,
Images/Speaker1.jpg,Images/Speaker2.jpg,Images/Speaker3.jpg,Images/Speaker4.jpg,Audio/Speaker2_En/P2-11-En.wav,Speaker2,گوینده۲,,,,,,,,,0,1,1,6,0,67,67,30,467.78427437499886,,,,,,,,,,,,,,,,,,,,,,,,,,,,,,,,,,,,,,,,,,,,,467.7617976249985,467.78427437499886,467.78427437499886,467.78427437499886,467.78427437499886,467.7929871253332,467.78427437499886,467.78427437499886,468.8368709999995,Correct! صحیح است,0,296,2,1.0476078749998123,None,468.84111566699903,468.8522444169994,470.83533508399887,470.85761416700007,,,132303,001,2024-07-01_19h01.45.474,5-26,2024.1.4,None,2024-07-01 19h01.50.427866 +0900,
Images/Speaker1.jpg,Images/Speaker2.jpg,Images/Speaker3.jpg,Images/Speaker4.jpg,Audio/Speaker3_En/P3-1-En.wav,Speaker3,گوینده۳,,,,,,,,,0,1,1,6,0,68,68,40,470.85761416700007,,,,,,,,,,,,,,,,,,,,,,,,,,,,,,,,,,,,,,,,,,,,,470.83552958399923,470.85761416700007,470.85761416700007,470.85761416700007,470.85761416700007,470.8517781666653,470.85761416700007,470.85761416700007,473.27471049999986,Correct! صحیح است,0,298,3,2.412690167000619,None,473.27863495899874,473.28993416699996,475.2773490419986,475.3004768339997,,,132303,001,2024-07-01_19h01.45.474,5-26,2024.1.4,None,2024-07-01 19h01.50.427866 +0900,
Images/Speaker1.jpg,Images/Speaker2.jpg,Images/Speaker3.jpg,Images/Speaker4.jpg,Audio/Speaker4_En/P4-13-En.wav,Speaker4,گوینده۴,,,,,,,,,0,1,1,6,0,69,69,72,475.3004768339997,,,,,,,,,,,,,,,,,,,,,,,,,,,,,,,,,,,,,,,,,,,,,475.2782985419999,475.3004768339997,475.3004768339997,475.3004768339997,475.3004768339997,475.30964612533216,475.3004768339997,475.3004768339997,477.8736466249993,Correct! صحیح است,0,300,4,2.570933958000751,None,477.877436625,477.8888102919991,479.8762679169995,479.8980012920001,,,132303,001,2024-07-01_19h01.45.474,5-26,2024.1.4,None,2024-07-01 19h01.50.427866 +0900,
Images/Speaker1.jpg,Images/Speaker2.jpg,Images/Speaker3.jpg,Images/Speaker4.jpg,Audio/Speaker1_En/P1-15-En.wav,Speaker1,گوینده ۱,,,,,,,,,0,1,1,6,0,70,70,14,479.8980012920001,,,,,,,,,,,,,,,,,,,,,,,,,,,,,,,,,,,,,,,,,,,,,479.8764657920001,479.8980012920001,479.8980012920001,479.8980012920001,479.8980012920001,479.8925137916651,479.8980012920001,479.8980012920001,481.3185442089998,Correct! صحیح است,0,302,1,1.4108545839990256,None,481.3224373339999,481.33354566699927,483.31890441699943,483.3436523749988,,,132303,001,2024-07-01_19h01.45.474,5-26,2024.1.4,None,2024-07-01 19h01.50.427866 +0900,
Images/Speaker1.jpg,Images/Speaker2.jpg,Images/Speaker3.jpg,Images/Speaker4.jpg,Audio/Speaker3_En/P3-8-En.wav,Speaker3,گوینده۳,,,,,,,,,0,1,1,6,0,71,71,47,483.3436523749988,,,,,,,,,,,,,,,,,,,,,,,,,,,,,,,,,,,,,,,,,,,,,483.31987358399965,483.3436523749988,483.3436523749988,483.3436523749988,483.3436523749988,483.35121529233265,483.3436523749988,483.3436523749988,484.85060924999925,Correct! صحیح است,0,304,3,1.5016145839999808,None,484.85557179199895,484.86844849999943,486.8555527089993,486.8784399999986,,,132303,001,2024-07-01_19h01.45.474,5-26,2024.1.4,None,2024-07-01 19h01.50.427866 +0900,
Images/Speaker1.jpg,Images/Speaker2.jpg,Images/Speaker3.jpg,Images/Speaker4.jpg,Audio/Speaker3_En/P3-15-En.wav,Speaker3,گوینده۳,,,,,,,,,0,1,1,6,0,72,72,54,486.8784399999986,,,,,,,,,,,,,,,,,,,,,,,,,,,,,,,,,,,,,,,,,,,,,486.8557610839998,486.8784399999986,486.8784399999986,486.8784399999986,486.8784399999986,486.8718662086651,486.8784399999986,486.8784399999986,488.8718102089988,Correct! صحیح است,0,306,3,1.9841141249999055,None,488.8756029169999,488.88711595899986,490.87335924999934,490.89500987499923,,,132303,001,2024-07-01_19h01.45.474,5-26,2024.1.4,None,2024-07-01 19h01.50.427866 +0900,
Images/Speaker1.jpg,Images/Speaker2.jpg,Images/Speaker3.jpg,Images/Speaker4.jpg,Audio/Speaker4_En/P4-7-En.wav,Speaker4,گوینده۴,,,,,,,,,0,1,1,6,0,73,73,66,490.89500987499923,,,,,,,,,,,,,,,,,,,,,,,,,,,,,,,,,,,,,,,,,,,,,490.873561041999,490.89500987499923,490.89500987499923,490.89500987499923,490.89500987499923,490.8897927916662,490.89500987499923,490.89500987499923,492.3497060419995,Correct! صحیح است,0,308,4,1.4515127079994272,None,492.3540267919998,492.3665786249985,494.3586804589995,,,,132303,001,2024-07-01_19h01.45.474,5-26,2024.1.4,None,2024-07-01 19h01.50.427866 +0900,
Images/Speaker1.jpg,Images/Speaker2.jpg,Images/Speaker3.jpg,Images/Speaker4.jpg,Audio/Speaker1_En/P1-18-En.wav,Speaker1,گوینده ۱,,,,,,,,,0,1,1,6,0,74,74,17,494.37961854199966,,,,,,,,,,,,,,,,,,,,,,,,,,,,,,,,,,,,,,,,,,,,,494.3588984170001,494.37961854199966,494.37961854199966,494.37961854199966,494.37961854199966,494.3752849586656,494.37961854199966,494.37961854199966,495.4717987499989,Correct! صحیح است,0,310,1,1.0911180409984809,None,495.475613958999,495.4875044169985,497.4733857499996,497.4957317499993,,,132303,001,2024-07-01_19h01.45.474,5-26,2024.1.4,None,2024-07-01 19h01.50.427866 +0900,
Images/Speaker1.jpg,Images/Speaker2.jpg,Images/Speaker3.jpg,Images/Speaker4.jpg,Audio/Speaker1_En/P1-11-En.wav,Speaker1,گوینده ۱,,,,,,,,,0,1,1,6,0,75,75,10,497.4957317499993,,,,,,,,,,,,,,,,,,,,,,,,,,,,,,,,,,,,,,,,,,,,,497.47358633399926,497.4957317499993,497.4957317499993,497.4957317499993,497.4957317499993,497.48979579166576,497.4957317499993,497.4957317499993,498.6471866669999,Correct! صحیح است,0,312,1,1.1446487080011138,None,498.6519475419991,498.6650874169991,500.65189454199935,500.67335466700024,,,132303,001,2024-07-01_19h01.45.474,5-26,2024.1.4,None,2024-07-01 19h01.50.427866 +0900,
