SpeakerImage1,SpeakerImage2,SpeakerImage3,SpeakerImage4,TrainingSound,EnglishCorrectAnswer,PersianCorrectAnswer,repeated_TrainingLoopGroup1.thisRepN,repeated_TrainingLoopGroup1.thisTrialN,repeated_TrainingLoopGroup1.thisN,repeated_TrainingLoopGroup1.thisIndex,TrainingLoopGroup1.thisRepN,TrainingLoopGroup1.thisTrialN,TrainingLoopGroup1.thisN,TrainingLoopGroup1.thisIndex,thisRow.t,notes,trial.started,trial.stopped,GroupSelection.started,GroupInstructions.started,key_resp.started,GroupSelection.stopped,key_resp.keys,key_resp.rt,key_resp.duration,HeadphoneCheck.started,text_13.started,mouse.started,checkbox.started,HeadphoneCheck.stopped,mouse.x,mouse.y,mouse.leftButton,mouse.midButton,mouse.rightButton,mouse.time,mouse.clicked_name,Headphone_Used,Introduction.started,text_2.started,image.started,sound_8.started,text_4.started,text_2.stopped,image.stopped,text_4.stopped,image_7.started,sound_10.started,text_5.started,image_7.stopped,text_5.stopped,image_8.started,sound_12.started,text_6.started,image_8.stopped,text_6.stopped,image_9.started,sound_14.started,text_7.started,image_9.stopped,text_7.stopped,Introduction.stopped,Instructions.started,InstructionText.started,InstructionText.stopped,Instructions.stopped,InitializeExperiment.started,InitializeExperiment.stopped,TrainingGroup1.started,image_1.started,image_2.started,image_3.started,image_4.started,sound1.started,Instruction.started,ResponseKey.started,SessionNumberText.started,TrainingGroup1.stopped,feedbackText,correct_responses_group1,total_trials_group1,ResponseKey.keys,ResponseKey.rt,ResponseKey.duration,FeedbackRoutine1.started,FeedbackText.started,FeedbackText.stopped,FeedbackRoutine1.stopped,CheckAccuracy1.started,accuracy_group1,proceed_to_test,CheckAccuracy1.stopped,participant,session,date,expName,psychopyVersion,frameRate,expStart,
,,,,,,,,,,,,,,,,,0.008633083998574875,0.008997666998766363,,,,,,,,,,,,,,,,,,,,,,,,,,,,,,,,,,,,,,,,,,,,,,,,,,,,,,,,,,,,,,,,,,,,,,,,,,,137442,001,2024-08-01_15h12.03.036,5-34 ready-monolingual persian speaker,2024.1.5,None,2024-08-01 15h12.07.345613 +0900,
,,,,,,,,,,,,,,,,,,,0.00901583399536321,0.013396458998613525,0.013396458998613525,0.3776947499936796,1,0.32569004100514576,None,,,,,,,,,,,,,,,,,,,,,,,,,,,,,,,,,,,,,,,,,,,,,,,,,,,,,,,,,,,,,,,,,,,,137442,001,2024-08-01_15h12.03.036,5-34 ready-monolingual persian speaker,2024.1.5,None,2024-08-01 15h12.07.345613 +0900,
,,,,,,,,,,,,,,,,,,,,,,,,,,0.3777244589946349,0.38766137499624165,0.0001787919973139651,0.38766137499624165,1.4416942919997382,[-0.0835030549898167],[-0.04175152749490835],[1],[0],[0],[1.0633404160034843],[],False,,,,,,,,,,,,,,,,,,,,,,,,,,,,,,,,,,,,,,,,,,,,,,,,,,,,,,,137442,001,2024-08-01_15h12.03.036,5-34 ready-monolingual persian speaker,2024.1.5,None,2024-08-01 15h12.07.345613 +0900,
,,,,,,,,,,,,,,,,,,,,,,,,,,,,,,,,,,,,,,,1.4418550419941312,1.4827049169980455,6.436847666998801,6.444131416665429,6.436847666998801,6.479240999993635,14.432051041992963,14.432051041992963,14.432051041992963,14.442578166661649,14.432051041992963,22.42909229199722,22.42909229199722,22.435336083995935,22.445758958663887,22.435336083995935,30.4227663749989,30.4227663749989,30.448116833998938,30.45550770866636,30.448116833998938,38.43926904199907,38.43926904199907,38.43281816699891,,,,,,,,,,,,,,,,,,,,,,,,,,,,,,,137442,001,2024-08-01_15h12.03.036,5-34 ready-monolingual persian speaker,2024.1.5,None,2024-08-01 15h12.07.345613 +0900,
,,,,,,,,,,,,,,,,,,,,,,,,,,,,,,,,,,,,,,,,,,,,,,,,,,,,,,,,,,,,,,,38.43293804199493,38.43926904199907,39.50970545899327,39.424448666999524,,,,,,,,,,,,,,,,,,,,,,,,,,,137442,001,2024-08-01_15h12.03.036,5-34 ready-monolingual persian speaker,2024.1.5,None,2024-08-01 15h12.07.345613 +0900,
,,,,,,,,,,,,,,,,,,,,,,,,,,,,,,,,,,,,,,,,,,,,,,,,,,,,,,,,,,,,,,,,,,,39.42448370899365,39.42477008399874,,,,,,,,,,,,,,,,,,,,,,,,,137442,001,2024-08-01_15h12.03.036,5-34 ready-monolingual persian speaker,2024.1.5,None,2024-08-01 15h12.07.345613 +0900,
Images/Speaker1.jpg,Images/Speaker2.jpg,Images/Speaker3.jpg,Images/Speaker4.jpg,Audio/Speaker4_Per/P4-13-Per.wav,Speaker4,گوینده۴,0,0,0,21,0,0,0,72,39.50970545899327,,,,,,,,,,,,,,,,,,,,,,,,,,,,,,,,,,,,,,,,,,,,,,,,,,,,,,39.478155541997694,39.50970545899327,39.50970545899327,39.50970545899327,39.50970545899327,39.50697987532961,39.50970545899327,39.50970545899327,39.50970545899327,43.00117504199443,نادرست! پاسخ صحیح گوینده۴ است,0,1,2,3.4867832500021905,None,43.0015842089997,43.01487937499769,45.02375104199746,44.99807462499302,,,,,137442,001,2024-08-01_15h12.03.036,5-34 ready-monolingual persian speaker,2024.1.5,None,2024-08-01 15h12.07.345613 +0900,
Images/Speaker1.jpg,Images/Speaker2.jpg,Images/Speaker3.jpg,Images/Speaker4.jpg,Audio/Speaker1_Per/P1-16-Per.wav,Speaker1,گوینده ۱,0,0,0,21,0,1,1,15,45.02375104199746,,,,,,,,,,,,,,,,,,,,,,,,,,,,,,,,,,,,,,,,,,,,,,,,,,,,,,44.99825608399988,45.02375104199746,45.02375104199746,45.02375104199746,45.02375104199746,45.03119000032942,45.02375104199746,45.02375104199746,45.02375104199746,48.12843662499654,صحیح است,1,2,1,3.0984630419989116,None,48.12865570899885,48.13964570899407,50.14810195899918,50.12256804199569,,,,,137442,001,2024-08-01_15h12.03.036,5-34 ready-monolingual persian speaker,2024.1.5,None,2024-08-01 15h12.07.345613 +0900,
Images/Speaker1.jpg,Images/Speaker2.jpg,Images/Speaker3.jpg,Images/Speaker4.jpg,Audio/Speaker1_Per/P1-12-Per.wav,Speaker1,گوینده ۱,0,0,0,21,0,2,2,11,50.14810195899918,,,,,,,,,,,,,,,,,,,,,,,,,,,,,,,,,,,,,,,,,,,,,,,,,,,,,,50.12275045899878,50.14810195899918,50.14810195899918,50.14810195899918,50.14810195899918,50.15571879233224,50.14810195899918,50.14810195899918,50.14810195899918,53.65299087499443,صحیح است,2,3,1,3.5036169170052744,None,53.65320249999786,53.66902399999526,,55.65408858399314,,,,,137442,001,2024-08-01_15h12.03.036,5-34 ready-monolingual persian speaker,2024.1.5,None,2024-08-01 15h12.07.345613 +0900,
Images/Speaker1.jpg,Images/Speaker2.jpg,Images/Speaker3.jpg,Images/Speaker4.jpg,Audio/Speaker2_Per/P2-17-Per.wav,Speaker2,گوینده۲,0,0,0,21,0,3,3,36,55.67976554199413,,,,,,,,,,,,,,,,,,,,,,,,,,,,,,,,,,,,,,,,,,,,,,,,,,,,,,55.654290916994796,55.67976554199413,55.67976554199413,55.67976554199413,55.67976554199413,55.68735916732888,55.67976554199413,55.67976554199413,55.67976554199413,57.7285080839938,نادرست! پاسخ صحیح گوینده۲ است,2,4,1,2.0394778750051046,None,57.73264345899952,57.74412970899721,,59.73640662499383,,,,,137442,001,2024-08-01_15h12.03.036,5-34 ready-monolingual persian speaker,2024.1.5,None,2024-08-01 15h12.07.345613 +0900,
Images/Speaker1.jpg,Images/Speaker2.jpg,Images/Speaker3.jpg,Images/Speaker4.jpg,Audio/Speaker1_Per/P1-11-Per.wav,Speaker1,گوینده ۱,0,0,0,21,0,4,4,10,59.76276829199924,,,,,,,,,,,,,,,,,,,,,,,,,,,,,,,,,,,,,,,,,,,,,,,,,,,,,,59.736573791997216,59.76276829199924,59.76276829199924,59.76276829199924,59.76276829199924,59.76969658333158,59.76276829199924,59.76276829199924,59.76276829199924,60.187192458994105,صحیح است,3,5,1,0.42033333300059894,None,60.19107654199615,60.20195262499328,62.21310945899313,62.18625199999951,,,,,137442,001,2024-08-01_15h12.03.036,5-34 ready-monolingual persian speaker,2024.1.5,None,2024-08-01 15h12.07.345613 +0900,
Images/Speaker1.jpg,Images/Speaker2.jpg,Images/Speaker3.jpg,Images/Speaker4.jpg,Audio/Speaker1_Per/P1-6-Per.wav,Speaker1,گوینده ۱,0,0,0,21,0,5,5,5,62.21310945899313,,,,,,,,,,,,,,,,,,,,,,,,,,,,,,,,,,,,,,,,,,,,,,,,,,,,,,62.18642158399598,62.21310945899313,62.21310945899313,62.21310945899313,62.21310945899313,62.21932966732905,62.21310945899313,62.21310945899313,62.21310945899313,62.415969833993586,صحیح است,4,6,1,0.20124279099400155,None,62.42010204199323,62.43043112499436,,64.4219227499998,,,,,137442,001,2024-08-01_15h12.03.036,5-34 ready-monolingual persian speaker,2024.1.5,None,2024-08-01 15h12.07.345613 +0900,
Images/Speaker1.jpg,Images/Speaker2.jpg,Images/Speaker3.jpg,Images/Speaker4.jpg,Audio/Speaker1_Per/P1-3-Per.wav,Speaker1,گوینده ۱,0,0,0,21,0,6,6,2,64.45097108399932,,,,,,,,,,,,,,,,,,,,,,,,,,,,,,,,,,,,,,,,,,,,,,,,,,,,,,64.42251833399496,64.45097108399932,64.45097108399932,64.45097108399932,64.45097108399932,64.45510183333002,64.45097108399932,64.45097108399932,64.45097108399932,64.50269837499945,صحیح است,5,7,1,0.047235666999768,None,64.50704133399995,64.51780104199861,66.53094470899669,66.50459024999873,,,,,137442,001,2024-08-01_15h12.03.036,5-34 ready-monolingual persian speaker,2024.1.5,None,2024-08-01 15h12.07.345613 +0900,
Images/Speaker1.jpg,Images/Speaker2.jpg,Images/Speaker3.jpg,Images/Speaker4.jpg,Audio/Speaker4_Per/P4-14-Per.wav,Speaker4,گوینده۴,0,0,0,21,0,7,7,73,66.53094470899669,,,,,,,,,,,,,,,,,,,,,,,,,,,,,,,,,,,,,,,,,,,,,,,,,,,,,,66.50479699999414,66.53094470899669,66.53094470899669,66.53094470899669,66.53094470899669,66.53762279232663,66.53094470899669,66.53094470899669,66.53094470899669,66.84074712499569,نادرست! پاسخ صحیح گوینده۴ است,5,8,1,0.30495112500648247,None,66.8445501669994,66.85567912499391,68.86618524999358,68.83877779199975,,,,,137442,001,2024-08-01_15h12.03.036,5-34 ready-monolingual persian speaker,2024.1.5,None,2024-08-01 15h12.07.345613 +0900,
Images/Speaker1.jpg,Images/Speaker2.jpg,Images/Speaker3.jpg,Images/Speaker4.jpg,Audio/Speaker3_Per/P3-11-Per.wav,Speaker3,گوینده۳,0,0,0,21,0,8,8,50,68.86618524999358,,,,,,,,,,,,,,,,,,,,,,,,,,,,,,,,,,,,,,,,,,,,,,,,,,,,,,68.83895320899319,68.86618524999358,68.86618524999358,68.86618524999358,68.86618524999358,68.87188908332658,68.86618524999358,68.86618524999358,68.86618524999358,69.09285574999376,نادرست! پاسخ صحیح گوینده۳ است,5,9,1,0.21890412500215461,None,69.09704516700003,69.1062971249994,71.12437687499914,71.09633895899606,,,,,137442,001,2024-08-01_15h12.03.036,5-34 ready-monolingual persian speaker,2024.1.5,None,2024-08-01 15h12.07.345613 +0900,
Images/Speaker1.jpg,Images/Speaker2.jpg,Images/Speaker3.jpg,Images/Speaker4.jpg,Audio/Speaker2_Per/P2-18-Per.wav,Speaker2,گوینده۲,0,0,0,21,0,9,9,37,71.12437687499914,,,,,,,,,,,,,,,,,,,,,,,,,,,,,,,,,,,,,,,,,,,,,,,,,,,,,,71.09709791699424,71.12437687499914,71.12437687499914,71.12437687499914,71.12437687499914,71.12882237532952,71.12437687499914,71.12437687499914,71.12437687499914,71.2759332919959,نادرست! پاسخ صحیح گوینده۲ است,5,10,1,0.14824054099881323,None,71.27986216699355,71.2912319169991,73.30550320899783,73.27640758399502,,,,,137442,001,2024-08-01_15h12.03.036,5-34 ready-monolingual persian speaker,2024.1.5,None,2024-08-01 15h12.07.345613 +0900,
Images/Speaker1.jpg,Images/Speaker2.jpg,Images/Speaker3.jpg,Images/Speaker4.jpg,Audio/Speaker2_Per/P2-2-Per.wav,Speaker2,گوینده۲,0,0,0,21,0,10,10,21,73.30550320899783,,,,,,,,,,,,,,,,,,,,,,,,,,,,,,,,,,,,,,,,,,,,,,,,,,,,,,73.27660699999979,73.30550320899783,73.30550320899783,73.30550320899783,73.30550320899783,73.30946475033173,73.30550320899783,73.30550320899783,73.30550320899783,73.32739999999467,نادرست! پاسخ صحیح گوینده۲ است,5,11,1,0.012419541999406647,None,73.33115354199981,73.34005270899797,75.35921904199495,75.33098116699693,,,,,137442,001,2024-08-01_15h12.03.036,5-34 ready-monolingual persian speaker,2024.1.5,None,2024-08-01 15h12.07.345613 +0900,
Images/Speaker1.jpg,Images/Speaker2.jpg,Images/Speaker3.jpg,Images/Speaker4.jpg,Audio/Speaker2_Per/P2-11-Per.wav,Speaker2,گوینده۲,0,0,0,21,0,11,11,30,75.35921904199495,,,,,,,,,,,,,,,,,,,,,,,,,,,,,,,,,,,,,,,,,,,,,,,,,,,,,,75.3318683749967,75.35921904199495,75.35921904199495,75.35921904199495,75.35921904199495,75.36340175032868,75.35921904199495,75.35921904199495,75.35921904199495,75.50954741699388,نادرست! پاسخ صحیح گوینده۲ است,5,12,1,0.14300929199816892,None,75.51345295899955,75.52507137499924,77.5348337089963,77.5095727089938,,,,,137442,001,2024-08-01_15h12.03.036,5-34 ready-monolingual persian speaker,2024.1.5,None,2024-08-01 15h12.07.345613 +0900,
Images/Speaker1.jpg,Images/Speaker2.jpg,Images/Speaker3.jpg,Images/Speaker4.jpg,Audio/Speaker2_Per/P2-1-Per.wav,Speaker2,گوینده۲,0,0,0,21,0,12,12,20,77.5348337089963,,,,,,,,,,,,,,,,,,,,,,,,,,,,,,,,,,,,,,,,,,,,,,,,,,,,,,77.50974841699644,77.5348337089963,77.5348337089963,77.5348337089963,77.5348337089963,77.54269075032838,77.5348337089963,77.5348337089963,77.5348337089963,77.69109924999793,نادرست! پاسخ صحیح گوینده۲ است,5,13,1,0.15341929100395646,None,77.69488770899625,77.70584691699332,79.71985258399945,79.69410804200015,,,,,137442,001,2024-08-01_15h12.03.036,5-34 ready-monolingual persian speaker,2024.1.5,None,2024-08-01 15h12.07.345613 +0900,
Images/Speaker1.jpg,Images/Speaker2.jpg,Images/Speaker3.jpg,Images/Speaker4.jpg,Audio/Speaker3_Per/P3-14-Per.wav,Speaker3,گوینده۳,0,0,0,21,0,13,13,53,79.71985258399945,,,,,,,,,,,,,,,,,,,,,,,,,,,,,,,,,,,,,,,,,,,,,,,,,,,,,,79.69427291699685,79.71985258399945,79.71985258399945,79.71985258399945,79.71985258399945,79.72720433332918,79.71985258399945,79.71985258399945,79.71985258399945,79.8191633749957,نادرست! پاسخ صحیح گوینده۳ است,5,14,1,0.09072454199485946,None,79.82339270899683,79.83223916699353,81.84272062499804,81.81786158399336,,,,,137442,001,2024-08-01_15h12.03.036,5-34 ready-monolingual persian speaker,2024.1.5,None,2024-08-01 15h12.07.345613 +0900,
Images/Speaker1.jpg,Images/Speaker2.jpg,Images/Speaker3.jpg,Images/Speaker4.jpg,Audio/Speaker1_Per/P1-5-Per.wav,Speaker1,گوینده ۱,0,0,0,21,0,14,14,4,81.84272062499804,,,,,,,,,,,,,,,,,,,,,,,,,,,,,,,,,,,,,,,,,,,,,,,,,,,,,,81.81804424999427,81.84272062499804,81.84272062499804,81.84272062499804,81.84272062499804,81.8509793333292,81.84272062499804,81.84272062499804,81.84272062499804,81.90872837499774,صحیح است,6,15,1,0.06300787499640137,None,81.91271604199574,81.9225009169968,83.93735020899476,83.91010349999851,,,,,137442,001,2024-08-01_15h12.03.036,5-34 ready-monolingual persian speaker,2024.1.5,None,2024-08-01 15h12.07.345613 +0900,
Images/Speaker1.jpg,Images/Speaker2.jpg,Images/Speaker3.jpg,Images/Speaker4.jpg,Audio/Speaker1_Per/P1-9-Per.wav,Speaker1,گوینده ۱,0,0,0,21,0,15,15,8,83.93735020899476,,,,,,,,,,,,,,,,,,,,,,,,,,,,,,,,,,,,,,,,,,,,,,,,,,,,,,83.91027870899416,83.93735020899476,83.93735020899476,83.93735020899476,83.93735020899476,83.94314675033141,83.93735020899476,83.93735020899476,83.93735020899476,84.22483383399958,صحیح است,7,16,1,0.2850901249985327,None,84.2286748339975,84.23905945899605,86.2518284589969,86.22765375000017,,,,,137442,001,2024-08-01_15h12.03.036,5-34 ready-monolingual persian speaker,2024.1.5,None,2024-08-01 15h12.07.345613 +0900,
Images/Speaker1.jpg,Images/Speaker2.jpg,Images/Speaker3.jpg,Images/Speaker4.jpg,Audio/Speaker4_Per/P4-5-Per.wav,Speaker4,گوینده۴,0,0,0,21,0,16,16,64,86.2518284589969,,,,,,,,,,,,,,,,,,,,,,,,,,,,,,,,,,,,,,,,,,,,,,,,,,,,,,86.2278150419952,86.2518284589969,86.2518284589969,86.2518284589969,86.2518284589969,86.26074395833032,86.2518284589969,86.2518284589969,86.2518284589969,86.5101695839985,نادرست! پاسخ صحیح گوینده۴ است,7,17,1,0.24859320799441775,None,86.51396508399921,86.52559608399315,88.53556099999696,88.50979162499425,,,,,137442,001,2024-08-01_15h12.03.036,5-34 ready-monolingual persian speaker,2024.1.5,None,2024-08-01 15h12.07.345613 +0900,
Images/Speaker1.jpg,Images/Speaker2.jpg,Images/Speaker3.jpg,Images/Speaker4.jpg,Audio/Speaker3_Per/P3-13-Per.wav,Speaker3,گوینده۳,0,0,0,21,0,17,17,52,88.53556099999696,,,,,,,,,,,,,,,,,,,,,,,,,,,,,,,,,,,,,,,,,,,,,,,,,,,,,,88.50996699999814,88.53556099999696,88.53556099999696,88.53556099999696,88.53556099999696,88.54292037533062,88.53556099999696,88.53556099999696,88.53556099999696,88.63743320899812,نادرست! پاسخ صحیح گوینده۳ است,7,18,1,0.09831095800473122,None,88.64118566699472,88.65235004199349,,90.64699658399331,,,,,137442,001,2024-08-01_15h12.03.036,5-34 ready-monolingual persian speaker,2024.1.5,None,2024-08-01 15h12.07.345613 +0900,
Images/Speaker1.jpg,Images/Speaker2.jpg,Images/Speaker3.jpg,Images/Speaker4.jpg,Audio/Speaker4_Per/P4-1-Per.wav,Speaker4,گوینده۴,0,0,0,21,0,18,18,60,90.67529674999969,,,,,,,,,,,,,,,,,,,,,,,,,,,,,,,,,,,,,,,,,,,,,,,,,,,,,,90.64754579199507,90.67529674999969,90.67529674999969,90.67529674999969,90.67529674999969,90.6801926673293,90.67529674999969,90.67529674999969,90.67529674999969,90.69262633399921,نادرست! پاسخ صحیح گوینده۴ است,7,19,1,0.01263325000036275,None,90.69651745899318,90.70710579199658,,92.70505937499547,,,,,137442,001,2024-08-01_15h12.03.036,5-34 ready-monolingual persian speaker,2024.1.5,None,2024-08-01 15h12.07.345613 +0900,
Images/Speaker1.jpg,Images/Speaker2.jpg,Images/Speaker3.jpg,Images/Speaker4.jpg,Audio/Speaker3_Per/P3-19-Per.wav,Speaker3,گوینده۳,0,0,0,21,0,19,19,58,92.73258795899892,,,,,,,,,,,,,,,,,,,,,,,,,,,,,,,,,,,,,,,,,,,,,,,,,,,,,,92.705596916996,92.73258795899892,92.73258795899892,92.73258795899892,92.73258795899892,92.73824016733172,92.73258795899892,92.73258795899892,92.73258795899892,93.02150758399512,نادرست! پاسخ صحیح گوینده۳ است,7,20,1,0.28694079099659575,None,93.02550904199597,93.03684033399622,,95.02884224999434,,,,,137442,001,2024-08-01_15h12.03.036,5-34 ready-monolingual persian speaker,2024.1.5,None,2024-08-01 15h12.07.345613 +0900,
Images/Speaker1.jpg,Images/Speaker2.jpg,Images/Speaker3.jpg,Images/Speaker4.jpg,Audio/Speaker4_Per/P4-7-Per.wav,Speaker4,گوینده۴,0,0,0,21,0,20,20,66,95.0536851249999,,,,,,,,,,,,,,,,,,,,,,,,,,,,,,,,,,,,,,,,,,,,,,,,,,,,,,95.0290225839999,95.0536851249999,95.0536851249999,95.0536851249999,95.0536851249999,95.06213958333004,95.0536851249999,95.0536851249999,95.0536851249999,95.23289158399712,نادرست! پاسخ صحیح گوینده۴ است,7,21,1,0.1767851660042652,None,95.2371512499958,95.24841637499776,97.25798495899653,97.23479366699758,,,,,137442,001,2024-08-01_15h12.03.036,5-34 ready-monolingual persian speaker,2024.1.5,None,2024-08-01 15h12.07.345613 +0900,
Images/Speaker1.jpg,Images/Speaker2.jpg,Images/Speaker3.jpg,Images/Speaker4.jpg,Audio/Speaker4_Per/P4-12-Per.wav,Speaker4,گوینده۴,0,0,0,21,0,21,21,71,97.25798495899653,,,,,,,,,,,,,,,,,,,,,,,,,,,,,,,,,,,,,,,,,,,,,,,,,,,,,,97.23495383399859,97.25798495899653,97.25798495899653,97.25798495899653,97.25798495899653,97.26788158332832,97.25798495899653,97.25798495899653,97.25798495899653,97.44450058399525,نادرست! پاسخ صحیح گوینده۴ است,7,22,1,0.1854719999973895,None,97.44846379199589,97.45962504199997,99.47533237499738,99.44811487499828,,,,,137442,001,2024-08-01_15h12.03.036,5-34 ready-monolingual persian speaker,2024.1.5,None,2024-08-01 15h12.07.345613 +0900,
Images/Speaker1.jpg,Images/Speaker2.jpg,Images/Speaker3.jpg,Images/Speaker4.jpg,Audio/Speaker4_Per/P4-6-Per.wav,Speaker4,گوینده۴,0,0,0,21,0,22,22,65,99.47533237499738,,,,,,,,,,,,,,,,,,,,,,,,,,,,,,,,,,,,,,,,,,,,,,,,,,,,,,99.44887762500002,99.47533237499738,99.47533237499738,99.47533237499738,99.47533237499738,99.48065804233241,99.47533237499738,99.47533237499738,99.47533237499738,99.79637391699362,نادرست! پاسخ صحیح گوینده۴ است,7,23,1,0.3161492079962045,None,99.80032437499904,99.81183258399687,101.82095395899523,101.79588341699855,,,,,137442,001,2024-08-01_15h12.03.036,5-34 ready-monolingual persian speaker,2024.1.5,None,2024-08-01 15h12.07.345613 +0900,
Images/Speaker1.jpg,Images/Speaker2.jpg,Images/Speaker3.jpg,Images/Speaker4.jpg,Audio/Speaker3_Per/P3-5-Per.wav,Speaker3,گوینده۳,0,0,0,21,0,23,23,44,101.82095395899523,,,,,,,,,,,,,,,,,,,,,,,,,,,,,,,,,,,,,,,,,,,,,,,,,,,,,,101.79614316699735,101.82095395899523,101.82095395899523,101.82095395899523,101.82095395899523,101.82898266732857,101.82095395899523,101.82095395899523,101.82095395899523,102.00044433399307,نادرست! پاسخ صحیح گوینده۳ است,7,24,1,0.17840433299716096,None,102.00469583399536,102.01617937499395,104.02935329199681,104.00244179199944,,,,,137442,001,2024-08-01_15h12.03.036,5-34 ready-monolingual persian speaker,2024.1.5,None,2024-08-01 15h12.07.345613 +0900,
Images/Speaker1.jpg,Images/Speaker2.jpg,Images/Speaker3.jpg,Images/Speaker4.jpg,Audio/Speaker3_Per/P3-16-Per.wav,Speaker3,گوینده۳,0,0,0,21,0,24,24,55,104.02935329199681,,,,,,,,,,,,,,,,,,,,,,,,,,,,,,,,,,,,,,,,,,,,,,,,,,,,,,104.00297216699983,104.02935329199681,104.02935329199681,104.02935329199681,104.02935329199681,104.03499166732993,104.02935329199681,104.02935329199681,104.02935329199681,104.21622316699359,نادرست! پاسخ صحیح گوینده۳ است,7,25,1,0.17803562500193948,None,104.22002433399757,104.22867391699401,,106.220717917,,,,,137442,001,2024-08-01_15h12.03.036,5-34 ready-monolingual persian speaker,2024.1.5,None,2024-08-01 15h12.07.345613 +0900,
Images/Speaker1.jpg,Images/Speaker2.jpg,Images/Speaker3.jpg,Images/Speaker4.jpg,Audio/Speaker2_Per/P2-13-Per.wav,Speaker2,گوینده۲,0,0,0,21,0,25,25,32,106.2453749999986,,,,,,,,,,,,,,,,,,,,,,,,,,,,,,,,,,,,,,,,,,,,,,,,,,,,,,106.22092687499389,106.2453749999986,106.2453749999986,106.2453749999986,106.2453749999986,106.25401875033324,106.2453749999986,106.2453749999986,106.2453749999986,106.34144487499725,نادرست! پاسخ صحیح گوینده۲ است,7,26,1,0.09408995800185949,None,106.34533366699907,106.35683087499638,108.37183241699677,108.34490129199548,,,,,137442,001,2024-08-01_15h12.03.036,5-34 ready-monolingual persian speaker,2024.1.5,None,2024-08-01 15h12.07.345613 +0900,
Images/Speaker1.jpg,Images/Speaker2.jpg,Images/Speaker3.jpg,Images/Speaker4.jpg,Audio/Speaker4_Per/P4-8-Per.wav,Speaker4,گوینده۴,0,0,0,21,0,26,26,67,108.37183241699677,,,,,,,,,,,,,,,,,,,,,,,,,,,,,,,,,,,,,,,,,,,,,,,,,,,,,,108.34556199999497,108.37183241699677,108.37183241699677,108.37183241699677,108.37183241699677,108.37756695832698,108.37183241699677,108.37183241699677,108.37183241699677,108.42766141699394,نادرست! پاسخ صحیح گوینده۴ است,7,27,1,0.047711792001791764,None,108.43193241699919,108.44305254199571,110.46057108399691,110.43109145899507,,,,,137442,001,2024-08-01_15h12.03.036,5-34 ready-monolingual persian speaker,2024.1.5,None,2024-08-01 15h12.07.345613 +0900,
Images/Speaker1.jpg,Images/Speaker2.jpg,Images/Speaker3.jpg,Images/Speaker4.jpg,Audio/Speaker2_Per/P2-10-Per.wav,Speaker2,گوینده۲,0,0,0,21,0,27,27,29,110.46057108399691,,,,,,,,,,,,,,,,,,,,,,,,,,,,,,,,,,,,,,,,,,,,,,,,,,,,,,110.43203187499603,110.46057108399691,110.46057108399691,110.46057108399691,110.46057108399691,110.46359125032953,110.46057108399691,110.46057108399691,110.46057108399691,110.54588383399823,نادرست! پاسخ صحیح گوینده۲ است,7,28,1,0.07730041600007098,None,110.54974237499846,110.55850304199703,112.56929295899317,112.5435432919985,,,,,137442,001,2024-08-01_15h12.03.036,5-34 ready-monolingual persian speaker,2024.1.5,None,2024-08-01 15h12.07.345613 +0900,
Images/Speaker1.jpg,Images/Speaker2.jpg,Images/Speaker3.jpg,Images/Speaker4.jpg,Audio/Speaker3_Per/P3-1-Per.wav,Speaker3,گوینده۳,0,0,0,21,0,28,28,40,112.56929295899317,,,,,,,,,,,,,,,,,,,,,,,,,,,,,,,,,,,,,,,,,,,,,,,,,,,,,,112.5437324999948,112.56929295899317,112.56929295899317,112.56929295899317,112.56929295899317,112.57666729232781,112.56929295899317,112.56929295899317,112.56929295899317,112.68113854199328,نادرست! پاسخ صحیح گوینده۳ است,7,29,1,0.1019804999959888,None,112.68502112499846,112.69628383399686,,114.69193870899471,,,,,137442,001,2024-08-01_15h12.03.036,5-34 ready-monolingual persian speaker,2024.1.5,None,2024-08-01 15h12.07.345613 +0900,
Images/Speaker1.jpg,Images/Speaker2.jpg,Images/Speaker3.jpg,Images/Speaker4.jpg,Audio/Speaker3_Per/P3-17-Per.wav,Speaker3,گوینده۳,0,0,0,21,0,29,29,56,114.7160610840001,,,,,,,,,,,,,,,,,,,,,,,,,,,,,,,,,,,,,,,,,,,,,,,,,,,,,,114.6921624999959,114.7160610840001,114.7160610840001,114.7160610840001,114.7160610840001,114.72522641732988,114.7160610840001,114.7160610840001,114.7160610840001,114.80564083399804,نادرست! پاسخ صحیح گوینده۳ است,7,30,1,0.0851096249971306,None,114.80982624999888,114.82126241699734,,116.81583537499682,,,,,137442,001,2024-08-01_15h12.03.036,5-34 ready-monolingual persian speaker,2024.1.5,None,2024-08-01 15h12.07.345613 +0900,
Images/Speaker1.jpg,Images/Speaker2.jpg,Images/Speaker3.jpg,Images/Speaker4.jpg,Audio/Speaker2_Per/P2-20-Per.wav,Speaker2,گوینده۲,0,0,0,21,0,30,30,39,116.8430269169985,,,,,,,,,,,,,,,,,,,,,,,,,,,,,,,,,,,,,,,,,,,,,,,,,,,,,,116.81652945899987,116.8430269169985,116.8430269169985,116.8430269169985,116.8430269169985,116.84902229232878,116.8430269169985,116.8430269169985,116.8430269169985,116.94085158399685,نادرست! پاسخ صحیح گوینده۲ است,7,31,1,None,None,116.94485999999597,116.95421029199497,118.96315570899606,118.93868108399329,,,,,137442,001,2024-08-01_15h12.03.036,5-34 ready-monolingual persian speaker,2024.1.5,None,2024-08-01 15h12.07.345613 +0900,
Images/Speaker1.jpg,Images/Speaker2.jpg,Images/Speaker3.jpg,Images/Speaker4.jpg,Audio/Speaker3_Per/P3-12-Per.wav,Speaker3,گوینده۳,0,0,0,21,0,31,31,51,118.96315570899606,,,,,,,,,,,,,,,,,,,,,,,,,,,,,,,,,,,,,,,,,,,,,,,,,,,,,,118.9388394169946,118.96315570899606,118.96315570899606,118.96315570899606,118.96315570899606,118.9717771673318,118.96315570899606,118.96315570899606,118.96315570899606,119.18685158399603,نادرست! پاسخ صحیح گوینده۳ است,7,32,1,0.22259787499933736,None,119.19072549999692,119.20141574999434,121.21738541699597,121.18698554199364,,,,,137442,001,2024-08-01_15h12.03.036,5-34 ready-monolingual persian speaker,2024.1.5,None,2024-08-01 15h12.07.345613 +0900,
Images/Speaker1.jpg,Images/Speaker2.jpg,Images/Speaker3.jpg,Images/Speaker4.jpg,Audio/Speaker2_Per/P2-8-Per.wav,Speaker2,گوینده۲,0,0,0,21,0,32,32,27,121.21738541699597,,,,,,,,,,,,,,,,,,,,,,,,,,,,,,,,,,,,,,,,,,,,,,,,,,,,,,121.18787658399378,121.21738541699597,121.21738541699597,121.21738541699597,121.21738541699597,121.21951279232647,121.21738541699597,121.21738541699597,121.21738541699597,121.49304479199782,نادرست! پاسخ صحیح گوینده۲ است,7,33,1,0.27232250000088243,None,121.49708612499671,121.50883433399576,123.5222199589989,123.49563729199872,,,,,137442,001,2024-08-01_15h12.03.036,5-34 ready-monolingual persian speaker,2024.1.5,None,2024-08-01 15h12.07.345613 +0900,
Images/Speaker1.jpg,Images/Speaker2.jpg,Images/Speaker3.jpg,Images/Speaker4.jpg,Audio/Speaker4_Per/P4-11-Per.wav,Speaker4,گوینده۴,0,0,0,21,0,33,33,70,123.5222199589989,,,,,,,,,,,,,,,,,,,,,,,,,,,,,,,,,,,,,,,,,,,,,,,,,,,,,,123.4961990419979,123.5222199589989,123.5222199589989,123.5222199589989,123.5222199589989,123.52814858333343,123.5222199589989,123.5222199589989,123.5222199589989,123.71931770899391,نادرست! پاسخ صحیح گوینده۴ است,7,34,1,0.18939712500286987,None,123.72325862499565,123.73480458399717,125.75230449999799,125.7230340419992,,,,,137442,001,2024-08-01_15h12.03.036,5-34 ready-monolingual persian speaker,2024.1.5,None,2024-08-01 15h12.07.345613 +0900,
Images/Speaker1.jpg,Images/Speaker2.jpg,Images/Speaker3.jpg,Images/Speaker4.jpg,Audio/Speaker1_Per/P1-15-Per.wav,Speaker1,گوینده ۱,0,0,0,21,0,34,34,14,125.75230449999799,,,,,,,,,,,,,,,,,,,,,,,,,,,,,,,,,,,,,,,,,,,,,,,,,,,,,,125.72389908399782,125.75230449999799,125.75230449999799,125.75230449999799,125.75230449999799,125.75561066732965,125.75230449999799,125.75230449999799,125.75230449999799,125.91187479200016,صحیح است,8,35,1,0.15488216700032353,None,125.91605216699827,125.92684462499892,127.9350443749936,127.91087187499943,,,,,137442,001,2024-08-01_15h12.03.036,5-34 ready-monolingual persian speaker,2024.1.5,None,2024-08-01 15h12.07.345613 +0900,
Images/Speaker1.jpg,Images/Speaker2.jpg,Images/Speaker3.jpg,Images/Speaker4.jpg,Audio/Speaker4_Per/P4-18-Per.wav,Speaker4,گوینده۴,0,0,0,21,0,35,35,77,127.9350443749936,,,,,,,,,,,,,,,,,,,,,,,,,,,,,,,,,,,,,,,,,,,,,,,,,,,,,,127.91105666699877,127.9350443749936,127.9350443749936,127.9350443749936,127.9350443749936,127.94400095832728,127.9350443749936,127.9350443749936,127.9350443749936,127.95055187499383,نادرست! پاسخ صحیح گوینده۴ است,8,36,1,0.006539791000250261,None,127.95449858399661,127.96332687499671,,129.9570291669952,,,,,137442,001,2024-08-01_15h12.03.036,5-34 ready-monolingual persian speaker,2024.1.5,None,2024-08-01 15h12.07.345613 +0900,
Images/Speaker1.jpg,Images/Speaker2.jpg,Images/Speaker3.jpg,Images/Speaker4.jpg,Audio/Speaker4_Per/P4-15-Per.wav,Speaker4,گوینده۴,0,0,0,21,0,36,36,74,129.98278679199575,,,,,,,,,,,,,,,,,,,,,,,,,,,,,,,,,,,,,,,,,,,,,,,,,,,,,,129.95721616699302,129.98278679199575,129.98278679199575,129.98278679199575,129.98278679199575,129.99032583332934,129.98278679199575,129.98278679199575,129.98278679199575,130.08465674999752,نادرست! پاسخ صحیح گوینده۴ است,8,37,1,0.09423487500316696,None,130.08856274999562,130.0999528339962,,132.09326612499717,,,,,137442,001,2024-08-01_15h12.03.036,5-34 ready-monolingual persian speaker,2024.1.5,None,2024-08-01 15h12.07.345613 +0900,
Images/Speaker1.jpg,Images/Speaker2.jpg,Images/Speaker3.jpg,Images/Speaker4.jpg,Audio/Speaker1_Per/P1-7-Per.wav,Speaker1,گوینده ۱,0,0,0,21,0,37,37,6,132.12316187499528,,,,,,,,,,,,,,,,,,,,,,,,,,,,,,,,,,,,,,,,,,,,,,,,,,,,,,132.09386520899716,132.12316187499528,132.12316187499528,132.12316187499528,132.12316187499528,132.12643179232742,132.12316187499528,132.12316187499528,132.12316187499528,132.39438374999736,صحیح است,9,38,1,0.25940437499957625,None,132.39829887499945,132.4066616669952,134.4207820839947,134.39454958399438,,,,,137442,001,2024-08-01_15h12.03.036,5-34 ready-monolingual persian speaker,2024.1.5,None,2024-08-01 15h12.07.345613 +0900,
Images/Speaker1.jpg,Images/Speaker2.jpg,Images/Speaker3.jpg,Images/Speaker4.jpg,Audio/Speaker1_Per/P1-4-Per.wav,Speaker1,گوینده ۱,0,0,0,21,0,38,38,13,134.4207820839947,,,,,,,,,,,,,,,,,,,,,,,,,,,,,,,,,,,,,,,,,,,,,,,,,,,,,,134.39475374999893,134.4207820839947,134.4207820839947,134.4207820839947,134.4207820839947,134.42765583333,134.4207820839947,134.4207820839947,134.4207820839947,134.5781563749988,صحیح است,10,39,1,0.15457874999992782,None,134.58234754199657,134.5927985419985,136.61149045899947,136.5817801249941,,,,,137442,001,2024-08-01_15h12.03.036,5-34 ready-monolingual persian speaker,2024.1.5,None,2024-08-01 15h12.07.345613 +0900,
Images/Speaker1.jpg,Images/Speaker2.jpg,Images/Speaker3.jpg,Images/Speaker4.jpg,Audio/Speaker3_Per/P3-20-Per.wav,Speaker3,گوینده۳,0,0,0,21,0,39,39,59,136.61149045899947,,,,,,,,,,,,,,,,,,,,,,,,,,,,,,,,,,,,,,,,,,,,,,,,,,,,,,136.58275391699863,136.61149045899947,136.61149045899947,136.61149045899947,136.61149045899947,136.61429962533344,136.61149045899947,136.61149045899947,136.61149045899947,139.49560179199761,صحیح است,11,40,3,2.8829390840037377,None,139.49580608399992,139.50620224999875,141.51643150000018,141.490157041997,,,,,137442,001,2024-08-01_15h12.03.036,5-34 ready-monolingual persian speaker,2024.1.5,None,2024-08-01 15h12.07.345613 +0900,
Images/Speaker1.jpg,Images/Speaker2.jpg,Images/Speaker3.jpg,Images/Speaker4.jpg,Audio/Speaker1_Per/P1-20-Per.wav,Speaker1,گوینده ۱,0,0,0,21,0,40,40,19,141.51643150000018,,,,,,,,,,,,,,,,,,,,,,,,,,,,,,,,,,,,,,,,,,,,,,,,,,,,,,141.49079149999307,141.51643150000018,141.51643150000018,141.51643150000018,141.51643150000018,141.52272137533197,141.51643150000018,141.51643150000018,141.51643150000018,145.37913420899713,صحیح است,12,41,1,3.859271750006883,None,145.37935237499914,145.38987795899448,147.405588333997,147.37651599999663,,,,,137442,001,2024-08-01_15h12.03.036,5-34 ready-monolingual persian speaker,2024.1.5,None,2024-08-01 15h12.07.345613 +0900,
Images/Speaker1.jpg,Images/Speaker2.jpg,Images/Speaker3.jpg,Images/Speaker4.jpg,Audio/Speaker2_Per/P2-14-Per.wav,Speaker2,گوینده۲,0,0,0,21,0,41,41,33,147.405588333997,,,,,,,,,,,,,,,,,,,,,,,,,,,,,,,,,,,,,,,,,,,,,,,,,,,,,,147.3773927919974,147.405588333997,147.405588333997,147.405588333997,147.405588333997,147.40891995833277,147.405588333997,147.405588333997,147.405588333997,148.3644826249947,نادرست! پاسخ صحیح گوینده۲ است,12,42,1,0.9493181249999907,None,148.36869516699517,148.37743695899553,150.3912854589944,150.3666466249997,,,,,137442,001,2024-08-01_15h12.03.036,5-34 ready-monolingual persian speaker,2024.1.5,None,2024-08-01 15h12.07.345613 +0900,
Images/Speaker1.jpg,Images/Speaker2.jpg,Images/Speaker3.jpg,Images/Speaker4.jpg,Audio/Speaker4_Per/P4-17-Per.wav,Speaker4,گوینده۴,0,0,0,21,0,42,42,76,150.3912854589944,,,,,,,,,,,,,,,,,,,,,,,,,,,,,,,,,,,,,,,,,,,,,,,,,,,,,,150.3668547499983,150.3912854589944,150.3912854589944,150.3912854589944,150.3912854589944,150.39978704232686,150.3912854589944,150.3912854589944,150.3912854589944,150.672448583995,نادرست! پاسخ صحیح گوینده۴ است,12,43,1,0.2801787080024951,None,150.67631079199782,150.68803416699666,152.69782958399446,152.67327262499748,,,,,137442,001,2024-08-01_15h12.03.036,5-34 ready-monolingual persian speaker,2024.1.5,None,2024-08-01 15h12.07.345613 +0900,
Images/Speaker1.jpg,Images/Speaker2.jpg,Images/Speaker3.jpg,Images/Speaker4.jpg,Audio/Speaker1_Per/P1-18-Per.wav,Speaker1,گوینده ۱,0,0,0,21,0,43,43,17,152.69782958399446,,,,,,,,,,,,,,,,,,,,,,,,,,,,,,,,,,,,,,,,,,,,,,,,,,,,,,152.67344291699555,152.69782958399446,152.69782958399446,152.69782958399446,152.69782958399446,152.706344750332,152.69782958399446,152.69782958399446,152.69782958399446,152.91664037499868,صحیح است,13,44,1,0.21674383299978217,None,152.9205766669984,152.93108841699723,154.94085270899814,154.9161607089991,,,,,137442,001,2024-08-01_15h12.03.036,5-34 ready-monolingual persian speaker,2024.1.5,None,2024-08-01 15h12.07.345613 +0900,
Images/Speaker1.jpg,Images/Speaker2.jpg,Images/Speaker3.jpg,Images/Speaker4.jpg,Audio/Speaker3_Per/P3-3-Per.wav,Speaker3,گوینده۳,0,0,0,21,0,44,44,42,154.94085270899814,,,,,,,,,,,,,,,,,,,,,,,,,,,,,,,,,,,,,,,,,,,,,,,,,,,,,,154.91633058399748,154.94085270899814,154.94085270899814,154.94085270899814,154.94085270899814,154.9492978333297,154.94085270899814,154.94085270899814,154.94085270899814,155.1223390419982,نادرست! پاسخ صحیح گوینده۳ است,13,45,1,0.17901208299736027,None,155.12632387499616,155.1381130419977,157.15270258399687,157.1250463749966,,,,,137442,001,2024-08-01_15h12.03.036,5-34 ready-monolingual persian speaker,2024.1.5,None,2024-08-01 15h12.07.345613 +0900,
Images/Speaker1.jpg,Images/Speaker2.jpg,Images/Speaker3.jpg,Images/Speaker4.jpg,Audio/Speaker2_Per/P2-9-Per.wav,Speaker2,گوینده۲,0,0,0,21,0,45,45,28,157.15270258399687,,,,,,,,,,,,,,,,,,,,,,,,,,,,,,,,,,,,,,,,,,,,,,,,,,,,,,157.12559662499552,157.15270258399687,157.15270258399687,157.15270258399687,157.15270258399687,157.15755612532718,157.15270258399687,157.15270258399687,157.15270258399687,157.49046524999721,نادرست! پاسخ صحیح گوینده۲ است,13,46,1,0.3268123750021914,None,157.49435029199958,157.50536216699402,,159.49905279199447,,,,,137442,001,2024-08-01_15h12.03.036,5-34 ready-monolingual persian speaker,2024.1.5,None,2024-08-01 15h12.07.345613 +0900,
Images/Speaker1.jpg,Images/Speaker2.jpg,Images/Speaker3.jpg,Images/Speaker4.jpg,Audio/Speaker2_Per/P2-12-Per.wav,Speaker2,گوینده۲,0,0,0,21,0,46,46,31,159.5258834999986,,,,,,,,,,,,,,,,,,,,,,,,,,,,,,,,,,,,,,,,,,,,,,,,,,,,,,159.4992243749948,159.5258834999986,159.5258834999986,159.5258834999986,159.5258834999986,159.53234775032666,159.5258834999986,159.5258834999986,159.5258834999986,159.8421084589936,نادرست! پاسخ صحیح گوینده۲ است,13,47,1,0.3136528749964782,None,159.84591341699706,159.85724270899664,161.87265612499323,161.84387066699855,,,,,137442,001,2024-08-01_15h12.03.036,5-34 ready-monolingual persian speaker,2024.1.5,None,2024-08-01 15h12.07.345613 +0900,
Images/Speaker1.jpg,Images/Speaker2.jpg,Images/Speaker3.jpg,Images/Speaker4.jpg,Audio/Speaker2_Per/P2-16-Per.wav,Speaker2,گوینده۲,0,0,0,21,0,47,47,35,161.87265612499323,,,,,,,,,,,,,,,,,,,,,,,,,,,,,,,,,,,,,,,,,,,,,,,,,,,,,,161.8446682089998,161.87265612499323,161.87265612499323,161.87265612499323,161.87265612499323,161.87640904232882,161.87265612499323,161.87265612499323,161.87265612499323,162.081998458998,نادرست! پاسخ صحیح گوینده۲ است,13,48,1,0.20831633300258545,None,162.08597316699888,162.09743075000006,164.11272479199397,164.08620945899747,,,,,137442,001,2024-08-01_15h12.03.036,5-34 ready-monolingual persian speaker,2024.1.5,None,2024-08-01 15h12.07.345613 +0900,
Images/Speaker1.jpg,Images/Speaker2.jpg,Images/Speaker3.jpg,Images/Speaker4.jpg,Audio/Speaker3_Per/P3-10-Per.wav,Speaker3,گوینده۳,0,0,0,21,0,48,48,49,164.11272479199397,,,,,,,,,,,,,,,,,,,,,,,,,,,,,,,,,,,,,,,,,,,,,,,,,,,,,,164.0872014589986,164.11272479199397,164.11272479199397,164.11272479199397,164.11272479199397,164.1187136253289,164.11272479199397,164.11272479199397,164.11272479199397,164.16200687499804,نادرست! پاسخ صحیح گوینده۳ است,13,49,1,0.04689679099828936,None,164.165917333994,164.176601166997,166.189841333995,166.1648341669934,,,,,137442,001,2024-08-01_15h12.03.036,5-34 ready-monolingual persian speaker,2024.1.5,None,2024-08-01 15h12.07.345613 +0900,
Images/Speaker1.jpg,Images/Speaker2.jpg,Images/Speaker3.jpg,Images/Speaker4.jpg,Audio/Speaker2_Per/P2-6-Per.wav,Speaker2,گوینده۲,0,0,0,21,0,49,49,25,166.189841333995,,,,,,,,,,,,,,,,,,,,,,,,,,,,,,,,,,,,,,,,,,,,,,,,,,,,,,166.16499791699607,166.189841333995,166.189841333995,166.189841333995,166.189841333995,166.1979485833295,166.189841333995,166.189841333995,166.189841333995,166.36218616699625,نادرست! پاسخ صحیح گوینده۲ است,13,50,1,0.16352049999841256,None,166.36597070899734,166.37459399999352,168.39230520899582,168.36562974999833,,,,,137442,001,2024-08-01_15h12.03.036,5-34 ready-monolingual persian speaker,2024.1.5,None,2024-08-01 15h12.07.345613 +0900,
Images/Speaker1.jpg,Images/Speaker2.jpg,Images/Speaker3.jpg,Images/Speaker4.jpg,Audio/Speaker2_Per/P2-5-Per.wav,Speaker2,گوینده۲,0,0,0,21,0,50,50,24,168.39230520899582,,,,,,,,,,,,,,,,,,,,,,,,,,,,,,,,,,,,,,,,,,,,,,,,,,,,,,168.36578987499524,168.39230520899582,168.39230520899582,168.39230520899582,168.39230520899582,168.39874208332964,168.39230520899582,168.39230520899582,168.39230520899582,168.5717602089935,نادرست! پاسخ صحیح گوینده۲ است,13,51,1,0.17680991599627305,None,168.57564437499968,168.58690045899857,,170.58233483399817,,,,,137442,001,2024-08-01_15h12.03.036,5-34 ready-monolingual persian speaker,2024.1.5,None,2024-08-01 15h12.07.345613 +0900,
Images/Speaker1.jpg,Images/Speaker2.jpg,Images/Speaker3.jpg,Images/Speaker4.jpg,Audio/Speaker3_Per/P3-4-Per.wav,Speaker3,گوینده۳,0,0,0,21,0,51,51,43,170.60734941699775,,,,,,,,,,,,,,,,,,,,,,,,,,,,,,,,,,,,,,,,,,,,,,,,,,,,,,170.58250524999312,170.60734941699775,170.60734941699775,170.60734941699775,170.60734941699775,170.61562904233193,170.60734941699775,170.60734941699775,170.60734941699775,170.92421258399554,نادرست! پاسخ صحیح گوینده۳ است,13,52,1,0.3108638330013491,None,170.9284976669951,170.93963558399992,,172.93337416699796,,,,,137442,001,2024-08-01_15h12.03.036,5-34 ready-monolingual persian speaker,2024.1.5,None,2024-08-01 15h12.07.345613 +0900,
Images/Speaker1.jpg,Images/Speaker2.jpg,Images/Speaker3.jpg,Images/Speaker4.jpg,Audio/Speaker4_Per/P4-4-Per.wav,Speaker4,گوینده۴,0,0,0,21,0,52,52,63,172.96119008399546,,,,,,,,,,,,,,,,,,,,,,,,,,,,,,,,,,,,,,,,,,,,,,,,,,,,,,172.93405920899386,172.96119008399546,172.96119008399546,172.96119008399546,172.96119008399546,172.96654916733002,172.96119008399546,172.96119008399546,172.96119008399546,173.16207920899615,نادرست! پاسخ صحیح گوینده۴ است,13,53,1,0.1996444579999661,None,173.1662964999996,173.17779991699354,175.19008162499813,175.16544666699338,,,,,137442,001,2024-08-01_15h12.03.036,5-34 ready-monolingual persian speaker,2024.1.5,None,2024-08-01 15h12.07.345613 +0900,
Images/Speaker1.jpg,Images/Speaker2.jpg,Images/Speaker3.jpg,Images/Speaker4.jpg,Audio/Speaker1_Per/P1-19-Per.wav,Speaker1,گوینده ۱,0,0,0,21,0,53,53,18,175.19008162499813,,,,,,,,,,,,,,,,,,,,,,,,,,,,,,,,,,,,,,,,,,,,,,,,,,,,,,175.165634166995,175.19008162499813,175.19008162499813,175.19008162499813,175.19008162499813,175.19855770833288,175.19008162499813,175.19008162499813,175.19008162499813,175.50896124999417,صحیح است,14,54,1,0.3122830420034006,None,175.51321745899622,175.52396387499903,,177.5184134999945,,,,,137442,001,2024-08-01_15h12.03.036,5-34 ready-monolingual persian speaker,2024.1.5,None,2024-08-01 15h12.07.345613 +0900,
Images/Speaker1.jpg,Images/Speaker2.jpg,Images/Speaker3.jpg,Images/Speaker4.jpg,Audio/Speaker3_Per/P3-18-Per.wav,Speaker3,گوینده۳,0,0,0,21,0,54,54,57,177.54824670899688,,,,,,,,,,,,,,,,,,,,,,,,,,,,,,,,,,,,,,,,,,,,,,,,,,,,,,177.51908162499603,177.54824670899688,177.54824670899688,177.54824670899688,177.54824670899688,177.55157470832688,177.54824670899688,177.54824670899688,177.54824670899688,177.78481058399484,نادرست! پاسخ صحیح گوینده۳ است,14,55,1,0.23232149999967078,None,177.78891012499662,177.80036762499367,,179.79444858399802,,,,,137442,001,2024-08-01_15h12.03.036,5-34 ready-monolingual persian speaker,2024.1.5,None,2024-08-01 15h12.07.345613 +0900,
Images/Speaker1.jpg,Images/Speaker2.jpg,Images/Speaker3.jpg,Images/Speaker4.jpg,Audio/Speaker3_Per/P3-9-Per.wav,Speaker3,گوینده۳,0,0,0,21,0,55,55,48,179.81948629199906,,,,,,,,,,,,,,,,,,,,,,,,,,,,,,,,,,,,,,,,,,,,,,,,,,,,,,179.79462483399402,179.81948629199906,179.81948629199906,179.81948629199906,179.81948629199906,179.8277415003327,179.81948629199906,179.81948629199906,179.81948629199906,180.01681308399566,نادرست! پاسخ صحیح گوینده۳ است,14,56,1,0.19579112499923212,None,180.0210064999992,180.0316079999975,182.04294162499718,182.01760112499323,,,,,137442,001,2024-08-01_15h12.03.036,5-34 ready-monolingual persian speaker,2024.1.5,None,2024-08-01 15h12.07.345613 +0900,
Images/Speaker1.jpg,Images/Speaker2.jpg,Images/Speaker3.jpg,Images/Speaker4.jpg,Audio/Speaker1_Per/P1-2-Per.wav,Speaker1,گوینده ۱,0,0,0,21,0,56,56,1,182.04294162499718,,,,,,,,,,,,,,,,,,,,,,,,,,,,,,,,,,,,,,,,,,,,,,,,,,,,,,182.01779091699427,182.04294162499718,182.04294162499718,182.04294162499718,182.04294162499718,182.05073575033072,182.04294162499718,182.04294162499718,182.04294162499718,182.24493891699967,صحیح است,15,57,1,0.19734012499975506,None,182.24918062499637,182.25975324999308,,184.25389766699664,,,,,137442,001,2024-08-01_15h12.03.036,5-34 ready-monolingual persian speaker,2024.1.5,None,2024-08-01 15h12.07.345613 +0900,
Images/Speaker1.jpg,Images/Speaker2.jpg,Images/Speaker3.jpg,Images/Speaker4.jpg,Audio/Speaker1_Per/P1-10-Per.wav,Speaker1,گوینده ۱,0,0,0,21,0,57,57,9,184.2793125419994,,,,,,,,,,,,,,,,,,,,,,,,,,,,,,,,,,,,,,,,,,,,,,,,,,,,,,184.2540731669942,184.2793125419994,184.2793125419994,184.2793125419994,184.2793125419994,184.28719379232695,184.2793125419994,184.2793125419994,184.2793125419994,184.42479191699385,صحیح است,16,58,1,0.14311879099841462,None,184.42851941699337,184.4388221669942,186.45158187499328,186.4266674169994,,,,,137442,001,2024-08-01_15h12.03.036,5-34 ready-monolingual persian speaker,2024.1.5,None,2024-08-01 15h12.07.345613 +0900,
Images/Speaker1.jpg,Images/Speaker2.jpg,Images/Speaker3.jpg,Images/Speaker4.jpg,Audio/Speaker3_Per/P3-7-Per.wav,Speaker3,گوینده۳,0,0,0,21,0,58,58,46,186.45158187499328,,,,,,,,,,,,,,,,,,,,,,,,,,,,,,,,,,,,,,,,,,,,,,,,,,,,,,186.42688120899402,186.45158187499328,186.45158187499328,186.45158187499328,186.45158187499328,186.45975350032728,186.45158187499328,186.45158187499328,186.45158187499328,186.699644291999,نادرست! پاسخ صحیح گوینده۳ است,16,59,1,0.24683575000381097,None,186.70386112499546,186.71514187499997,188.7289982919974,188.70342379199428,,,,,137442,001,2024-08-01_15h12.03.036,5-34 ready-monolingual persian speaker,2024.1.5,None,2024-08-01 15h12.07.345613 +0900,
Images/Speaker1.jpg,Images/Speaker2.jpg,Images/Speaker3.jpg,Images/Speaker4.jpg,Audio/Speaker3_Per/P3-2-Per.wav,Speaker3,گوینده۳,0,0,0,21,0,59,59,41,188.7289982919974,,,,,,,,,,,,,,,,,,,,,,,,,,,,,,,,,,,,,,,,,,,,,,,,,,,,,,188.70358912499796,188.7289982919974,188.7289982919974,188.7289982919974,188.7289982919974,188.73655525033297,188.7289982919974,188.7289982919974,188.7289982919974,188.94306537499506,نادرست! پاسخ صحیح گوینده۳ است,16,60,1,0.21285216599790147,None,188.9469997089982,188.95787374999782,190.9742399589959,190.9464813339946,,,,,137442,001,2024-08-01_15h12.03.036,5-34 ready-monolingual persian speaker,2024.1.5,None,2024-08-01 15h12.07.345613 +0900,
Images/Speaker1.jpg,Images/Speaker2.jpg,Images/Speaker3.jpg,Images/Speaker4.jpg,Audio/Speaker2_Per/P2-15-Per.wav,Speaker2,گوینده۲,0,0,0,21,0,60,60,34,190.9742399589959,,,,,,,,,,,,,,,,,,,,,,,,,,,,,,,,,,,,,,,,,,,,,,,,,,,,,,190.94705166699714,190.9742399589959,190.9742399589959,190.9742399589959,190.9742399589959,190.97893416733183,190.9742399589959,190.9742399589959,190.9742399589959,191.29438704199856,نادرست! پاسخ صحیح گوینده۲ است,16,61,1,0.31486287499865284,None,191.29856416699477,191.3101401249951,,193.30368616699707,,,,,137442,001,2024-08-01_15h12.03.036,5-34 ready-monolingual persian speaker,2024.1.5,None,2024-08-01 15h12.07.345613 +0900,
Images/Speaker1.jpg,Images/Speaker2.jpg,Images/Speaker3.jpg,Images/Speaker4.jpg,Audio/Speaker1_Per/P1-13-Per.wav,Speaker1,گوینده ۱,0,0,0,21,0,61,61,12,193.33103970899538,,,,,,,,,,,,,,,,,,,,,,,,,,,,,,,,,,,,,,,,,,,,,,,,,,,,,,193.30441279199295,193.33103970899538,193.33103970899538,193.33103970899538,193.33103970899538,193.3368518333305,193.33103970899538,193.33103970899538,193.33103970899538,193.49643691699748,صحیح است,17,62,1,0.16212670899403747,None,193.5001669589983,193.51079508399562,,195.50440629199875,,,,,137442,001,2024-08-01_15h12.03.036,5-34 ready-monolingual persian speaker,2024.1.5,None,2024-08-01 15h12.07.345613 +0900,
Images/Speaker1.jpg,Images/Speaker2.jpg,Images/Speaker3.jpg,Images/Speaker4.jpg,Audio/Speaker4_Per/P4-10-Per.wav,Speaker4,گوینده۴,0,0,0,21,0,62,62,69,195.53175708399795,,,,,,,,,,,,,,,,,,,,,,,,,,,,,,,,,,,,,,,,,,,,,,,,,,,,,,195.50506233399938,195.53175708399795,195.53175708399795,195.53175708399795,195.53175708399795,195.53754358332714,195.53175708399795,195.53175708399795,195.53175708399795,195.85248845899332,نادرست! پاسخ صحیح گوینده۴ است,17,63,1,0.3126699999993434,None,195.85642595899844,195.8677974999955,,197.85661912499927,,,,,137442,001,2024-08-01_15h12.03.036,5-34 ready-monolingual persian speaker,2024.1.5,None,2024-08-01 15h12.07.345613 +0900,
Images/Speaker1.jpg,Images/Speaker2.jpg,Images/Speaker3.jpg,Images/Speaker4.jpg,Audio/Speaker2_Per/P2-7-Per.wav,Speaker2,گوینده۲,0,0,0,21,0,63,63,26,197.88421295899752,,,,,,,,,,,,,,,,,,,,,,,,,,,,,,,,,,,,,,,,,,,,,,,,,,,,,,197.85728804199607,197.88421295899752,197.88421295899752,197.88421295899752,197.88421295899752,197.88978395833016,197.88421295899752,197.88421295899752,197.88421295899752,198.4451939999999,نادرست! پاسخ صحیح گوینده۲ است,17,64,1,0.5497676660015713,None,198.44926870899508,198.4608299169995,,200.45443512499332,,,,,137442,001,2024-08-01_15h12.03.036,5-34 ready-monolingual persian speaker,2024.1.5,None,2024-08-01 15h12.07.345613 +0900,
Images/Speaker1.jpg,Images/Speaker2.jpg,Images/Speaker3.jpg,Images/Speaker4.jpg,Audio/Speaker2_Per/P2-19-Per.wav,Speaker2,گوینده۲,0,0,0,21,0,64,64,38,200.48131229199498,,,,,,,,,,,,,,,,,,,,,,,,,,,,,,,,,,,,,,,,,,,,,,,,,,,,,,200.45507758399617,200.48131229199498,200.48131229199498,200.48131229199498,200.48131229199498,200.48757100033305,200.48131229199498,200.48131229199498,200.48131229199498,201.12633824999648,نادرست! پاسخ صحیح گوینده۲ است,17,65,1,0.6428155419998802,None,201.1304865839993,201.1421154589989,203.15781649999553,203.13006995899923,,,,,137442,001,2024-08-01_15h12.03.036,5-34 ready-monolingual persian speaker,2024.1.5,None,2024-08-01 15h12.07.345613 +0900,
Images/Speaker1.jpg,Images/Speaker2.jpg,Images/Speaker3.jpg,Images/Speaker4.jpg,Audio/Speaker4_Per/P4-3-Per.wav,Speaker4,گوینده۴,0,0,0,21,0,65,65,62,203.15781649999553,,,,,,,,,,,,,,,,,,,,,,,,,,,,,,,,,,,,,,,,,,,,,,,,,,,,,,203.1306525419932,203.15781649999553,203.15781649999553,203.15781649999553,203.15781649999553,203.16250675032694,203.15781649999553,203.15781649999553,203.15781649999553,203.6245244169986,نادرست! پاسخ صحیح گوینده۴ است,17,66,1,0.4656494590017246,None,203.6286455839945,203.6400140419937,205.64719845899526,205.62274875000003,,,,,137442,001,2024-08-01_15h12.03.036,5-34 ready-monolingual persian speaker,2024.1.5,None,2024-08-01 15h12.07.345613 +0900,
Images/Speaker1.jpg,Images/Speaker2.jpg,Images/Speaker3.jpg,Images/Speaker4.jpg,Audio/Speaker1_Per/P1-1-Per.wav,Speaker1,گوینده ۱,0,0,0,21,0,66,66,0,205.64719845899526,,,,,,,,,,,,,,,,,,,,,,,,,,,,,,,,,,,,,,,,,,,,,,,,,,,,,,205.62291845899745,205.64719845899526,205.64719845899526,205.64719845899526,205.64719845899526,205.6558901253307,205.64719845899526,205.64719845899526,205.64719845899526,206.01900983399537,صحیح است,18,67,1,0.36409016700054053,None,206.02306316699833,206.0313948749972,208.04520837499877,208.01974949999567,,,,,137442,001,2024-08-01_15h12.03.036,5-34 ready-monolingual persian speaker,2024.1.5,None,2024-08-01 15h12.07.345613 +0900,
Images/Speaker1.jpg,Images/Speaker2.jpg,Images/Speaker3.jpg,Images/Speaker4.jpg,Audio/Speaker3_Per/P3-15-Per.wav,Speaker3,گوینده۳,0,0,0,21,0,67,67,54,208.04520837499877,,,,,,,,,,,,,,,,,,,,,,,,,,,,,,,,,,,,,,,,,,,,,,,,,,,,,,208.01990758399916,208.04520837499877,208.04520837499877,208.04520837499877,208.04520837499877,208.05284729233296,208.04520837499877,208.04520837499877,208.04520837499877,208.62128333399596,نادرست! پاسخ صحیح گوینده۳ است,18,68,1,0.5728317920002155,None,208.62553204199503,208.63670083399484,210.6458849999981,210.62028962499608,,,,,137442,001,2024-08-01_15h12.03.036,5-34 ready-monolingual persian speaker,2024.1.5,None,2024-08-01 15h12.07.345613 +0900,
Images/Speaker1.jpg,Images/Speaker2.jpg,Images/Speaker3.jpg,Images/Speaker4.jpg,Audio/Speaker1_Per/P1-4-Per.wav,Speaker1,گوینده ۱,0,0,0,21,0,68,68,3,210.6458849999981,,,,,,,,,,,,,,,,,,,,,,,,,,,,,,,,,,,,,,,,,,,,,,,,,,,,,,210.62076766699465,210.6458849999981,210.6458849999981,210.6458849999981,210.6458849999981,210.65295566732726,210.6458849999981,210.6458849999981,210.6458849999981,211.602948791995,صحیح است,19,69,1,0.9488532500035944,None,211.6068245419956,211.61759170899313,213.62555395899835,213.60121154199442,,,,,137442,001,2024-08-01_15h12.03.036,5-34 ready-monolingual persian speaker,2024.1.5,None,2024-08-01 15h12.07.345613 +0900,
Images/Speaker1.jpg,Images/Speaker2.jpg,Images/Speaker3.jpg,Images/Speaker4.jpg,Audio/Speaker1_Per/P1-17-Per.wav,Speaker1,گوینده ۱,0,0,0,21,0,69,69,16,213.62555395899835,,,,,,,,,,,,,,,,,,,,,,,,,,,,,,,,,,,,,,,,,,,,,,,,,,,,,,213.6013870839961,213.62555395899835,213.62555395899835,213.62555395899835,213.62555395899835,213.6343377503295,213.62555395899835,213.62555395899835,213.62555395899835,214.17687887499778,صحیح است,20,70,1,0.5487378329999046,None,214.18084074999933,214.1917201249962,216.20040983399667,216.17533458399703,,,,,137442,001,2024-08-01_15h12.03.036,5-34 ready-monolingual persian speaker,2024.1.5,None,2024-08-01 15h12.07.345613 +0900,
Images/Speaker1.jpg,Images/Speaker2.jpg,Images/Speaker3.jpg,Images/Speaker4.jpg,Audio/Speaker1_Per/P1-8-Per.wav,Speaker1,گوینده ۱,0,0,0,21,0,70,70,7,216.20040983399667,,,,,,,,,,,,,,,,,,,,,,,,,,,,,,,,,,,,,,,,,,,,,,,,,,,,,,216.17551974999515,216.20040983399667,216.20040983399667,216.20040983399667,216.20040983399667,216.20843441732774,216.20040983399667,216.20040983399667,216.20040983399667,217.1554247499953,صحیح است,21,71,1,0.9469072909996612,None,217.15935387499485,217.17018262499914,219.1800921670001,219.15383799999836,,,,,137442,001,2024-08-01_15h12.03.036,5-34 ready-monolingual persian speaker,2024.1.5,None,2024-08-01 15h12.07.345613 +0900,
Images/Speaker1.jpg,Images/Speaker2.jpg,Images/Speaker3.jpg,Images/Speaker4.jpg,Audio/Speaker4_Per/P4-2-Per.wav,Speaker4,گوینده۴,0,0,0,21,0,71,71,61,219.1800921670001,,,,,,,,,,,,,,,,,,,,,,,,,,,,,,,,,,,,,,,,,,,,,,,,,,,,,,219.15478512499976,219.1800921670001,219.1800921670001,219.1800921670001,219.1800921670001,219.1863574173263,219.1800921670001,219.1800921670001,219.1800921670001,219.9078350839991,نادرست! پاسخ صحیح گوینده۴ است,21,72,1,0.7251957920016139,None,219.91217287499603,219.92364154199458,,221.91446570900007,,,,,137442,001,2024-08-01_15h12.03.036,5-34 ready-monolingual persian speaker,2024.1.5,None,2024-08-01 15h12.07.345613 +0900,
Images/Speaker1.jpg,Images/Speaker2.jpg,Images/Speaker3.jpg,Images/Speaker4.jpg,Audio/Speaker4_Per/P4-9-Per.wav,Speaker4,گوینده۴,0,0,0,21,0,72,72,68,221.94323270899622,,,,,,,,,,,,,,,,,,,,,,,,,,,,,,,,,,,,,,,,,,,,,,,,,,,,,,221.9152120419967,221.94323270899622,221.94323270899622,221.94323270899622,221.94323270899622,221.947642250329,221.94323270899622,221.94323270899622,221.94323270899622,223.0347509589992,نادرست! پاسخ صحیح گوینده۴ است,21,73,1,1.0888250830030302,None,223.03876370899525,223.051430624997,,225.0399454169965,,,,,137442,001,2024-08-01_15h12.03.036,5-34 ready-monolingual persian speaker,2024.1.5,None,2024-08-01 15h12.07.345613 +0900,
Images/Speaker1.jpg,Images/Speaker2.jpg,Images/Speaker3.jpg,Images/Speaker4.jpg,Audio/Speaker4_Per/P4-20-Per.wav,Speaker4,گوینده۴,0,0,0,21,0,73,73,79,225.06668541699764,,,,,,,,,,,,,,,,,,,,,,,,,,,,,,,,,,,,,,,,,,,,,,,,,,,,,,225.04056641699572,225.06668541699764,225.06668541699764,225.06668541699764,225.06668541699764,225.07312279233207,225.06668541699764,225.06668541699764,225.06668541699764,225.6001504589949,نادرست! پاسخ صحیح گوینده۴ است,21,74,1,0.5282710829997086,None,225.60408099999768,225.61570687499625,227.6241277089939,227.59972816699883,,,,,137442,001,2024-08-01_15h12.03.036,5-34 ready-monolingual persian speaker,2024.1.5,None,2024-08-01 15h12.07.345613 +0900,
Images/Speaker1.jpg,Images/Speaker2.jpg,Images/Speaker3.jpg,Images/Speaker4.jpg,Audio/Speaker4_Per/P4-19-Per.wav,Speaker4,گوینده۴,0,0,0,21,0,74,74,78,227.6241277089939,,,,,,,,,,,,,,,,,,,,,,,,,,,,,,,,,,,,,,,,,,,,,,,,,,,,,,227.59993062499416,227.6241277089939,227.6241277089939,227.6241277089939,227.6241277089939,227.63286029233183,227.6241277089939,227.6241277089939,227.6241277089939,227.95255070899293,نادرست! پاسخ صحیح گوینده۴ است,21,75,1,0.32198804099607514,None,227.95652691699797,227.96801820899418,229.982306083999,229.95355945899792,,,,,137442,001,2024-08-01_15h12.03.036,5-34 ready-monolingual persian speaker,2024.1.5,None,2024-08-01 15h12.07.345613 +0900,
Images/Speaker1.jpg,Images/Speaker2.jpg,Images/Speaker3.jpg,Images/Speaker4.jpg,Audio/Speaker3_Per/P3-6-Per.wav,Speaker3,گوینده۳,0,0,0,21,0,75,75,45,229.982306083999,,,,,,,,,,,,,,,,,,,,,,,,,,,,,,,,,,,,,,,,,,,,,,,,,,,,,,229.95377054199344,229.982306083999,229.982306083999,229.982306083999,229.982306083999,229.98666895832918,229.982306083999,229.982306083999,229.982306083999,230.52984074999404,نادرست! پاسخ صحیح گوینده۳ است,21,76,1,0.5438065839989576,None,230.5340897499991,230.54523745899496,,232.53882966699894,,,,,137442,001,2024-08-01_15h12.03.036,5-34 ready-monolingual persian speaker,2024.1.5,None,2024-08-01 15h12.07.345613 +0900,
Images/Speaker1.jpg,Images/Speaker2.jpg,Images/Speaker3.jpg,Images/Speaker4.jpg,Audio/Speaker2_Per/P2-4-Per.wav,Speaker2,گوینده۲,0,0,0,21,0,76,76,23,232.5657245839975,,,,,,,,,,,,,,,,,,,,,,,,,,,,,,,,,,,,,,,,,,,,,,,,,,,,,,232.53943666699342,232.5657245839975,232.5657245839975,232.5657245839975,232.5657245839975,232.57199566732794,232.5657245839975,232.5657245839975,232.5657245839975,232.71143891699467,نادرست! پاسخ صحیح گوینده۲ است,21,77,1,0.13757562499813503,None,232.7153666669983,232.72657904199878,234.73888408399944,234.71195412499947,,,,,137442,001,2024-08-01_15h12.03.036,5-34 ready-monolingual persian speaker,2024.1.5,None,2024-08-01 15h12.07.345613 +0900,
Images/Speaker1.jpg,Images/Speaker2.jpg,Images/Speaker3.jpg,Images/Speaker4.jpg,Audio/Speaker2_Per/P2-3-Per.wav,Speaker2,گوینده۲,0,0,0,21,0,77,77,22,234.73888408399944,,,,,,,,,,,,,,,,,,,,,,,,,,,,,,,,,,,,,,,,,,,,,,,,,,,,,,234.71240608399967,234.73888408399944,234.73888408399944,234.73888408399944,234.73888408399944,234.74471220833271,234.73888408399944,234.73888408399944,234.73888408399944,235.20488329199725,نادرست! پاسخ صحیح گوینده۲ است,21,78,1,0.45847554200008744,None,235.21014033399842,235.22243999999773,237.23448062499665,237.2085292089978,,,,,137442,001,2024-08-01_15h12.03.036,5-34 ready-monolingual persian speaker,2024.1.5,None,2024-08-01 15h12.07.345613 +0900,
Images/Speaker1.jpg,Images/Speaker2.jpg,Images/Speaker3.jpg,Images/Speaker4.jpg,Audio/Speaker3_Per/P3-8-Per.wav,Speaker3,گوینده۳,0,0,0,21,0,78,78,47,237.23448062499665,,,,,,,,,,,,,,,,,,,,,,,,,,,,,,,,,,,,,,,,,,,,,,,,,,,,,,237.2087118749987,237.23448062499665,237.23448062499665,237.23448062499665,237.23448062499665,237.24163287533207,237.23448062499665,237.23448062499665,237.23448062499665,237.56623620899336,نادرست! پاسخ صحیح گوینده۳ است,21,79,1,0.330512083004578,None,237.57036808399425,237.58191766699747,,239.57369274999655,,,,,137442,001,2024-08-01_15h12.03.036,5-34 ready-monolingual persian speaker,2024.1.5,None,2024-08-01 15h12.07.345613 +0900,
Images/Speaker1.jpg,Images/Speaker2.jpg,Images/Speaker3.jpg,Images/Speaker4.jpg,Audio/Speaker4_Per/P4-16-Per.wav,Speaker4,گوینده۴,0,0,0,21,0,79,79,75,239.60154712499934,,,,,,,,,,,,,,,,,,,,,,,,,,,,,,,,,,,,,,,,,,,,,,,,,,,,,,239.5743527089944,239.60154712499934,239.60154712499934,239.60154712499934,239.60154712499934,239.60687725032818,239.60154712499934,239.60154712499934,239.60154712499934,240.72761254199577,نادرست! پاسخ صحیح گوینده۴ است,21,80,1,1.115153917002317,None,240.7313805839949,240.74314166699332,,242.7365603339931,,,,,137442,001,2024-08-01_15h12.03.036,5-34 ready-monolingual persian speaker,2024.1.5,None,2024-08-01 15h12.07.345613 +0900,
Images/Speaker1.jpg,Images/Speaker2.jpg,Images/Speaker3.jpg,Images/Speaker4.jpg,Audio/Speaker2_Per/P2-2-Per.wav,Speaker2,گوینده۲,0,0,0,21,,,,,,,,,,,,,,,,,,,,,,,,,,,,,,,,,,,,,,,,,,,,,,,,,,,,,,,,,,,,,,,,,,,,,,,,,,,,,,,242.7366419589962,0.2625,False,242.73684754199348,137442,001,2024-08-01_15h12.03.036,5-34 ready-monolingual persian speaker,2024.1.5,None,2024-08-01 15h12.07.345613 +0900,
Images/Speaker1.jpg,Images/Speaker2.jpg,Images/Speaker3.jpg,Images/Speaker4.jpg,Audio/Speaker3_Per/P3-13-Per.wav,Speaker3,گوینده۳,0,1,1,1,0,0,0,52,242.7818128749932,,,,,,,,,,,,,,,,,,,,,,,,,,,,,,,,,,,,,,,,,,,,,,,,,,,,,,242.75879358399834,242.7818128749932,242.7818128749932,242.7818128749932,242.7818128749932,242.78652616699839,242.7818128749932,242.7818128749932,242.7818128749932,245.26909799999703,نادرست! پاسخ صحیح گوینده۳ است,0,1,1,2.478995124998619,None,245.27344741699926,245.28520637499605,247.29608908399678,247.2699352089985,,,,,137442,001,2024-08-01_15h12.03.036,5-34 ready-monolingual persian speaker,2024.1.5,None,2024-08-01 15h12.07.345613 +0900,
,,,,,,,,,,,,,,,247.29608908399678,,,,,,,,,,,,,,,,,,,,,,,,,,,,,,,,,,,,,,,,,,,,,,,,,,,,,,247.27065745899745,247.29608908399678,247.29608908399678,247.29608908399678,247.29608908399678,247.30254500032657,247.29608908399678,247.29608908399678,247.29608908399678,,,,,,,,,,,,,,,,,,,,,,,
