SpeakerImage1,SpeakerImage2,SpeakerImage3,SpeakerImage4,TrainingSound,EnglishCorrectAnswer,PersianCorrectAnswer,SpeakerPhoto1,SpeakerPhoto2,SpeakerPhoto3,SpeakerPhoto4,TestingSound,EnglishCorrectResponse,PersianCorrectResponse,repeated_TrainingLoopGroup3.thisRepN,repeated_TrainingLoopGroup3.thisTrialN,repeated_TrainingLoopGroup3.thisN,repeated_TrainingLoopGroup3.thisIndex,TrainingLoopGroup3.thisRepN,TrainingLoopGroup3.thisTrialN,TrainingLoopGroup3.thisN,TrainingLoopGroup3.thisIndex,testPhase3Loop.thisRepN,testPhase3Loop.thisTrialN,testPhase3Loop.thisN,testPhase3Loop.thisIndex,thisRow.t,notes,trial.started,trial.stopped,GroupSelection.started,GroupInstructions.started,key_resp.started,GroupSelection.stopped,key_resp.keys,key_resp.rt,key_resp.duration,Introduction.started,text_2.started,image.started,sound_7.started,text_4.started,text_2.stopped,sound_8.started,image.stopped,text_4.stopped,image_7.started,sound_9.started,text_5.started,sound_10.started,image_7.stopped,text_5.stopped,image_8.started,sound_11.started,text_6.started,sound_12.started,image_8.stopped,text_6.stopped,image_9.started,sound_13.started,text_7.started,sound_14.started,image_9.stopped,text_7.stopped,Introduction.stopped,Instructions.started,InstructionText.started,InstructionText.stopped,Instructions.stopped,InitializeExperiment.started,InitializeExperiment.stopped,TrainingGroup3.started,SpeakerPicture3.started,image_15.started,image_16.started,image_17.started,Sound3.started,Instruction3.started,Response3.started,TrainingGroup3.stopped,feedbackText,correct_responses_group3,total_trials_group3,Response3.keys,Response3.rt,Response3.duration,FeedbackRoutine3.started,FeedbackText3.started,FeedbackRoutine3.stopped,FeedbackText3.stopped,CheckAccuracy3.started,accuracy_group3,proceed_to_test,CheckAccuracy3.stopped,WelcomeTest.started,text_12.started,text_12.stopped,WelcomeTest.stopped,TestPhase3.started,test3_image1.started,test3_image2.started,test3_image3.started,test3_image4.started,test3_sound.started,text_10.started,test3_response_keyboard.started,TestPhase3.stopped,test3_response_keyboard.keys,test3_response_keyboard.rt,test3_response_keyboard.duration,test3_response,test3_image_file1,test3_image_file2,test3_image_file3,test3_image_file4,test3_sound_file,english_correct_answer,persian_correct_answer,participant,session,date,expName,psychopyVersion,frameRate,expStart,
,,,,,,,,,,,,,,,,,,,,,,,,,,,,0.009922625000399421,0.010239457998977741,,,,,,,,,,,,,,,,,,,,,,,,,,,,,,,,,,,,,,,,,,,,,,,,,,,,,,,,,,,,,,,,,,,,,,,,,,,,,,,,,,,,,,,,,166961,001,2024-07-03_14h13.58.388,5-32 ready-Group3 English Trained,2024.1.4,None,2024-07-03 14h14.06.243704 +0900,
,,,,,,,,,,,,,,,,,,,,,,,,,,,,,,0.010256707999360515,0.01456904099904932,0.01456904099904932,1.118430124999577,3,1.0673849169997993,None,,,,,,,,,,,,,,,,,,,,,,,,,,,,,,,,,,,,,,,,,,,,,,,,,,,,,,,,,,,,,,,,,,,,,,,,,,,,,,,,,,166961,001,2024-07-03_14h13.58.388,5-32 ready-Group3 English Trained,2024.1.4,None,2024-07-03 14h14.06.243704 +0900,
,,,,,,,,,,,,,,,,,,,,,,,,,,,,,,,,,,,,,1.1184583329995803,1.171059915999649,6.11659595799938,6.1264549576665255,6.11659595799938,6.169617333000133,11.127253541666748,16.109624540998993,16.109624540998993,16.109624540998993,16.117960291665682,16.109624540998993,21.12065649966668,26.10821966599906,26.10821966599906,26.112513874999422,26.124886332665724,26.112513874999422,31.121234291666283,36.110891999998785,36.110891999998785,36.115871750000224,36.12755866666545,36.115871750000224,41.12658299966667,46.116853083000024,46.116853083000024,46.1122743750002,,,,,,,,,,,,,,,,,,,,,,,,,,,,,,,,,,,,,,,,,,,,,,,,,,,,,,166961,001,2024-07-03_14h13.58.388,5-32 ready-Group3 English Trained,2024.1.4,None,2024-07-03 14h14.06.243704 +0900,
,,,,,,,,,,,,,,,,,,,,,,,,,,,,,,,,,,,,,,,,,,,,,,,,,,,,,,,,,,,,,,,,,46.11229458299931,46.116853083000024,47.19040924999899,47.10961154100005,,,,,,,,,,,,,,,,,,,,,,,,,,,,,,,,,,,,,,,,,,,,,,,,,,166961,001,2024-07-03_14h13.58.388,5-32 ready-Group3 English Trained,2024.1.4,None,2024-07-03 14h14.06.243704 +0900,
,,,,,,,,,,,,,,,,,,,,,,,,,,,,,,,,,,,,,,,,,,,,,,,,,,,,,,,,,,,,,,,,,,,,,47.10964849999982,47.1099164999996,,,,,,,,,,,,,,,,,,,,,,,,,,,,,,,,,,,,,,,,,,,,,,,,166961,001,2024-07-03_14h13.58.388,5-32 ready-Group3 English Trained,2024.1.4,None,2024-07-03 14h14.06.243704 +0900,
Images/Speaker1.jpg,Images/Speaker2.jpg,Images/Speaker3.jpg,Images/Speaker4.jpg,Audio/Speaker4_En/P4-9-En.wav,Speaker4,گوینده۴,,,,,,,,0,0,0,59,0,0,0,68,,,,,47.19040924999899,,,,,,,,,,,,,,,,,,,,,,,,,,,,,,,,,,,,,,,,,,,,,47.16229333299998,47.19040924999899,47.19040924999899,47.19040924999899,47.19040924999899,47.19203429133207,47.19040924999899,47.19040924999899,51.04179066599863,Correct! صحیح است,1,1,4,3.849966959000085,None,51.042185500000414,51.05430299999898,53.05159562500012,,,,,,,,,,,,,,,,,,,,,,,,,,,,,,166961,001,2024-07-03_14h13.58.388,5-32 ready-Group3 English Trained,2024.1.4,None,2024-07-03 14h14.06.243704 +0900,
Images/Speaker1.jpg,Images/Speaker2.jpg,Images/Speaker3.jpg,Images/Speaker4.jpg,Audio/Speaker4_En/P4-6-En.wav,Speaker4,گوینده۴,,,,,,,,0,0,0,59,0,1,1,65,,,,,53.07708158300011,,,,,,,,,,,,,,,,,,,,,,,,,,,,,,,,,,,,,,,,,,,,,53.05180662499879,53.07708158300011,53.07708158300011,53.07708158300011,53.07708158300011,53.08489320833226,53.07708158300011,53.07708158300011,55.43008262500007,Correct! صحیح است,1,1,4,2.349580957999933,None,55.433956666000086,55.44973674999892,57.434670749998986,,,,,,,,,,,,,,,,,,,,,,,,,,,,,,166961,001,2024-07-03_14h13.58.388,5-32 ready-Group3 English Trained,2024.1.4,None,2024-07-03 14h14.06.243704 +0900,
Images/Speaker1.jpg,Images/Speaker2.jpg,Images/Speaker3.jpg,Images/Speaker4.jpg,Audio/Speaker1_En/P1-3-En.wav,Speaker1,گوینده ۱,,,,,,,,0,0,0,59,0,2,2,2,,,,,57.45979404100035,,,,,,,,,,,,,,,,,,,,,,,,,,,,,,,,,,,,,,,,,,,,,57.43536366599983,57.45979404100035,57.45979404100035,57.45979404100035,57.45979404100035,57.46783387433291,57.45979404100035,57.45979404100035,59.21480170799987,Correct! صحیح است,1,1,1,1.753842292000627,None,59.219184707999375,59.23070550000011,61.22077120799986,,,,,,,,,,,,,,,,,,,,,,,,,,,,,,166961,001,2024-07-03_14h13.58.388,5-32 ready-Group3 English Trained,2024.1.4,None,2024-07-03 14h14.06.243704 +0900,
Images/Speaker1.jpg,Images/Speaker2.jpg,Images/Speaker3.jpg,Images/Speaker4.jpg,Audio/Speaker3_En/P3-14-En.wav,Speaker3,گوینده۳,,,,,,,,0,0,0,59,0,3,3,53,,,,,61.2520370000002,,,,,,,,,,,,,,,,,,,,,,,,,,,,,,,,,,,,,,,,,,,,,61.22094487499999,61.2520370000002,61.2520370000002,61.2520370000002,61.2520370000002,61.254064666333335,61.2520370000002,61.2520370000002,64.2543925409991,Correct! صحیح است,1,1,3,3.000855500000398,None,64.25862349999989,64.27049979099866,66.25342520800041,66.27616908299933,,,,,,,,,,,,,,,,,,,,,,,,,,,,,166961,001,2024-07-03_14h13.58.388,5-32 ready-Group3 English Trained,2024.1.4,None,2024-07-03 14h14.06.243704 +0900,
Images/Speaker1.jpg,Images/Speaker2.jpg,Images/Speaker3.jpg,Images/Speaker4.jpg,Audio/Speaker2_En/P2-3-En.wav,Speaker2,گوینده۲,,,,,,,,0,0,0,59,0,4,4,22,,,,,66.27616908299933,,,,,,,,,,,,,,,,,,,,,,,,,,,,,,,,,,,,,,,,,,,,,66.25362095799937,66.27616908299933,66.27616908299933,66.27616908299933,66.27616908299933,66.26979741666607,66.27616908299933,66.27616908299933,67.26223870799913,Correct! صحیح است,1,1,2,0.9830314169994381,None,67.26620462499886,67.27744037499906,69.27330533299937,,,,,,,,,,,,,,,,,,,,,,,,,,,,,,166961,001,2024-07-03_14h13.58.388,5-32 ready-Group3 English Trained,2024.1.4,None,2024-07-03 14h14.06.243704 +0900,
Images/Speaker1.jpg,Images/Speaker2.jpg,Images/Speaker3.jpg,Images/Speaker4.jpg,Audio/Speaker2_En/P2-6-En.wav,Speaker2,گوینده۲,,,,,,,,0,0,0,59,0,5,5,25,,,,,69.29680854099934,,,,,,,,,,,,,,,,,,,,,,,,,,,,,,,,,,,,,,,,,,,,,69.27347145800013,69.29680854099934,69.29680854099934,69.29680854099934,69.29680854099934,69.30660616633261,69.29680854099934,69.29680854099934,70.51984574999915,Correct! صحیح است,1,1,2,1.2220408330013015,None,70.52399966600024,70.53535366599863,72.52293937499962,72.54963399999906,,,,,,,,,,,,,,,,,,,,,,,,,,,,,166961,001,2024-07-03_14h13.58.388,5-32 ready-Group3 English Trained,2024.1.4,None,2024-07-03 14h14.06.243704 +0900,
Images/Speaker1.jpg,Images/Speaker2.jpg,Images/Speaker3.jpg,Images/Speaker4.jpg,Audio/Speaker2_En/P2-8-En.wav,Speaker2,گوینده۲,,,,,,,,0,0,0,59,0,6,6,27,,,,,72.54963399999906,,,,,,,,,,,,,,,,,,,,,,,,,,,,,,,,,,,,,,,,,,,,,72.52354204099902,72.54963399999906,72.54963399999906,72.54963399999906,72.54963399999906,72.55520424933323,72.54963399999906,72.54963399999906,73.93160404099945,Correct! صحیح است,1,1,2,1.3790433750000375,None,73.93594754100013,73.94747199999983,75.9351890830003,75.95886970799984,,,,,,,,,,,,,,,,,,,,,,,,,,,,,166961,001,2024-07-03_14h13.58.388,5-32 ready-Group3 English Trained,2024.1.4,None,2024-07-03 14h14.06.243704 +0900,
Images/Speaker1.jpg,Images/Speaker2.jpg,Images/Speaker3.jpg,Images/Speaker4.jpg,Audio/Speaker3_En/P3-13-En.wav,Speaker3,گوینده۳,,,,,,,,0,0,0,59,0,7,7,52,,,,,75.95886970799984,,,,,,,,,,,,,,,,,,,,,,,,,,,,,,,,,,,,,,,,,,,,,75.93538658299985,75.95886970799984,75.95886970799984,75.95886970799984,75.95886970799984,75.96828020833212,75.95886970799984,75.95886970799984,77.55394054099997,Correct! صحیح است,1,1,3,1.594081165998432,None,77.55780229099946,77.56924583299951,79.56449674999931,,,,,,,,,,,,,,,,,,,,,,,,,,,,,,166961,001,2024-07-03_14h13.58.388,5-32 ready-Group3 English Trained,2024.1.4,None,2024-07-03 14h14.06.243704 +0900,
Images/Speaker1.jpg,Images/Speaker2.jpg,Images/Speaker3.jpg,Images/Speaker4.jpg,Audio/Speaker2_En/P2-9-En.wav,Speaker2,گوینده۲,,,,,,,,0,0,0,59,0,8,8,28,,,,,79.58860237499903,,,,,,,,,,,,,,,,,,,,,,,,,,,,,,,,,,,,,,,,,,,,,79.56510408299982,79.58860237499903,79.58860237499903,79.58860237499903,79.58860237499903,79.59764929133283,79.58860237499903,79.58860237499903,80.93205770799977,Correct! صحیح است,1,1,2,1.3412241669993819,None,80.93597887499891,80.94786770799874,82.93213245799961,82.95557387499866,,,,,,,,,,,,,,,,,,,,,,,,,,,,,166961,001,2024-07-03_14h13.58.388,5-32 ready-Group3 English Trained,2024.1.4,None,2024-07-03 14h14.06.243704 +0900,
Images/Speaker1.jpg,Images/Speaker2.jpg,Images/Speaker3.jpg,Images/Speaker4.jpg,Audio/Speaker3_En/P3-3-En.wav,Speaker3,گوینده۳,,,,,,,,0,0,0,59,0,9,9,42,,,,,82.95557387499866,,,,,,,,,,,,,,,,,,,,,,,,,,,,,,,,,,,,,,,,,,,,,82.9323209159993,82.95557387499866,82.95557387499866,82.95557387499866,82.95557387499866,82.96519799933279,82.95557387499866,82.95557387499866,84.23656262499935,Correct! صحیح است,1,1,3,1.2764395410013094,None,84.24062737500026,84.25216470799933,86.23705295800028,86.26143170799878,,,,,,,,,,,,,,,,,,,,,,,,,,,,,166961,001,2024-07-03_14h13.58.388,5-32 ready-Group3 English Trained,2024.1.4,None,2024-07-03 14h14.06.243704 +0900,
Images/Speaker1.jpg,Images/Speaker2.jpg,Images/Speaker3.jpg,Images/Speaker4.jpg,Audio/Speaker1_En/P1-13-En.wav,Speaker1,گوینده ۱,,,,,,,,0,0,0,59,0,10,10,12,,,,,86.26143170799878,,,,,,,,,,,,,,,,,,,,,,,,,,,,,,,,,,,,,,,,,,,,,86.23720533300002,86.26143170799878,86.26143170799878,86.26143170799878,86.26143170799878,86.27013945833326,86.26143170799878,86.26143170799878,87.65646329099945,Correct! صحیح است,1,1,1,1.3859318329996313,None,87.66066466600023,87.67208720799863,89.66239604099974,,,,,,,,,,,,,,,,,,,,,,,,,,,,,,166961,001,2024-07-03_14h13.58.388,5-32 ready-Group3 English Trained,2024.1.4,None,2024-07-03 14h14.06.243704 +0900,
Images/Speaker1.jpg,Images/Speaker2.jpg,Images/Speaker3.jpg,Images/Speaker4.jpg,Audio/Speaker1_En/P1-15-En.wav,Speaker1,گوینده ۱,,,,,,,,0,0,0,59,0,11,11,14,,,,,89.69118708299902,,,,,,,,,,,,,,,,,,,,,,,,,,,,,,,,,,,,,,,,,,,,,89.66308149999895,89.69118708299902,89.69118708299902,89.69118708299902,89.69118708299902,89.69557720833339,89.69118708299902,89.69118708299902,92.21243958299965,Correct! صحیح است,1,1,1,2.5161324159998912,None,92.2163121249996,92.2279072909987,94.21227399999952,94.2354544159989,,,,,,,,,,,,,,,,,,,,,,,,,,,,,166961,001,2024-07-03_14h13.58.388,5-32 ready-Group3 English Trained,2024.1.4,None,2024-07-03 14h14.06.243704 +0900,
Images/Speaker1.jpg,Images/Speaker2.jpg,Images/Speaker3.jpg,Images/Speaker4.jpg,Audio/Speaker2_En/P2-1-En.wav,Speaker2,گوینده۲,,,,,,,,0,0,0,59,0,12,12,20,,,,,94.2354544159989,,,,,,,,,,,,,,,,,,,,,,,,,,,,,,,,,,,,,,,,,,,,,94.21247249999942,94.2354544159989,94.2354544159989,94.2354544159989,94.2354544159989,94.24533554133316,94.2354544159989,94.2354544159989,96.57129987499866,Correct! صحیح است,1,1,2,2.334487790998537,None,96.57511195799998,96.58655854099925,98.57987254099862,,,,,,,,,,,,,,,,,,,,,,,,,,,,,,166961,001,2024-07-03_14h13.58.388,5-32 ready-Group3 English Trained,2024.1.4,None,2024-07-03 14h14.06.243704 +0900,
Images/Speaker1.jpg,Images/Speaker2.jpg,Images/Speaker3.jpg,Images/Speaker4.jpg,Audio/Speaker1_En/P1-6-En.wav,Speaker1,گوینده ۱,,,,,,,,0,0,0,59,0,13,13,5,,,,,98.60618095799873,,,,,,,,,,,,,,,,,,,,,,,,,,,,,,,,,,,,,,,,,,,,,98.58058466599869,98.60618095799873,98.60618095799873,98.60618095799873,98.60618095799873,98.61304462433375,98.60618095799873,98.60618095799873,102.19417037499989,Correct! صحیح است,1,1,1,3.5785134170000674,None,102.19465733299876,102.20677862499906,104.19482941599927,104.2180887909999,,,,,,,,,,,,,,,,,,,,,,,,,,,,,166961,001,2024-07-03_14h13.58.388,5-32 ready-Group3 English Trained,2024.1.4,None,2024-07-03 14h14.06.243704 +0900,
Images/Speaker1.jpg,Images/Speaker2.jpg,Images/Speaker3.jpg,Images/Speaker4.jpg,Audio/Speaker4_En/P4-11-En.wav,Speaker4,گوینده۴,,,,,,,,0,0,0,59,0,14,14,70,,,,,104.2180887909999,,,,,,,,,,,,,,,,,,,,,,,,,,,,,,,,,,,,,,,,,,,,,104.19502404099876,104.2180887909999,104.2180887909999,104.2180887909999,104.2180887909999,104.22795812433336,104.2180887909999,104.2180887909999,108.15506749999986,Correct! صحیح است,1,1,4,3.9337987500002782,None,108.1552874579993,108.16662166599963,110.16251683299924,,,,,,,,,,,,,,,,,,,,,,,,,,,,,,166961,001,2024-07-03_14h13.58.388,5-32 ready-Group3 English Trained,2024.1.4,None,2024-07-03 14h14.06.243704 +0900,
Images/Speaker1.jpg,Images/Speaker2.jpg,Images/Speaker3.jpg,Images/Speaker4.jpg,Audio/Speaker2_En/P2-19-En.wav,Speaker2,گوینده۲,,,,,,,,0,0,0,59,0,15,15,38,,,,,110.18598099999872,,,,,,,,,,,,,,,,,,,,,,,,,,,,,,,,,,,,,,,,,,,,,110.16268949999903,110.18598099999872,110.18598099999872,110.18598099999872,110.18598099999872,110.19581433333272,110.18598099999872,110.18598099999872,114.42044349999924,Correct! صحیح است,1,1,2,4.22621104099926,None,114.42070933299874,114.43188208299944,116.4172481659989,116.44310462499925,,,,,,,,,,,,,,,,,,,,,,,,,,,,,166961,001,2024-07-03_14h13.58.388,5-32 ready-Group3 English Trained,2024.1.4,None,2024-07-03 14h14.06.243704 +0900,
Images/Speaker1.jpg,Images/Speaker2.jpg,Images/Speaker3.jpg,Images/Speaker4.jpg,Audio/Speaker4_En/P4-4-En.wav,Speaker4,گوینده۴,,,,,,,,0,0,0,59,0,16,16,63,,,,,116.44310462499925,,,,,,,,,,,,,,,,,,,,,,,,,,,,,,,,,,,,,,,,,,,,,116.41826604099879,116.44310462499925,116.44310462499925,116.44310462499925,116.44310462499925,116.44974762433279,116.44310462499925,116.44310462499925,120.69303949999994,Correct! صحیح است,1,1,4,4.244466167001519,None,120.6932623749999,120.70402883299903,122.69574858299893,,,,,,,,,,,,,,,,,,,,,,,,,,,,,,166961,001,2024-07-03_14h13.58.388,5-32 ready-Group3 English Trained,2024.1.4,None,2024-07-03 14h14.06.243704 +0900,
Images/Speaker1.jpg,Images/Speaker2.jpg,Images/Speaker3.jpg,Images/Speaker4.jpg,Audio/Speaker1_En/P1-9-En.wav,Speaker1,گوینده ۱,,,,,,,,0,0,0,59,0,17,17,8,,,,,122.72202554099931,,,,,,,,,,,,,,,,,,,,,,,,,,,,,,,,,,,,,,,,,,,,,122.6964127909996,122.72202554099931,122.72202554099931,122.72202554099931,122.72202554099931,122.72892516633377,122.72202554099931,122.72202554099931,124.38972691599884,Correct! صحیح است,1,1,1,1.6593578339998203,None,124.39458612499948,124.4067944999988,126.39660404099959,,,,,,,,,,,,,,,,,,,,,,,,,,,,,,166961,001,2024-07-03_14h13.58.388,5-32 ready-Group3 English Trained,2024.1.4,None,2024-07-03 14h14.06.243704 +0900,
Images/Speaker1.jpg,Images/Speaker2.jpg,Images/Speaker3.jpg,Images/Speaker4.jpg,Audio/Speaker3_En/P3-1-En.wav,Speaker3,گوینده۳,,,,,,,,0,0,0,59,0,18,18,40,,,,,126.42048824999983,,,,,,,,,,,,,,,,,,,,,,,,,,,,,,,,,,,,,,,,,,,,,126.39677887499965,126.42048824999983,126.42048824999983,126.42048824999983,126.42048824999983,126.42989383333273,126.42048824999983,126.42048824999983,127.7092330409996,Incorrect! The correct answer is Speaker3. نادرست! پاسخ صحیح گوینده۳ است,0,1,2,1.2862014580005052,None,127.71306541599915,127.726873874999,129.7218014579994,,,,,,,,,,,,,,,,,,,,,,,,,,,,,,166961,001,2024-07-03_14h13.58.388,5-32 ready-Group3 English Trained,2024.1.4,None,2024-07-03 14h14.06.243704 +0900,
Images/Speaker1.jpg,Images/Speaker2.jpg,Images/Speaker3.jpg,Images/Speaker4.jpg,Audio/Speaker3_En/P3-19-En.wav,Speaker3,گوینده۳,,,,,,,,0,0,0,59,0,19,19,58,,,,,129.74731004099885,,,,,,,,,,,,,,,,,,,,,,,,,,,,,,,,,,,,,,,,,,,,,129.72251454099933,129.74731004099885,129.74731004099885,129.74731004099885,129.74731004099885,129.75494783333357,129.74731004099885,129.74731004099885,131.88445929099908,Correct! صحیح است,1,1,3,2.13407854199977,None,131.88916929100014,131.90252666599918,133.8874166659989,133.910217749999,,,,,,,,,,,,,,,,,,,,,,,,,,,,,166961,001,2024-07-03_14h13.58.388,5-32 ready-Group3 English Trained,2024.1.4,None,2024-07-03 14h14.06.243704 +0900,
Images/Speaker1.jpg,Images/Speaker2.jpg,Images/Speaker3.jpg,Images/Speaker4.jpg,Audio/Speaker3_En/P3-12-En.wav,Speaker3,گوینده۳,,,,,,,,0,0,0,59,0,20,20,51,,,,,133.910217749999,,,,,,,,,,,,,,,,,,,,,,,,,,,,,,,,,,,,,,,,,,,,,133.8876084579988,133.910217749999,133.910217749999,133.910217749999,133.910217749999,133.90386470766705,133.910217749999,133.910217749999,135.5474376660004,Correct! صحیح است,1,1,3,1.6333426249984768,None,135.55154141599996,135.56314004100022,137.54943958299918,137.5766536659994,,,,,,,,,,,,,,,,,,,,,,,,,,,,,166961,001,2024-07-03_14h13.58.388,5-32 ready-Group3 English Trained,2024.1.4,None,2024-07-03 14h14.06.243704 +0900,
Images/Speaker1.jpg,Images/Speaker2.jpg,Images/Speaker3.jpg,Images/Speaker4.jpg,Audio/Speaker3_En/P3-17-En.wav,Speaker3,گوینده۳,,,,,,,,0,0,0,59,0,21,21,56,,,,,137.5766536659994,,,,,,,,,,,,,,,,,,,,,,,,,,,,,,,,,,,,,,,,,,,,,137.55028737499924,137.5766536659994,137.5766536659994,137.5766536659994,137.5766536659994,137.58194595833316,137.5766536659994,137.5766536659994,138.72314616599942,Correct! صحیح است,1,1,3,1.1440852079995238,None,138.727183125,138.7382513749999,140.72263745799864,140.74784245800038,,,,,,,,,,,,,,,,,,,,,,,,,,,,,166961,001,2024-07-03_14h13.58.388,5-32 ready-Group3 English Trained,2024.1.4,None,2024-07-03 14h14.06.243704 +0900,
Images/Speaker1.jpg,Images/Speaker2.jpg,Images/Speaker3.jpg,Images/Speaker4.jpg,Audio/Speaker3_En/P3-20-En.wav,Speaker3,گوینده۳,,,,,,,,0,0,0,59,0,22,22,59,,,,,140.74784245800038,,,,,,,,,,,,,,,,,,,,,,,,,,,,,,,,,,,,,,,,,,,,,140.7232278749998,140.74784245800038,140.74784245800038,140.74784245800038,140.74784245800038,140.75498649933303,140.74784245800038,140.74784245800038,143.82150512499902,Incorrect! The correct answer is Speaker3. نادرست! پاسخ صحیح گوینده۳ است,0,1,2,3.0668095420005557,None,143.82169629099917,143.8341539159992,145.81749187499918,145.84030837499995,,,,,,,,,,,,,,,,,,,,,,,,,,,,,166961,001,2024-07-03_14h13.58.388,5-32 ready-Group3 English Trained,2024.1.4,None,2024-07-03 14h14.06.243704 +0900,
Images/Speaker1.jpg,Images/Speaker2.jpg,Images/Speaker3.jpg,Images/Speaker4.jpg,Audio/Speaker4_En/P4-8-En.wav,Speaker4,گوینده۴,,,,,,,,0,0,0,59,0,23,23,67,,,,,145.84030837499995,,,,,,,,,,,,,,,,,,,,,,,,,,,,,,,,,,,,,,,,,,,,,145.81768466599897,145.84030837499995,145.84030837499995,145.84030837499995,145.84030837499995,145.83390499966688,145.84030837499995,145.84030837499995,148.09525204099918,Correct! صحیح است,1,1,4,2.2517454579992773,None,148.0990520409996,148.1106478749989,150.097132375,150.12113099999988,,,,,,,,,,,,,,,,,,,,,,,,,,,,,166961,001,2024-07-03_14h13.58.388,5-32 ready-Group3 English Trained,2024.1.4,None,2024-07-03 14h14.06.243704 +0900,
Images/Speaker1.jpg,Images/Speaker2.jpg,Images/Speaker3.jpg,Images/Speaker4.jpg,Audio/Speaker3_En/P3-11-En.wav,Speaker3,گوینده۳,,,,,,,,0,0,0,59,0,24,24,50,,,,,150.12113099999988,,,,,,,,,,,,,,,,,,,,,,,,,,,,,,,,,,,,,,,,,,,,,150.09732304099998,150.12113099999988,150.12113099999988,150.12113099999988,150.12113099999988,150.13025012433224,150.12113099999988,150.12113099999988,151.31683062499906,Correct! صحیح است,1,1,3,1.1871777500000462,None,151.3210084579987,151.33236062499964,153.31664574999922,153.33987791599975,,,,,,,,,,,,,,,,,,,,,,,,,,,,,166961,001,2024-07-03_14h13.58.388,5-32 ready-Group3 English Trained,2024.1.4,None,2024-07-03 14h14.06.243704 +0900,
Images/Speaker1.jpg,Images/Speaker2.jpg,Images/Speaker3.jpg,Images/Speaker4.jpg,Audio/Speaker1_En/P1-10-En.wav,Speaker1,گوینده ۱,,,,,,,,0,0,0,59,0,25,25,9,,,,,153.33987791599975,,,,,,,,,,,,,,,,,,,,,,,,,,,,,,,,,,,,,,,,,,,,,153.31680929100003,153.33987791599975,153.33987791599975,153.33987791599975,153.33987791599975,153.3497842913335,153.33987791599975,153.33987791599975,154.51852387500003,Correct! صحیح است,1,1,1,1.1756573329985258,None,154.52242662499884,154.53333533299883,156.52055220799957,156.54408708299889,,,,,,,,,,,,,,,,,,,,,,,,,,,,,166961,001,2024-07-03_14h13.58.388,5-32 ready-Group3 English Trained,2024.1.4,None,2024-07-03 14h14.06.243704 +0900,
Images/Speaker1.jpg,Images/Speaker2.jpg,Images/Speaker3.jpg,Images/Speaker4.jpg,Audio/Speaker3_En/P3-8-En.wav,Speaker3,گوینده۳,,,,,,,,0,0,0,59,0,26,26,47,,,,,156.54408708299889,,,,,,,,,,,,,,,,,,,,,,,,,,,,,,,,,,,,,,,,,,,,,156.5207048329994,156.54408708299889,156.54408708299889,156.54408708299889,156.54408708299889,156.55364462433369,156.54408708299889,156.54408708299889,158.12949016600032,Correct! صحیح است,1,1,3,1.5783956249997573,None,158.13321499999984,158.1444700409993,160.1292056250004,160.15014895799868,,,,,,,,,,,,,,,,,,,,,,,,,,,,,166961,001,2024-07-03_14h13.58.388,5-32 ready-Group3 English Trained,2024.1.4,None,2024-07-03 14h14.06.243704 +0900,
Images/Speaker1.jpg,Images/Speaker2.jpg,Images/Speaker3.jpg,Images/Speaker4.jpg,Audio/Speaker2_En/P2-12-En.wav,Speaker2,گوینده۲,,,,,,,,0,0,0,59,0,27,27,31,,,,,160.15014895799868,,,,,,,,,,,,,,,,,,,,,,,,,,,,,,,,,,,,,,,,,,,,,160.12936062500012,160.15014895799868,160.15014895799868,160.15014895799868,160.15014895799868,160.14558733266702,160.15014895799868,160.15014895799868,162.17078816600042,Correct! صحیح است,1,1,2,2.013368583000556,None,162.1751017079987,162.1837413329995,164.16945595799916,164.19287670799895,,,,,,,,,,,,,,,,,,,,,,,,,,,,,166961,001,2024-07-03_14h13.58.388,5-32 ready-Group3 English Trained,2024.1.4,None,2024-07-03 14h14.06.243704 +0900,
Images/Speaker1.jpg,Images/Speaker2.jpg,Images/Speaker3.jpg,Images/Speaker4.jpg,Audio/Speaker2_En/P2-11-En.wav,Speaker2,گوینده۲,,,,,,,,0,0,0,59,0,28,28,30,,,,,164.19287670799895,,,,,,,,,,,,,,,,,,,,,,,,,,,,,,,,,,,,,,,,,,,,,164.16965479099963,164.19287670799895,164.19287670799895,164.19287670799895,164.19287670799895,164.20249529133304,164.19287670799895,164.19287670799895,165.70006366599955,Correct! صحیح است,1,1,2,1.5043547919995035,None,165.70415479099938,165.71541158299988,167.69999237499906,167.72340499999882,,,,,,,,,,,,,,,,,,,,,,,,,,,,,166961,001,2024-07-03_14h13.58.388,5-32 ready-Group3 English Trained,2024.1.4,None,2024-07-03 14h14.06.243704 +0900,
Images/Speaker1.jpg,Images/Speaker2.jpg,Images/Speaker3.jpg,Images/Speaker4.jpg,Audio/Speaker4_En/P4-1-En.wav,Speaker4,گوینده۴,,,,,,,,0,0,0,59,0,29,29,60,,,,,167.72340499999882,,,,,,,,,,,,,,,,,,,,,,,,,,,,,,,,,,,,,,,,,,,,,167.7001673750001,167.72340499999882,167.72340499999882,167.72340499999882,167.72340499999882,167.7331199583337,167.72340499999882,167.72340499999882,169.37054379099936,Correct! صحیح است,1,1,4,1.6447711670007266,None,169.3745071659996,169.38590641599876,171.38226466599917,,,,,,,,,,,,,,,,,,,,,,,,,,,,,,166961,001,2024-07-03_14h13.58.388,5-32 ready-Group3 English Trained,2024.1.4,None,2024-07-03 14h14.06.243704 +0900,
Images/Speaker1.jpg,Images/Speaker2.jpg,Images/Speaker3.jpg,Images/Speaker4.jpg,Audio/Speaker4_En/P4-7-En.wav,Speaker4,گوینده۴,,,,,,,,0,0,0,59,0,30,30,66,,,,,171.4055250829988,,,,,,,,,,,,,,,,,,,,,,,,,,,,,,,,,,,,,,,,,,,,,171.3824426659994,171.4055250829988,171.4055250829988,171.4055250829988,171.4055250829988,171.41556195833306,171.4055250829988,171.4055250829988,173.2201389999991,Correct! صحیح است,1,1,4,1.8098062919998483,None,173.22387883299962,173.23529791599867,175.2210583750002,175.24482466599875,,,,,,,,,,,,,,,,,,,,,,,,,,,,,166961,001,2024-07-03_14h13.58.388,5-32 ready-Group3 English Trained,2024.1.4,None,2024-07-03 14h14.06.243704 +0900,
Images/Speaker1.jpg,Images/Speaker2.jpg,Images/Speaker3.jpg,Images/Speaker4.jpg,Audio/Speaker3_En/P3-16-En.wav,Speaker3,گوینده۳,,,,,,,,0,0,0,59,0,31,31,55,,,,,175.24482466599875,,,,,,,,,,,,,,,,,,,,,,,,,,,,,,,,,,,,,,,,,,,,,175.2212558329993,175.24482466599875,175.24482466599875,175.24482466599875,175.24482466599875,175.25415733333335,175.24482466599875,175.24482466599875,177.4548375409995,Correct! صحیح است,1,1,3,2.2020366659999127,None,177.4586419999996,177.47006154100018,179.45683183300025,179.4816449159989,,,,,,,,,,,,,,,,,,,,,,,,,,,,,166961,001,2024-07-03_14h13.58.388,5-32 ready-Group3 English Trained,2024.1.4,None,2024-07-03 14h14.06.243704 +0900,
Images/Speaker1.jpg,Images/Speaker2.jpg,Images/Speaker3.jpg,Images/Speaker4.jpg,Audio/Speaker4_En/P4-16-En.wav,Speaker4,گوینده۴,,,,,,,,0,0,0,59,0,32,32,75,,,,,179.4816449159989,,,,,,,,,,,,,,,,,,,,,,,,,,,,,,,,,,,,,,,,,,,,,179.45778524999878,179.4816449159989,179.4816449159989,179.4816449159989,179.4816449159989,179.4892720413323,179.4816449159989,179.4816449159989,181.0534225829997,Correct! صحیح است,1,1,4,1.5690053340003942,None,181.0573597499988,181.06885929099917,183.05228279099902,183.0754593749989,,,,,,,,,,,,,,,,,,,,,,,,,,,,,166961,001,2024-07-03_14h13.58.388,5-32 ready-Group3 English Trained,2024.1.4,None,2024-07-03 14h14.06.243704 +0900,
Images/Speaker1.jpg,Images/Speaker2.jpg,Images/Speaker3.jpg,Images/Speaker4.jpg,Audio/Speaker2_En/P2-2-En.wav,Speaker2,گوینده۲,,,,,,,,0,0,0,59,0,33,33,21,,,,,183.0754593749989,,,,,,,,,,,,,,,,,,,,,,,,,,,,,,,,,,,,,,,,,,,,,183.05245108300005,183.0754593749989,183.0754593749989,183.0754593749989,183.0754593749989,183.08532558333224,183.0754593749989,183.0754593749989,184.49666745799914,Correct! صحیح است,1,1,2,1.4164449999989301,None,184.50086066599943,184.51243845799945,186.50559174999944,,,,,,,,,,,,,,,,,,,,,,,,,,,,,,166961,001,2024-07-03_14h13.58.388,5-32 ready-Group3 English Trained,2024.1.4,None,2024-07-03 14h14.06.243704 +0900,
Images/Speaker1.jpg,Images/Speaker2.jpg,Images/Speaker3.jpg,Images/Speaker4.jpg,Audio/Speaker1_En/P1-18-En.wav,Speaker1,گوینده ۱,,,,,,,,0,0,0,59,0,34,34,17,,,,,186.53041612499874,,,,,,,,,,,,,,,,,,,,,,,,,,,,,,,,,,,,,,,,,,,,,186.50618099999883,186.53041612499874,186.53041612499874,186.53041612499874,186.53041612499874,186.538717166332,186.53041612499874,186.53041612499874,187.56305962499937,Correct! صحیح است,1,1,1,1.030575165999835,None,187.56678558299973,187.57758629099953,189.5721385830002,,,,,,,,,,,,,,,,,,,,,,,,,,,,,,166961,001,2024-07-03_14h13.58.388,5-32 ready-Group3 English Trained,2024.1.4,None,2024-07-03 14h14.06.243704 +0900,
Images/Speaker1.jpg,Images/Speaker2.jpg,Images/Speaker3.jpg,Images/Speaker4.jpg,Audio/Speaker2_En/P2-7-En.wav,Speaker2,گوینده۲,,,,,,,,0,0,0,59,0,35,35,26,,,,,189.59538549999888,,,,,,,,,,,,,,,,,,,,,,,,,,,,,,,,,,,,,,,,,,,,,189.5723022080001,189.59538549999888,189.59538549999888,189.59538549999888,189.59538549999888,189.60543812433258,189.59538549999888,189.59538549999888,190.9166782079992,Correct! صحیح است,1,1,2,1.3161657079999713,None,190.9217694580002,190.9347652079996,192.91995145799956,192.94323504099884,,,,,,,,,,,,,,,,,,,,,,,,,,,,,166961,001,2024-07-03_14h13.58.388,5-32 ready-Group3 English Trained,2024.1.4,None,2024-07-03 14h14.06.243704 +0900,
Images/Speaker1.jpg,Images/Speaker2.jpg,Images/Speaker3.jpg,Images/Speaker4.jpg,Audio/Speaker4_En/P4-20-En.wav,Speaker4,گوینده۴,,,,,,,,0,0,0,59,0,36,36,79,,,,,192.94323504099884,,,,,,,,,,,,,,,,,,,,,,,,,,,,,,,,,,,,,,,,,,,,,192.9201604159989,192.94323504099884,192.94323504099884,192.94323504099884,192.94323504099884,192.95300704133348,192.94323504099884,192.94323504099884,194.2439925409999,Correct! صحیح است,1,1,4,1.2957400830000552,None,194.24790112499977,194.25933995800006,196.25381424999978,,,,,,,,,,,,,,,,,,,,,,,,,,,,,,166961,001,2024-07-03_14h13.58.388,5-32 ready-Group3 English Trained,2024.1.4,None,2024-07-03 14h14.06.243704 +0900,
Images/Speaker1.jpg,Images/Speaker2.jpg,Images/Speaker3.jpg,Images/Speaker4.jpg,Audio/Speaker3_En/P3-4-En.wav,Speaker3,گوینده۳,,,,,,,,0,0,0,59,0,37,37,43,,,,,196.27799187500023,,,,,,,,,,,,,,,,,,,,,,,,,,,,,,,,,,,,,,,,,,,,,196.25397766599963,196.27799187500023,196.27799187500023,196.27799187500023,196.27799187500023,196.28710583333356,196.27799187500023,196.27799187500023,198.16752916599944,Correct! صحیح است,1,1,3,1.8880654580007104,None,198.17184537499998,198.18288229099926,200.17350954100039,,,,,,,,,,,,,,,,,,,,,,,,,,,,,,166961,001,2024-07-03_14h13.58.388,5-32 ready-Group3 English Trained,2024.1.4,None,2024-07-03 14h14.06.243704 +0900,
Images/Speaker1.jpg,Images/Speaker2.jpg,Images/Speaker3.jpg,Images/Speaker4.jpg,Audio/Speaker4_En/P4-13-En.wav,Speaker4,گوینده۴,,,,,,,,0,0,0,59,0,38,38,72,,,,,200.1967252079994,,,,,,,,,,,,,,,,,,,,,,,,,,,,,,,,,,,,,,,,,,,,,200.17368420799903,200.1967252079994,200.1967252079994,200.1967252079994,200.1967252079994,200.19013145766647,200.1967252079994,200.1967252079994,201.7292063749992,Correct! صحیح است,1,1,4,1.5290095830005157,None,201.73314579100042,201.74495583299904,203.7284167079997,203.75249633299973,,,,,,,,,,,,,,,,,,,,,,,,,,,,,166961,001,2024-07-03_14h13.58.388,5-32 ready-Group3 English Trained,2024.1.4,None,2024-07-03 14h14.06.243704 +0900,
Images/Speaker1.jpg,Images/Speaker2.jpg,Images/Speaker3.jpg,Images/Speaker4.jpg,Audio/Speaker3_En/P3-15-En.wav,Speaker3,گوینده۳,,,,,,,,0,0,0,59,0,39,39,54,,,,,203.75249633299973,,,,,,,,,,,,,,,,,,,,,,,,,,,,,,,,,,,,,,,,,,,,,203.72859587499988,203.75249633299973,203.75249633299973,203.75249633299973,203.75249633299973,203.7614497083328,203.75249633299973,203.75249633299973,205.54787866599872,Correct! صحیح است,1,1,3,1.7936002080004982,None,205.55218533299922,205.56314666599974,207.55108974999894,207.57748587499918,,,,,,,,,,,,,,,,,,,,,,,,,,,,,166961,001,2024-07-03_14h13.58.388,5-32 ready-Group3 English Trained,2024.1.4,None,2024-07-03 14h14.06.243704 +0900,
Images/Speaker1.jpg,Images/Speaker2.jpg,Images/Speaker3.jpg,Images/Speaker4.jpg,Audio/Speaker1_En/P1-2-En.wav,Speaker1,گوینده ۱,,,,,,,,0,0,0,59,0,40,40,1,,,,,207.57748587499918,,,,,,,,,,,,,,,,,,,,,,,,,,,,,,,,,,,,,,,,,,,,,207.55206416599867,207.57748587499918,207.57748587499918,207.57748587499918,207.57748587499918,207.58350966633276,207.57748587499918,207.57748587499918,208.6013487500004,Correct! صحیح است,1,1,1,1.0216336249995948,None,208.60565162499915,208.61647816599907,210.60071516599965,210.6230785409989,,,,,,,,,,,,,,,,,,,,,,,,,,,,,166961,001,2024-07-03_14h13.58.388,5-32 ready-Group3 English Trained,2024.1.4,None,2024-07-03 14h14.06.243704 +0900,
Images/Speaker1.jpg,Images/Speaker2.jpg,Images/Speaker3.jpg,Images/Speaker4.jpg,Audio/Speaker1_En/P1-7-En.wav,Speaker1,گوینده ۱,,,,,,,,0,0,0,59,0,41,41,6,,,,,210.6230785409989,,,,,,,,,,,,,,,,,,,,,,,,,,,,,,,,,,,,,,,,,,,,,210.6008689579994,210.6230785409989,210.6230785409989,210.6230785409989,210.6230785409989,210.61716733266647,210.6230785409989,210.6230785409989,212.1403697909991,Correct! صحیح است,1,1,1,1.5089216669985035,None,212.14440549999927,212.1556276249994,214.14741045799929,,,,,,,,,,,,,,,,,,,,,,,,,,,,,,166961,001,2024-07-03_14h13.58.388,5-32 ready-Group3 English Trained,2024.1.4,None,2024-07-03 14h14.06.243704 +0900,
Images/Speaker1.jpg,Images/Speaker2.jpg,Images/Speaker3.jpg,Images/Speaker4.jpg,Audio/Speaker2_En/P2-5-En.wav,Speaker2,گوینده۲,,,,,,,,0,0,0,59,0,42,42,24,,,,,214.17228279099982,,,,,,,,,,,,,,,,,,,,,,,,,,,,,,,,,,,,,,,,,,,,,214.14810312499867,214.17228279099982,214.17228279099982,214.17228279099982,214.17228279099982,214.18055024933216,214.17228279099982,214.17228279099982,215.66329525000037,Correct! صحیح است,1,1,2,1.4857750840001245,None,215.66845149999972,215.68046566599878,217.67156141600026,,,,,,,,,,,,,,,,,,,,,,,,,,,,,,166961,001,2024-07-03_14h13.58.388,5-32 ready-Group3 English Trained,2024.1.4,None,2024-07-03 14h14.06.243704 +0900,
Images/Speaker1.jpg,Images/Speaker2.jpg,Images/Speaker3.jpg,Images/Speaker4.jpg,Audio/Speaker1_En/P1-1-En.wav,Speaker1,گوینده ۱,,,,,,,,0,0,0,59,0,43,43,0,,,,,217.69645175000005,,,,,,,,,,,,,,,,,,,,,,,,,,,,,,,,,,,,,,,,,,,,,217.67225195799983,217.69645175000005,217.69645175000005,217.69645175000005,217.69645175000005,217.7047227493336,217.69645175000005,217.69645175000005,219.32894487500016,Correct! صحیح است,1,1,1,1.631242832998396,None,219.33318662499914,219.34522924999874,221.3301515410003,221.35528587499903,,,,,,,,,,,,,,,,,,,,,,,,,,,,,166961,001,2024-07-03_14h13.58.388,5-32 ready-Group3 English Trained,2024.1.4,None,2024-07-03 14h14.06.243704 +0900,
Images/Speaker1.jpg,Images/Speaker2.jpg,Images/Speaker3.jpg,Images/Speaker4.jpg,Audio/Speaker1_En/P1-12-En.wav,Speaker1,گوینده ۱,,,,,,,,0,0,0,59,0,44,44,11,,,,,221.35528587499903,,,,,,,,,,,,,,,,,,,,,,,,,,,,,,,,,,,,,,,,,,,,,221.33119895799973,221.35528587499903,221.35528587499903,221.35528587499903,221.35528587499903,221.36264133333367,221.35528587499903,221.35528587499903,222.57240108299993,Correct! صحیح است,1,1,1,1.206078167000669,None,222.57727354099916,222.589072666,224.57925041599992,,,,,,,,,,,,,,,,,,,,,,,,,,,,,,166961,001,2024-07-03_14h13.58.388,5-32 ready-Group3 English Trained,2024.1.4,None,2024-07-03 14h14.06.243704 +0900,
Images/Speaker1.jpg,Images/Speaker2.jpg,Images/Speaker3.jpg,Images/Speaker4.jpg,Audio/Speaker2_En/P2-10-En.wav,Speaker2,گوینده۲,,,,,,,,0,0,0,59,0,45,45,29,,,,,224.6054937079989,,,,,,,,,,,,,,,,,,,,,,,,,,,,,,,,,,,,,,,,,,,,,224.57990187500036,224.6054937079989,224.6054937079989,224.6054937079989,224.6054937079989,224.61240433333347,224.6054937079989,224.6054937079989,225.88534629099922,Correct! صحیح است,1,1,2,1.2719508749996749,None,225.88958295799966,225.89866758300013,227.88544645799993,227.90884274999917,,,,,,,,,,,,,,,,,,,,,,,,,,,,,166961,001,2024-07-03_14h13.58.388,5-32 ready-Group3 English Trained,2024.1.4,None,2024-07-03 14h14.06.243704 +0900,
Images/Speaker1.jpg,Images/Speaker2.jpg,Images/Speaker3.jpg,Images/Speaker4.jpg,Audio/Speaker1_En/P1-17-En.wav,Speaker1,گوینده ۱,,,,,,,,0,0,0,59,0,46,46,16,,,,,227.90884274999917,,,,,,,,,,,,,,,,,,,,,,,,,,,,,,,,,,,,,,,,,,,,,227.88564762500027,227.90884274999917,227.90884274999917,227.90884274999917,227.90884274999917,227.91848749933212,227.90884274999917,227.90884274999917,229.1719281659989,Correct! صحیح است,1,1,1,1.2563286250006058,None,229.17574824999974,229.186770332999,231.1821873329991,,,,,,,,,,,,,,,,,,,,,,,,,,,,,,166961,001,2024-07-03_14h13.58.388,5-32 ready-Group3 English Trained,2024.1.4,None,2024-07-03 14h14.06.243704 +0900,
Images/Speaker1.jpg,Images/Speaker2.jpg,Images/Speaker3.jpg,Images/Speaker4.jpg,Audio/Speaker4_En/P4-10-En.wav,Speaker4,گوینده۴,,,,,,,,0,0,0,59,0,47,47,69,,,,,231.20827762499903,,,,,,,,,,,,,,,,,,,,,,,,,,,,,,,,,,,,,,,,,,,,,231.18282845799877,231.20827762499903,231.20827762499903,231.20827762499903,231.20827762499903,231.21537358333313,231.20827762499903,231.20827762499903,232.45972454099865,Correct! صحیح است,1,1,4,1.2486062909993052,None,232.4638730409988,232.47497612499865,234.45994779099965,234.48531741599982,,,,,,,,,,,,,,,,,,,,,,,,,,,,,166961,001,2024-07-03_14h13.58.388,5-32 ready-Group3 English Trained,2024.1.4,None,2024-07-03 14h14.06.243704 +0900,
Images/Speaker1.jpg,Images/Speaker2.jpg,Images/Speaker3.jpg,Images/Speaker4.jpg,Audio/Speaker3_En/P3-6-En.wav,Speaker3,گوینده۳,,,,,,,,0,0,0,59,0,48,48,45,,,,,234.48531741599982,,,,,,,,,,,,,,,,,,,,,,,,,,,,,,,,,,,,,,,,,,,,,234.46011550000003,234.48531741599982,234.48531741599982,234.48531741599982,234.48531741599982,234.49301399933262,234.48531741599982,234.48531741599982,236.08386708299986,Correct! صحیح است,1,1,3,1.5939189580003585,None,236.08765970799868,236.0997678749991,238.08267891600008,238.10565708299873,,,,,,,,,,,,,,,,,,,,,,,,,,,,,166961,001,2024-07-03_14h13.58.388,5-32 ready-Group3 English Trained,2024.1.4,None,2024-07-03 14h14.06.243704 +0900,
Images/Speaker1.jpg,Images/Speaker2.jpg,Images/Speaker3.jpg,Images/Speaker4.jpg,Audio/Speaker4_En/P4-18-En.wav,Speaker4,گوینده۴,,,,,,,,0,0,0,59,0,49,49,77,,,,,238.10565708299873,,,,,,,,,,,,,,,,,,,,,,,,,,,,,,,,,,,,,,,,,,,,,238.0828611249999,238.10565708299873,238.10565708299873,238.10565708299873,238.10565708299873,238.09917833266653,238.10565708299873,238.10565708299873,239.48916670799917,Correct! صحیح است,1,1,4,1.3767400840006303,None,239.49418758299907,239.50669091599957,241.50069724999958,,,,,,,,,,,,,,,,,,,,,,,,,,,,,,166961,001,2024-07-03_14h13.58.388,5-32 ready-Group3 English Trained,2024.1.4,None,2024-07-03 14h14.06.243704 +0900,
Images/Speaker1.jpg,Images/Speaker2.jpg,Images/Speaker3.jpg,Images/Speaker4.jpg,Audio/Speaker1_En/P1-5-En.wav,Speaker1,گوینده ۱,,,,,,,,0,0,0,59,0,50,50,4,,,,,241.5287697499989,,,,,,,,,,,,,,,,,,,,,,,,,,,,,,,,,,,,,,,,,,,,,241.50137270800042,241.5287697499989,241.5287697499989,241.5287697499989,241.5287697499989,241.5338788333325,241.5287697499989,241.5287697499989,242.89069137499973,Correct! صحیح است,1,1,1,1.358848208999916,None,242.89459245800026,242.90588920799928,244.89469354100038,,,,,,,,,,,,,,,,,,,,,,,,,,,,,,166961,001,2024-07-03_14h13.58.388,5-32 ready-Group3 English Trained,2024.1.4,None,2024-07-03 14h14.06.243704 +0900,
Images/Speaker1.jpg,Images/Speaker2.jpg,Images/Speaker3.jpg,Images/Speaker4.jpg,Audio/Speaker1_En/P1-4-En.wav,Speaker1,گوینده ۱,,,,,,,,0,0,0,59,0,51,51,3,,,,,244.9223017080003,,,,,,,,,,,,,,,,,,,,,,,,,,,,,,,,,,,,,,,,,,,,,244.89535458299906,244.9223017080003,244.9223017080003,244.9223017080003,244.9223017080003,244.9278733743327,244.9223017080003,244.9223017080003,246.3501132909987,Correct! صحیح است,1,1,1,1.4223255830002017,None,246.35523491599997,246.36795091599924,248.35306599999967,248.37613299999975,,,,,,,,,,,,,,,,,,,,,,,,,,,,,166961,001,2024-07-03_14h13.58.388,5-32 ready-Group3 English Trained,2024.1.4,None,2024-07-03 14h14.06.243704 +0900,
Images/Speaker1.jpg,Images/Speaker2.jpg,Images/Speaker3.jpg,Images/Speaker4.jpg,Audio/Speaker2_En/P2-17-En.wav,Speaker2,گوینده۲,,,,,,,,0,0,0,59,0,52,52,36,,,,,248.37613299999975,,,,,,,,,,,,,,,,,,,,,,,,,,,,,,,,,,,,,,,,,,,,,248.3532638329998,248.37613299999975,248.37613299999975,248.37613299999975,248.37613299999975,248.3695322076658,248.37613299999975,248.37613299999975,249.43066966599872,Correct! صحیح است,1,1,2,1.052361791000294,None,249.4349051249992,249.44627554100043,251.4335821249988,251.45677933299885,,,,,,,,,,,,,,,,,,,,,,,,,,,,,166961,001,2024-07-03_14h13.58.388,5-32 ready-Group3 English Trained,2024.1.4,None,2024-07-03 14h14.06.243704 +0900,
Images/Speaker1.jpg,Images/Speaker2.jpg,Images/Speaker3.jpg,Images/Speaker4.jpg,Audio/Speaker4_En/P4-3-En.wav,Speaker4,گوینده۴,,,,,,,,0,0,0,59,0,53,53,62,,,,,251.45677933299885,,,,,,,,,,,,,,,,,,,,,,,,,,,,,,,,,,,,,,,,,,,,,251.43376858299962,251.45677933299885,251.45677933299885,251.45677933299885,251.45677933299885,251.46662454133235,251.45677933299885,251.45677933299885,252.83872970799894,Correct! صحیح است,1,1,4,1.380175042000701,None,252.842739624999,252.85459249999985,254.83781870799976,254.8625809160003,,,,,,,,,,,,,,,,,,,,,,,,,,,,,166961,001,2024-07-03_14h13.58.388,5-32 ready-Group3 English Trained,2024.1.4,None,2024-07-03 14h14.06.243704 +0900,
Images/Speaker1.jpg,Images/Speaker2.jpg,Images/Speaker3.jpg,Images/Speaker4.jpg,Audio/Speaker3_En/P3-2-En.wav,Speaker3,گوینده۳,,,,,,,,0,0,0,59,0,54,54,41,,,,,254.8625809160003,,,,,,,,,,,,,,,,,,,,,,,,,,,,,,,,,,,,,,,,,,,,,254.8379888749987,254.8625809160003,254.8625809160003,254.8625809160003,254.8625809160003,254.8709129993336,254.8625809160003,254.8625809160003,256.7670300409991,Correct! صحیح است,1,1,3,1.9010433330004162,None,256.7709227079995,256.78243404099885,258.773587624999,,,,,,,,,,,,,,,,,,,,,,,,,,,,,,166961,001,2024-07-03_14h13.58.388,5-32 ready-Group3 English Trained,2024.1.4,None,2024-07-03 14h14.06.243704 +0900,
Images/Speaker1.jpg,Images/Speaker2.jpg,Images/Speaker3.jpg,Images/Speaker4.jpg,Audio/Speaker4_En/P4-17-En.wav,Speaker4,گوینده۴,,,,,,,,0,0,0,59,0,55,55,76,,,,,258.7964165409994,,,,,,,,,,,,,,,,,,,,,,,,,,,,,,,,,,,,,,,,,,,,,258.7737718749995,258.7964165409994,258.7964165409994,258.7964165409994,258.7964165409994,258.7902094996664,258.7964165409994,258.7964165409994,260.38529758299956,Correct! صحیح است,1,1,4,1.5824435419999645,None,260.38902666600006,260.4004124999992,262.3905667500003,,,,,,,,,,,,,,,,,,,,,,,,,,,,,,166961,001,2024-07-03_14h13.58.388,5-32 ready-Group3 English Trained,2024.1.4,None,2024-07-03 14h14.06.243704 +0900,
Images/Speaker1.jpg,Images/Speaker2.jpg,Images/Speaker3.jpg,Images/Speaker4.jpg,Audio/Speaker4_En/P4-12-En.wav,Speaker4,گوینده۴,,,,,,,,0,0,0,59,0,56,56,71,,,,,262.41630045799866,,,,,,,,,,,,,,,,,,,,,,,,,,,,,,,,,,,,,,,,,,,,,262.39115870800015,262.41630045799866,262.41630045799866,262.41630045799866,262.41630045799866,262.4238592083334,262.41630045799866,262.41630045799866,264.7204637499999,Correct! صحیح است,1,1,4,2.2988988750003045,None,264.7255895830003,264.738795457999,266.7332804580001,,,,,,,,,,,,,,,,,,,,,,,,,,,,,,166961,001,2024-07-03_14h13.58.388,5-32 ready-Group3 English Trained,2024.1.4,None,2024-07-03 14h14.06.243704 +0900,
Images/Speaker1.jpg,Images/Speaker2.jpg,Images/Speaker3.jpg,Images/Speaker4.jpg,Audio/Speaker2_En/P2-13-En.wav,Speaker2,گوینده۲,,,,,,,,0,0,0,59,0,57,57,32,,,,,266.7590191250001,,,,,,,,,,,,,,,,,,,,,,,,,,,,,,,,,,,,,,,,,,,,,266.73388474999956,266.7590191250001,266.7590191250001,266.7590191250001,266.7590191250001,266.76645783333197,266.7590191250001,266.7590191250001,268.18069225,Correct! صحیح است,1,1,2,1.418337832999896,None,268.1850180829988,268.19618875000015,270.181649958,270.2060319159991,,,,,,,,,,,,,,,,,,,,,,,,,,,,,166961,001,2024-07-03_14h13.58.388,5-32 ready-Group3 English Trained,2024.1.4,None,2024-07-03 14h14.06.243704 +0900,
Images/Speaker1.jpg,Images/Speaker2.jpg,Images/Speaker3.jpg,Images/Speaker4.jpg,Audio/Speaker3_En/P3-5-En.wav,Speaker3,گوینده۳,,,,,,,,0,0,0,59,0,58,58,44,,,,,270.2060319159991,,,,,,,,,,,,,,,,,,,,,,,,,,,,,,,,,,,,,,,,,,,,,270.18183449999924,270.2060319159991,270.2060319159991,270.2060319159991,270.2060319159991,270.2147398743332,270.2060319159991,270.2060319159991,271.8283802909991,Correct! صحیح است,1,1,3,1.6135419580004964,None,271.8322169999992,271.8440000829996,273.8373393330003,,,,,,,,,,,,,,,,,,,,,,,,,,,,,,166961,001,2024-07-03_14h13.58.388,5-32 ready-Group3 English Trained,2024.1.4,None,2024-07-03 14h14.06.243704 +0900,
Images/Speaker1.jpg,Images/Speaker2.jpg,Images/Speaker3.jpg,Images/Speaker4.jpg,Audio/Speaker1_En/P1-11-En.wav,Speaker1,گوینده ۱,,,,,,,,0,0,0,59,0,59,59,10,,,,,273.861043040999,,,,,,,,,,,,,,,,,,,,,,,,,,,,,,,,,,,,,,,,,,,,,273.8375173329987,273.861043040999,273.861043040999,273.861043040999,273.861043040999,273.8706297913327,273.861043040999,273.861043040999,275.37710879099905,Correct! صحیح است,1,1,1,1.512268458998733,None,275.38129024999944,275.3924633329989,277.38556516599965,,,,,,,,,,,,,,,,,,,,,,,,,,,,,,166961,001,2024-07-03_14h13.58.388,5-32 ready-Group3 English Trained,2024.1.4,None,2024-07-03 14h14.06.243704 +0900,
Images/Speaker1.jpg,Images/Speaker2.jpg,Images/Speaker3.jpg,Images/Speaker4.jpg,Audio/Speaker2_En/P2-4-En.wav,Speaker2,گوینده۲,,,,,,,,0,0,0,59,0,60,60,23,,,,,277.4106203329993,,,,,,,,,,,,,,,,,,,,,,,,,,,,,,,,,,,,,,,,,,,,,277.3862108329995,277.4106203329993,277.4106203329993,277.4106203329993,277.4106203329993,277.4187084993323,277.4106203329993,277.4106203329993,278.7662557499989,Correct! صحیح است,1,1,2,1.3511997910009086,None,278.7706828749997,278.7831900410001,280.775006165999,,,,,,,,,,,,,,,,,,,,,,,,,,,,,,166961,001,2024-07-03_14h13.58.388,5-32 ready-Group3 English Trained,2024.1.4,None,2024-07-03 14h14.06.243704 +0900,
Images/Speaker1.jpg,Images/Speaker2.jpg,Images/Speaker3.jpg,Images/Speaker4.jpg,Audio/Speaker3_En/P3-7-En.wav,Speaker3,گوینده۳,,,,,,,,0,0,0,59,0,61,61,46,,,,,280.80123804100003,,,,,,,,,,,,,,,,,,,,,,,,,,,,,,,,,,,,,,,,,,,,,280.77561849999984,280.80123804100003,280.80123804100003,280.80123804100003,280.80123804100003,280.80818383333326,280.80123804100003,280.80123804100003,282.379372333,Correct! صحیح است,1,1,3,1.5747174999996787,None,282.38321379099943,282.39478983299887,284.37889174999873,284.4011469999987,,,,,,,,,,,,,,,,,,,,,,,,,,,,,166961,001,2024-07-03_14h13.58.388,5-32 ready-Group3 English Trained,2024.1.4,None,2024-07-03 14h14.06.243704 +0900,
Images/Speaker1.jpg,Images/Speaker2.jpg,Images/Speaker3.jpg,Images/Speaker4.jpg,Audio/Speaker2_En/P2-18-En.wav,Speaker2,گوینده۲,,,,,,,,0,0,0,59,0,62,62,37,,,,,284.4011469999987,,,,,,,,,,,,,,,,,,,,,,,,,,,,,,,,,,,,,,,,,,,,,284.37906604099953,284.4011469999987,284.4011469999987,284.4011469999987,284.4011469999987,284.3953502496663,284.4011469999987,284.4011469999987,286.0008032499991,Correct! صحیح است,1,1,2,1.5938165000006848,None,286.004795290999,286.0160908329999,288.00154791599925,288.0249762080002,,,,,,,,,,,,,,,,,,,,,,,,,,,,,166961,001,2024-07-03_14h13.58.388,5-32 ready-Group3 English Trained,2024.1.4,None,2024-07-03 14h14.06.243704 +0900,
Images/Speaker1.jpg,Images/Speaker2.jpg,Images/Speaker3.jpg,Images/Speaker4.jpg,Audio/Speaker1_En/P1-20-En.wav,Speaker1,گوینده ۱,,,,,,,,0,0,0,59,0,63,63,19,,,,,288.0249762080002,,,,,,,,,,,,,,,,,,,,,,,,,,,,,,,,,,,,,,,,,,,,,288.0020528749992,288.0249762080002,288.0249762080002,288.0249762080002,288.0249762080002,288.0338433743332,288.0249762080002,288.0249762080002,289.3252452500001,Correct! صحیح است,1,1,1,1.2897345420005877,None,289.3295074580001,289.3416228749993,291.32519125,291.3502427909989,,,,,,,,,,,,,,,,,,,,,,,,,,,,,166961,001,2024-07-03_14h13.58.388,5-32 ready-Group3 English Trained,2024.1.4,None,2024-07-03 14h14.06.243704 +0900,
Images/Speaker1.jpg,Images/Speaker2.jpg,Images/Speaker3.jpg,Images/Speaker4.jpg,Audio/Speaker4_En/P4-14-En.wav,Speaker4,گوینده۴,,,,,,,,0,0,0,59,0,64,64,73,,,,,291.3502427909989,,,,,,,,,,,,,,,,,,,,,,,,,,,,,,,,,,,,,,,,,,,,,291.32535199999984,291.3502427909989,291.3502427909989,291.3502427909989,291.3502427909989,291.3582682083329,291.3502427909989,291.3502427909989,292.9666627909992,Correct! صحیح است,1,1,4,1.610940209000546,None,292.97075066599973,292.9820667499989,294.97035658299865,294.9966034579993,,,,,,,,,,,,,,,,,,,,,,,,,,,,,166961,001,2024-07-03_14h13.58.388,5-32 ready-Group3 English Trained,2024.1.4,None,2024-07-03 14h14.06.243704 +0900,
Images/Speaker1.jpg,Images/Speaker2.jpg,Images/Speaker3.jpg,Images/Speaker4.jpg,Audio/Speaker4_En/P4-19-En.wav,Speaker4,گوینده۴,,,,,,,,0,0,0,59,0,65,65,78,,,,,294.9966034579993,,,,,,,,,,,,,,,,,,,,,,,,,,,,,,,,,,,,,,,,,,,,,294.971361124999,294.9966034579993,294.9966034579993,294.9966034579993,294.9966034579993,295.00281183333254,294.9966034579993,294.9966034579993,296.62250933299947,Correct! صحیح است,1,1,4,1.6241831659990567,None,296.62671883300027,296.6379686250002,298.6276482909998,,,,,,,,,,,,,,,,,,,,,,,,,,,,,,166961,001,2024-07-03_14h13.58.388,5-32 ready-Group3 English Trained,2024.1.4,None,2024-07-03 14h14.06.243704 +0900,
Images/Speaker1.jpg,Images/Speaker2.jpg,Images/Speaker3.jpg,Images/Speaker4.jpg,Audio/Speaker3_En/P3-10-En.wav,Speaker3,گوینده۳,,,,,,,,0,0,0,59,0,66,66,49,,,,,298.65412300000025,,,,,,,,,,,,,,,,,,,,,,,,,,,,,,,,,,,,,,,,,,,,,298.62828233300024,298.65412300000025,298.65412300000025,298.65412300000025,298.65412300000025,298.6608047913328,298.65412300000025,298.65412300000025,300.27192454099895,Correct! صحیح است,1,1,3,1.6168007090000174,None,300.2757840409995,300.2869990830004,302.27085916599935,302.2933965409993,,,,,,,,,,,,,,,,,,,,,,,,,,,,,166961,001,2024-07-03_14h13.58.388,5-32 ready-Group3 English Trained,2024.1.4,None,2024-07-03 14h14.06.243704 +0900,
Images/Speaker1.jpg,Images/Speaker2.jpg,Images/Speaker3.jpg,Images/Speaker4.jpg,Audio/Speaker3_En/P3-9-En.wav,Speaker3,گوینده۳,,,,,,,,0,0,0,59,0,67,67,48,,,,,302.2933965409993,,,,,,,,,,,,,,,,,,,,,,,,,,,,,,,,,,,,,,,,,,,,,302.27104899999904,302.2933965409993,302.2933965409993,302.2933965409993,302.2933965409993,302.287298999667,302.2933965409993,302.2933965409993,304.7908567909999,Correct! صحیح است,1,1,3,2.489511333000337,None,304.79483779099974,304.8062289159989,306.7905059579989,306.81492937499934,,,,,,,,,,,,,,,,,,,,,,,,,,,,,166961,001,2024-07-03_14h13.58.388,5-32 ready-Group3 English Trained,2024.1.4,None,2024-07-03 14h14.06.243704 +0900,
Images/Speaker1.jpg,Images/Speaker2.jpg,Images/Speaker3.jpg,Images/Speaker4.jpg,Audio/Speaker1_En/P1-8-En.wav,Speaker1,گوینده ۱,,,,,,,,0,0,0,59,0,68,68,7,,,,,306.81492937499934,,,,,,,,,,,,,,,,,,,,,,,,,,,,,,,,,,,,,,,,,,,,,306.79068958300013,306.81492937499934,306.81492937499934,306.81492937499934,306.81492937499934,306.823605291333,306.81492937499934,306.81492937499934,308.285549582999,Correct! صحیح است,1,1,1,1.4681698339991271,None,308.28959612499966,308.30152766599895,310.28735920799954,310.308865125,,,,,,,,,,,,,,,,,,,,,,,,,,,,,166961,001,2024-07-03_14h13.58.388,5-32 ready-Group3 English Trained,2024.1.4,None,2024-07-03 14h14.06.243704 +0900,
Images/Speaker1.jpg,Images/Speaker2.jpg,Images/Speaker3.jpg,Images/Speaker4.jpg,Audio/Speaker1_En/P1-4-En.wav,Speaker1,گوینده ۱,,,,,,,,0,0,0,59,0,69,69,13,,,,,310.308865125,,,,,,,,,,,,,,,,,,,,,,,,,,,,,,,,,,,,,,,,,,,,,310.28755595799885,310.308865125,310.308865125,310.308865125,310.308865125,310.30379304166695,310.308865125,310.308865125,311.71928395800023,Correct! صحیح است,1,1,1,1.3983859589989152,None,311.72305066599984,311.7344199580002,313.7199384159994,313.74221533299897,,,,,,,,,,,,,,,,,,,,,,,,,,,,,166961,001,2024-07-03_14h13.58.388,5-32 ready-Group3 English Trained,2024.1.4,None,2024-07-03 14h14.06.243704 +0900,
Images/Speaker1.jpg,Images/Speaker2.jpg,Images/Speaker3.jpg,Images/Speaker4.jpg,Audio/Speaker3_En/P3-18-En.wav,Speaker3,گوینده۳,,,,,,,,0,0,0,59,0,70,70,57,,,,,313.74221533299897,,,,,,,,,,,,,,,,,,,,,,,,,,,,,,,,,,,,,,,,,,,,,313.7201193330002,313.74221533299897,313.74221533299897,313.74221533299897,313.74221533299897,313.7362690826669,313.74221533299897,313.74221533299897,315.66669724999883,Correct! صحیح است,1,1,3,1.9225487500007148,None,315.67058633299894,315.6818037079993,317.6680926249992,317.69502604099944,,,,,,,,,,,,,,,,,,,,,,,,,,,,,166961,001,2024-07-03_14h13.58.388,5-32 ready-Group3 English Trained,2024.1.4,None,2024-07-03 14h14.06.243704 +0900,
Images/Speaker1.jpg,Images/Speaker2.jpg,Images/Speaker3.jpg,Images/Speaker4.jpg,Audio/Speaker4_En/P4-5-En.wav,Speaker4,گوینده۴,,,,,,,,0,0,0,59,0,71,71,64,,,,,317.69502604099944,,,,,,,,,,,,,,,,,,,,,,,,,,,,,,,,,,,,,,,,,,,,,317.66863429099976,317.69502604099944,317.69502604099944,317.69502604099944,317.69502604099944,317.7004552083331,317.69502604099944,317.69502604099944,319.34800299999915,Correct! صحیح است,1,1,4,1.6457291670012637,None,319.35186804099976,319.3611685830001,321.3528986250003,,,,,,,,,,,,,,,,,,,,,,,,,,,,,,166961,001,2024-07-03_14h13.58.388,5-32 ready-Group3 English Trained,2024.1.4,None,2024-07-03 14h14.06.243704 +0900,
Images/Speaker1.jpg,Images/Speaker2.jpg,Images/Speaker3.jpg,Images/Speaker4.jpg,Audio/Speaker1_En/P1-16-En.wav,Speaker1,گوینده ۱,,,,,,,,0,0,0,59,0,72,72,15,,,,,321.37868183299906,,,,,,,,,,,,,,,,,,,,,,,,,,,,,,,,,,,,,,,,,,,,,321.353473707999,321.37868183299906,321.37868183299906,321.37868183299906,321.37868183299906,321.3860960833322,321.37868183299906,321.37868183299906,322.85932608300027,Correct! صحیح است,1,1,1,1.4714051249993645,None,322.8630923749988,322.87444208299894,324.8611304160004,324.8874154160003,,,,,,,,,,,,,,,,,,,,,,,,,,,,,166961,001,2024-07-03_14h13.58.388,5-32 ready-Group3 English Trained,2024.1.4,None,2024-07-03 14h14.06.243704 +0900,
Images/Speaker1.jpg,Images/Speaker2.jpg,Images/Speaker3.jpg,Images/Speaker4.jpg,Audio/Speaker2_En/P2-14-En.wav,Speaker2,گوینده۲,,,,,,,,0,0,0,59,0,73,73,33,,,,,324.8874154160003,,,,,,,,,,,,,,,,,,,,,,,,,,,,,,,,,,,,,,,,,,,,,324.861654332999,324.8874154160003,324.8874154160003,324.8874154160003,324.8874154160003,324.89370599933363,324.8874154160003,324.8874154160003,326.03232899999966,Correct! صحیح است,1,1,2,1.1376516250002169,None,326.03649641599986,326.04814387499937,328.0356890000003,328.061567540999,,,,,,,,,,,,,,,,,,,,,,,,,,,,,166961,001,2024-07-03_14h13.58.388,5-32 ready-Group3 English Trained,2024.1.4,None,2024-07-03 14h14.06.243704 +0900,
Images/Speaker1.jpg,Images/Speaker2.jpg,Images/Speaker3.jpg,Images/Speaker4.jpg,Audio/Speaker2_En/P2-16-En.wav,Speaker2,گوینده۲,,,,,,,,0,0,0,59,0,74,74,35,,,,,328.061567540999,,,,,,,,,,,,,,,,,,,,,,,,,,,,,,,,,,,,,,,,,,,,,328.0365122080002,328.061567540999,328.061567540999,328.061567540999,328.061567540999,328.0680229583327,328.061567540999,328.061567540999,329.6446964579991,Correct! صحیح است,1,1,2,1.5735601659998792,None,329.6484762910004,329.65710299999955,331.643945541,331.6708379159991,,,,,,,,,,,,,,,,,,,,,,,,,,,,,166961,001,2024-07-03_14h13.58.388,5-32 ready-Group3 English Trained,2024.1.4,None,2024-07-03 14h14.06.243704 +0900,
Images/Speaker1.jpg,Images/Speaker2.jpg,Images/Speaker3.jpg,Images/Speaker4.jpg,Audio/Speaker1_En/P1-19-En.wav,Speaker1,گوینده ۱,,,,,,,,0,0,0,59,0,75,75,18,,,,,331.6708379159991,,,,,,,,,,,,,,,,,,,,,,,,,,,,,,,,,,,,,,,,,,,,,331.6446622080002,331.6708379159991,331.6708379159991,331.6708379159991,331.6708379159991,331.67637654133296,331.6708379159991,331.6708379159991,333.0508120409995,Correct! صحیح است,1,1,1,1.3787192499985395,None,333.0559006249987,333.06796012499944,335.06136766599957,,,,,,,,,,,,,,,,,,,,,,,,,,,,,,166961,001,2024-07-03_14h13.58.388,5-32 ready-Group3 English Trained,2024.1.4,None,2024-07-03 14h14.06.243704 +0900,
Images/Speaker1.jpg,Images/Speaker2.jpg,Images/Speaker3.jpg,Images/Speaker4.jpg,Audio/Speaker4_En/P4-15-En.wav,Speaker4,گوینده۴,,,,,,,,0,0,0,59,0,76,76,74,,,,,335.0850891249993,,,,,,,,,,,,,,,,,,,,,,,,,,,,,,,,,,,,,,,,,,,,,335.06152933299927,335.0850891249993,335.0850891249993,335.0850891249993,335.0850891249993,335.0946702493334,335.0850891249993,335.0850891249993,336.7728662499994,Correct! صحیح است,1,1,4,1.6776489160001802,None,336.7769215829994,336.78563516599934,338.77202470799966,338.7950878749998,,,,,,,,,,,,,,,,,,,,,,,,,,,,,166961,001,2024-07-03_14h13.58.388,5-32 ready-Group3 English Trained,2024.1.4,None,2024-07-03 14h14.06.243704 +0900,
Images/Speaker1.jpg,Images/Speaker2.jpg,Images/Speaker3.jpg,Images/Speaker4.jpg,Audio/Speaker2_En/P2-20-En.wav,Speaker2,گوینده۲,,,,,,,,0,0,0,59,0,77,77,39,,,,,338.7950878749998,,,,,,,,,,,,,,,,,,,,,,,,,,,,,,,,,,,,,,,,,,,,,338.77220162499907,338.7950878749998,338.7950878749998,338.7950878749998,338.7950878749998,338.8050517493325,338.7950878749998,338.7950878749998,340.2751801249997,Correct! صحیح است,1,1,2,1.479146708999906,None,340.27906925000025,340.29016345799937,342.2749571659988,342.29833170799975,,,,,,,,,,,,,,,,,,,,,,,,,,,,,166961,001,2024-07-03_14h13.58.388,5-32 ready-Group3 English Trained,2024.1.4,None,2024-07-03 14h14.06.243704 +0900,
Images/Speaker1.jpg,Images/Speaker2.jpg,Images/Speaker3.jpg,Images/Speaker4.jpg,Audio/Speaker2_En/P2-15-En.wav,Speaker2,گوینده۲,,,,,,,,0,0,0,59,0,78,78,34,,,,,342.29833170799975,,,,,,,,,,,,,,,,,,,,,,,,,,,,,,,,,,,,,,,,,,,,,342.275118915999,342.29833170799975,342.29833170799975,342.29833170799975,342.29833170799975,342.3080009583323,342.29833170799975,342.29833170799975,343.9358613329987,Correct! صحیح است,1,1,2,1.6337607919995207,None,343.9397740410004,343.9517140409989,345.9417347910003,,,,,,,,,,,,,,,,,,,,,,,,,,,,,,166961,001,2024-07-03_14h13.58.388,5-32 ready-Group3 English Trained,2024.1.4,None,2024-07-03 14h14.06.243704 +0900,
Images/Speaker1.jpg,Images/Speaker2.jpg,Images/Speaker3.jpg,Images/Speaker4.jpg,Audio/Speaker4_En/P4-2-En.wav,Speaker4,گوینده۴,,,,,,,,0,0,0,59,0,79,79,61,,,,,345.967873874999,,,,,,,,,,,,,,,,,,,,,,,,,,,,,,,,,,,,,,,,,,,,,345.9423114580004,345.967873874999,345.967873874999,345.967873874999,345.967873874999,345.9749045833328,345.967873874999,345.967873874999,348.6474362499994,Correct! صحیح است,1,1,4,2.6767555000005814,None,348.65134345799925,348.66263066600004,350.64931766599875,350.6542177909996,,,,,,,,,,,,,,,,,,,,,,,,,,,,,166961,001,2024-07-03_14h13.58.388,5-32 ready-Group3 English Trained,2024.1.4,None,2024-07-03 14h14.06.243704 +0900,
Images/Speaker1.jpg,Images/Speaker2.jpg,Images/Speaker3.jpg,Images/Speaker4.jpg,Audio/Speaker3_En/P3-20-En.wav,Speaker3,گوینده۳,,,,,,,,0,0,0,59,,,,,,,,,,,,,,,,,,,,,,,,,,,,,,,,,,,,,,,,,,,,,,,,,,,,,,,,,,,,,,,,,,,,,,,,,350.64939975000016,1.0,True,350.64958066599866,,,,,,,,,,,,,,,,,,,,,,,,,166961,001,2024-07-03_14h13.58.388,5-32 ready-Group3 English Trained,2024.1.4,None,2024-07-03 14h14.06.243704 +0900,
,,,,,,,,,,,,,,,,,,,,,,,,,,,,,,,,,,,,,,,,,,,,,,,,,,,,,,,,,,,,,,,,,,,,,,,,,,,,,,,,,,,,,,,,,,,,,,350.64960812499885,350.6542177909996,355.6829345829992,355.6381603329992,,,,,,,,,,,,,,,,,,,,,166961,001,2024-07-03_14h13.58.388,5-32 ready-Group3 English Trained,2024.1.4,None,2024-07-03 14h14.06.243704 +0900,
,,,,,,,Images/Speaker1.jpg,Images/Speaker2.jpg,Images/Speaker3.jpg,Images/Speaker4.jpg,Audio/Speaker3_Per/P3-4-Per.wav,Speaker3,گوینده۳,,,,,,,,,0,0,0,43,355.6829345829992,,,,,,,,,,,,,,,,,,,,,,,,,,,,,,,,,,,,,,,,,,,,,,,,,,,,,,,,,,,,,,,,,,,,,,,,355.65719033299865,355.6829345829992,355.6829345829992,355.6829345829992,355.6829345829992,355.68790558300026,355.6829345829992,355.6829345829992,359.7790601659999,3,4.090468958000201,None,3,Images/Speaker1.jpg,Images/Speaker2.jpg,Images/Speaker3.jpg,Images/Speaker4.jpg,Audio/Speaker3_Per/P3-4-Per.wav,Speaker4,گوینده۴,166961,001,2024-07-03_14h13.58.388,5-32 ready-Group3 English Trained,2024.1.4,None,2024-07-03 14h14.06.243704 +0900,
,,,,,,,Images/Speaker1.jpg,Images/Speaker2.jpg,Images/Speaker3.jpg,Images/Speaker4.jpg,Audio/Speaker4_Per/P4-16-Per.wav,Speaker4,گوینده۴,,,,,,,,,0,1,1,75,359.80603716599944,,,,,,,,,,,,,,,,,,,,,,,,,,,,,,,,,,,,,,,,,,,,,,,,,,,,,,,,,,,,,,,,,,,,,,,,359.77955762499914,359.80603716599944,359.80603716599944,359.80603716599944,359.80603716599944,359.81153720833254,359.80603716599944,359.80603716599944,362.5932285830004,4,2.784920250000141,None,4,Images/Speaker1.jpg,Images/Speaker2.jpg,Images/Speaker3.jpg,Images/Speaker4.jpg,Audio/Speaker4_Per/P4-16-Per.wav,Speaker4,گوینده۴,166961,001,2024-07-03_14h13.58.388,5-32 ready-Group3 English Trained,2024.1.4,None,2024-07-03 14h14.06.243704 +0900,
,,,,,,,Images/Speaker1.jpg,Images/Speaker2.jpg,Images/Speaker3.jpg,Images/Speaker4.jpg,Audio/Speaker3_Per/P3-8-Per.wav,Speaker3,گوینده۳,,,,,,,,,0,2,2,47,362.61953575000007,,,,,,,,,,,,,,,,,,,,,,,,,,,,,,,,,,,,,,,,,,,,,,,,,,,,,,,,,,,,,,,,,,,,,,,,362.59356800000023,362.61953575000007,362.61953575000007,362.61953575000007,362.61953575000007,362.6257147083329,362.61953575000007,362.61953575000007,364.9677914160002,3,2.34610079200138,None,3,Images/Speaker1.jpg,Images/Speaker2.jpg,Images/Speaker3.jpg,Images/Speaker4.jpg,Audio/Speaker3_Per/P3-8-Per.wav,Speaker4,گوینده۴,166961,001,2024-07-03_14h13.58.388,5-32 ready-Group3 English Trained,2024.1.4,None,2024-07-03 14h14.06.243704 +0900,
,,,,,,,,,,,,,,,,,,,,,,,,,,364.997706958,,,,,,,,,,,,,,,,,,,,,,,,,,,,,,,,,,,,,,,,,,,,,,,,,,,,,,,,,,,,,,,,,,,,,,,,364.9718787080001,364.997706958,364.997706958,364.997706958,364.997706958,365.0002579993329,364.997706958,364.997706958,,,,,,,,,,,,,,,,,,,,
