SpeakerImage1,SpeakerImage2,SpeakerImage3,SpeakerImage4,TrainingSound,EnglishCorrectAnswer,PersianCorrectAnswer,TrainingLoopGroup1.thisRepN,TrainingLoopGroup1.thisTrialN,TrainingLoopGroup1.thisN,TrainingLoopGroup1.thisIndex,TrainingLoopGroup2.thisRepN,TrainingLoopGroup2.thisTrialN,TrainingLoopGroup2.thisN,TrainingLoopGroup2.thisIndex,TrainingLoopGroup3.thisRepN,TrainingLoopGroup3.thisTrialN,TrainingLoopGroup3.thisN,TrainingLoopGroup3.thisIndex,thisRow.t,notes,trial.started,trial.stopped,GroupSelection.started,GroupInstructions.started,key_resp.started,GroupSelection.stopped,key_resp.keys,key_resp.rt,key_resp.duration,Introduction.started,text_2.started,image.started,sound_7.started,text_4.started,text_2.stopped,sound_8.started,image.stopped,text_4.stopped,image_7.started,sound_9.started,text_5.started,sound_10.started,image_7.stopped,text_5.stopped,image_8.started,sound_11.started,text_6.started,sound_12.started,image_8.stopped,text_6.stopped,image_9.started,sound_13.started,text_7.started,sound_14.started,image_9.stopped,text_7.stopped,Introduction.stopped,Instructions.started,InstructionText.started,InstructionText.stopped,Instructions.stopped,InitializeExperiment.started,InitializeExperiment.stopped,TrainingGroup3.started,SpeakerPicture3.started,image_15.started,image_16.started,image_17.started,Sound3.started,Instruction3.started,Response3.started,TrainingGroup3.stopped,feedbackText,Response3.keys,Response3.rt,Response3.duration,correct_responses_group3,total_trials_group3,FeedbackRoutine3.started,FeedbackText3.started,FeedbackRoutine3.stopped,FeedbackText3.stopped,TransitionRoutine.started,participant,session,date,expName,psychopyVersion,frameRate,expStart,
,,,,,,,,,,,,,,,,,,,,,0.012575750000905828,0.012888625000414322,,,,,,,,,,,,,,,,,,,,,,,,,,,,,,,,,,,,,,,,,,,,,,,,,,,,,,,,,,,,,,177991,001,2024-06-30_14h01.24.443,5-23,2024.1.4,None,2024-06-30 14h01.29.647971 +0900,
,,,,,,,,,,,,,,,,,,,,,,,0.012902250000479398,0.017297083000812563,0.017297083000812563,1.4354765420011972,3,1.3810488330000226,None,,,,,,,,,,,,,,,,,,,,,,,,,,,,,,,,,,,,,,,,,,,,,,,,,,,,,,,177991,001,2024-06-30_14h01.24.443,5-23,2024.1.4,None,2024-06-30 14h01.29.647971 +0900,
,,,,,,,,,,,,,,,,,,,,,,,,,,,,,,1.435508500000651,1.4972477499995875,6.429826875000799,6.435241999666929,6.429826875000799,6.490611582999918,11.438095124667841,16.426131166999767,16.426131166999767,16.426131166999767,16.43520512466627,16.426131166999767,21.43704479166651,26.421207291999963,26.421207291999963,26.430856458000562,26.43787395866663,26.430856458000562,31.4375953336678,36.41982029199971,36.41982029199971,36.43373466699995,36.43648695866638,36.43373466699995,41.43697399966756,46.41947891699965,46.41947891699965,46.416905625001164,,,,,,,,,,,,,,,,,,,,,,,,,,,177991,001,2024-06-30_14h01.24.443,5-23,2024.1.4,None,2024-06-30 14h01.29.647971 +0900,
,,,,,,,,,,,,,,,,,,,,,,,,,,,,,,,,,,,,,,,,,,,,,,,,,,,,,,,,,,46.41692070800127,46.43326445800085,47.500341291999575,47.41643187500085,,,,,,,,,,,,,,,,,,,,,,,177991,001,2024-06-30_14h01.24.443,5-23,2024.1.4,None,2024-06-30 14h01.29.647971 +0900,
,,,,,,,,,,,,,,,,,,,,,,,,,,,,,,,,,,,,,,,,,,,,,,,,,,,,,,,,,,,,,,47.41644787500081,47.41660820800098,,,,,,,,,,,,,,,,,,,,,177991,001,2024-06-30_14h01.24.443,5-23,2024.1.4,None,2024-06-30 14h01.29.647971 +0900,
Images/Speaker1.jpg,Images/Speaker2.jpg,Images/Speaker3.jpg,Images/Speaker4.jpg,Audio/Speaker3_En/P3-5-En.wav,Speaker3,گوینده۳,,,,,,,,,0,0,0,44,47.500341291999575,,,,,,,,,,,,,,,,,,,,,,,,,,,,,,,,,,,,,,,,,,,,,47.472106667000844,47.500341291999575,47.500341291999575,47.500341291999575,47.500341291999575,47.49957012533317,47.500341291999575,47.500341291999575,50.290222249999715,Incorrect! The correct answer is Speaker3. نادرست! پاسخ صحیح گوینده۳ است,1,2.77849441699982,None,0,1,50.29452783300076,50.30541987499964,52.30052612500003,,,177991,001,2024-06-30_14h01.24.443,5-23,2024.1.4,None,2024-06-30 14h01.29.647971 +0900,
Images/Speaker1.jpg,Images/Speaker2.jpg,Images/Speaker3.jpg,Images/Speaker4.jpg,Audio/Speaker2_En/P2-11-En.wav,Speaker2,گوینده۲,,,,,,,,,0,1,1,30,52.32809716700103,,,,,,,,,,,,,,,,,,,,,,,,,,,,,,,,,,,,,,,,,,,,,52.30118887500066,52.32809716700103,52.32809716700103,52.32809716700103,52.32809716700103,52.333670166334315,52.32809716700103,52.32809716700103,52.56330945800073,Incorrect! The correct answer is Speaker2. نادرست! پاسخ صحیح گوینده۲ است,1,0.23072508299992478,None,0,2,52.56707025000105,52.57963279199976,54.56523758299954,54.5861552919996,,177991,001,2024-06-30_14h01.24.443,5-23,2024.1.4,None,2024-06-30 14h01.29.647971 +0900,
Images/Speaker1.jpg,Images/Speaker2.jpg,Images/Speaker3.jpg,Images/Speaker4.jpg,Audio/Speaker1_En/P1-18-En.wav,Speaker1,گوینده ۱,,,,,,,,,0,2,2,17,54.5861552919996,,,,,,,,,,,,,,,,,,,,,,,,,,,,,,,,,,,,,,,,,,,,,54.56539241700011,54.5861552919996,54.5861552919996,54.5861552919996,54.5861552919996,54.58169041666794,54.5861552919996,54.5861552919996,54.77610883300076,Correct! صحیح است,1,0.18833279099999345,None,0,3,54.779900125000495,54.79224808300023,56.77691291700103,56.80162712499987,,177991,001,2024-06-30_14h01.24.443,5-23,2024.1.4,None,2024-06-30 14h01.29.647971 +0900,
Images/Speaker1.jpg,Images/Speaker2.jpg,Images/Speaker3.jpg,Images/Speaker4.jpg,Audio/Speaker4_En/P4-5-En.wav,Speaker4,گوینده۴,,,,,,,,,0,3,3,64,56.80162712499987,,,,,,,,,,,,,,,,,,,,,,,,,,,,,,,,,,,,,,,,,,,,,56.77709241699995,56.80162712499987,56.80162712499987,56.80162712499987,56.80162712499987,56.809977375333375,56.80162712499987,56.80162712499987,56.97566750000078,Incorrect! The correct answer is Speaker4. نادرست! پاسخ صحیح گوینده۴ است,1,0.17195416600043245,None,0,4,56.97989704199972,56.992487167000945,58.98269254200022,,,177991,001,2024-06-30_14h01.24.443,5-23,2024.1.4,None,2024-06-30 14h01.29.647971 +0900,
Images/Speaker1.jpg,Images/Speaker2.jpg,Images/Speaker3.jpg,Images/Speaker4.jpg,Audio/Speaker2_En/P2-18-En.wav,Speaker2,گوینده۲,,,,,,,,,0,4,4,37,59.00590687499971,,,,,,,,,,,,,,,,,,,,,,,,,,,,,,,,,,,,,,,,,,,,,58.98287383299976,59.00590687499971,59.00590687499971,59.00590687499971,59.00590687499971,59.01598454133321,59.00590687499971,59.00590687499971,59.00653145800061,Incorrect! The correct answer is Speaker2. نادرست! پاسخ صحیح گوینده۲ است,1,2.1604911249996803,None,0,5,59.00672870800008,59.01670258299964,61.00839820799956,,,177991,001,2024-06-30_14h01.24.443,5-23,2024.1.4,None,2024-06-30 14h01.29.647971 +0900,
Images/Speaker1.jpg,Images/Speaker2.jpg,Images/Speaker3.jpg,Images/Speaker4.jpg,Audio/Speaker3_En/P3-19-En.wav,Speaker3,گوینده۳,,,,,,,,,0,5,5,58,61.03230341699964,,,,,,,,,,,,,,,,,,,,,,,,,,,,,,,,,,,,,,,,,,,,,61.00858150000022,61.03230341699964,61.03230341699964,61.03230341699964,61.03230341699964,61.04169783333285,61.03230341699964,61.03230341699964,61.06945600000108,Incorrect! The correct answer is Speaker3. نادرست! پاسخ صحیح گوینده۳ است,1,0.03531595799904608,None,0,6,61.07347658300023,61.08636141700117,63.07161241700123,63.09600083300029,,177991,001,2024-06-30_14h01.24.443,5-23,2024.1.4,None,2024-06-30 14h01.29.647971 +0900,
Images/Speaker1.jpg,Images/Speaker2.jpg,Images/Speaker3.jpg,Images/Speaker4.jpg,Audio/Speaker1_En/P1-2-En.wav,Speaker1,گوینده ۱,,,,,,,,,0,6,6,1,63.09600083300029,,,,,,,,,,,,,,,,,,,,,,,,,,,,,,,,,,,,,,,,,,,,,63.0717696669999,63.09600083300029,63.09600083300029,63.09600083300029,63.09600083300029,63.104694166333985,63.09600083300029,63.09600083300029,63.09656766700027,Correct! صحیح است,1,1.9631620000000112,None,0,7,63.09711137500017,63.1050905000011,65.09236116700049,65.11511812500066,,177991,001,2024-06-30_14h01.24.443,5-23,2024.1.4,None,2024-06-30 14h01.29.647971 +0900,
Images/Speaker1.jpg,Images/Speaker2.jpg,Images/Speaker3.jpg,Images/Speaker4.jpg,Audio/Speaker2_En/P2-13-En.wav,Speaker2,گوینده۲,,,,,,,,,0,7,7,32,65.11511812500066,,,,,,,,,,,,,,,,,,,,,,,,,,,,,,,,,,,,,,,,,,,,,65.09251154199956,65.11511812500066,65.11511812500066,65.11511812500066,65.11511812500066,65.10878737466761,65.11511812500066,65.11511812500066,65.15212362500097,Incorrect! The correct answer is Speaker2. نادرست! پاسخ صحیح گوینده۲ است,1,0.033461875000284635,None,0,8,65.15617029200075,65.16861358300048,67.15307637499973,67.17839875000027,,177991,001,2024-06-30_14h01.24.443,5-23,2024.1.4,None,2024-06-30 14h01.29.647971 +0900,
Images/Speaker1.jpg,Images/Speaker2.jpg,Images/Speaker3.jpg,Images/Speaker4.jpg,Audio/Speaker3_En/P3-14-En.wav,Speaker3,گوینده۳,,,,,,,,,0,8,8,53,67.17839875000027,,,,,,,,,,,,,,,,,,,,,,,,,,,,,,,,,,,,,,,,,,,,,67.15328799999952,67.17839875000027,67.17839875000027,67.17839875000027,67.17839875000027,67.18621837533331,67.17839875000027,67.17839875000027,67.2110725420007,Incorrect! The correct answer is Speaker3. نادرست! پاسخ صحیح گوینده۳ است,1,0.03170187500109023,None,0,9,67.2152330830013,67.22800783300045,69.21749650000129,,,177991,001,2024-06-30_14h01.24.443,5-23,2024.1.4,None,2024-06-30 14h01.29.647971 +0900,
Images/Speaker1.jpg,Images/Speaker2.jpg,Images/Speaker3.jpg,Images/Speaker4.jpg,Audio/Speaker4_En/P4-2-En.wav,Speaker4,گوینده۴,,,,,,,,,0,9,9,61,69.2409782499999,,,,,,,,,,,,,,,,,,,,,,,,,,,,,,,,,,,,,,,,,,,,,69.21771404200081,69.2409782499999,69.2409782499999,69.2409782499999,69.2409782499999,69.25078150033417,69.2409782499999,69.2409782499999,69.24159554200014,Incorrect! The correct answer is Speaker4. نادرست! پاسخ صحیح گوینده۴ است,1,2.005213874999754,None,0,10,69.24212020800042,69.25163416699979,71.24539533300049,,,177991,001,2024-06-30_14h01.24.443,5-23,2024.1.4,None,2024-06-30 14h01.29.647971 +0900,
Images/Speaker1.jpg,Images/Speaker2.jpg,Images/Speaker3.jpg,Images/Speaker4.jpg,Audio/Speaker4_En/P4-16-En.wav,Speaker4,گوینده۴,,,,,,,,,0,10,10,75,71.27191337499971,,,,,,,,,,,,,,,,,,,,,,,,,,,,,,,,,,,,,,,,,,,,,71.24599366700022,71.27191337499971,71.27191337499971,71.27191337499971,71.27191337499971,71.27856554133407,71.27191337499971,71.27191337499971,71.72502370800066,Incorrect! The correct answer is Speaker4. نادرست! پاسخ صحیح گوینده۴ است,1,0.45167987500099116,None,0,11,71.72868629200093,71.7429030000003,73.73361833300078,,,177991,001,2024-06-30_14h01.24.443,5-23,2024.1.4,None,2024-06-30 14h01.29.647971 +0900,
Images/Speaker1.jpg,Images/Speaker2.jpg,Images/Speaker3.jpg,Images/Speaker4.jpg,Audio/Speaker3_En/P3-7-En.wav,Speaker3,گوینده۳,,,,,,,,,0,11,11,46,73.75679545800085,,,,,,,,,,,,,,,,,,,,,,,,,,,,,,,,,,,,,,,,,,,,,73.7337750000006,73.75679545800085,73.75679545800085,73.75679545800085,73.75679545800085,73.766919125334,73.75679545800085,73.75679545800085,73.75746550000076,Incorrect! The correct answer is Speaker3. نادرست! پاسخ صحیح گوینده۳ است,1,2.4220176670005458,None,0,12,73.7577639580013,73.76744500000132,75.75787400000081,,,177991,001,2024-06-30_14h01.24.443,5-23,2024.1.4,None,2024-06-30 14h01.29.647971 +0900,
Images/Speaker1.jpg,Images/Speaker2.jpg,Images/Speaker3.jpg,Images/Speaker4.jpg,Audio/Speaker1_En/P1-12-En.wav,Speaker1,گوینده ۱,,,,,,,,,0,12,12,11,75.78609833300106,,,,,,,,,,,,,,,,,,,,,,,,,,,,,,,,,,,,,,,,,,,,,75.75802287500119,75.78609833300106,75.78609833300106,75.78609833300106,75.78609833300106,75.7911745413335,75.78609833300106,75.78609833300106,75.9590361669998,Correct! صحیح است,1,0.1698448750012176,None,0,13,75.96300541700111,75.97452820800027,77.95810062500095,77.98274783300076,,177991,001,2024-06-30_14h01.24.443,5-23,2024.1.4,None,2024-06-30 14h01.29.647971 +0900,
Images/Speaker1.jpg,Images/Speaker2.jpg,Images/Speaker3.jpg,Images/Speaker4.jpg,Audio/Speaker4_En/P4-15-En.wav,Speaker4,گوینده۴,,,,,,,,,0,13,13,74,77.98274783300076,,,,,,,,,,,,,,,,,,,,,,,,,,,,,,,,,,,,,,,,,,,,,77.95830533300068,77.98274783300076,77.98274783300076,77.98274783300076,77.98274783300076,77.9912001663329,77.98274783300076,77.98274783300076,78.01017812499958,Incorrect! The correct answer is Speaker4. نادرست! پاسخ صحیح گوینده۴ است,1,0.026405624999824795,None,0,14,78.01436554199972,78.02685137499975,80.01276862499981,80.03889675000028,,177991,001,2024-06-30_14h01.24.443,5-23,2024.1.4,None,2024-06-30 14h01.29.647971 +0900,
Images/Speaker1.jpg,Images/Speaker2.jpg,Images/Speaker3.jpg,Images/Speaker4.jpg,Audio/Speaker3_En/P3-6-En.wav,Speaker3,گوینده۳,,,,,,,,,0,14,14,45,80.03889675000028,,,,,,,,,,,,,,,,,,,,,,,,,,,,,,,,,,,,,,,,,,,,,80.01293483300105,80.03889675000028,80.03889675000028,80.03889675000028,80.03889675000028,80.04589466633345,80.03889675000028,80.03889675000028,80.03946700000051,Incorrect! The correct answer is Speaker3. نادرست! پاسخ صحیح گوینده۳ است,1,2.039576582999871,None,0,15,80.03996887500034,80.04958841699954,82.03424020800048,82.05983287500021,,177991,001,2024-06-30_14h01.24.443,5-23,2024.1.4,None,2024-06-30 14h01.29.647971 +0900,
Images/Speaker1.jpg,Images/Speaker2.jpg,Images/Speaker3.jpg,Images/Speaker4.jpg,Audio/Speaker2_En/P2-12-En.wav,Speaker2,گوینده۲,,,,,,,,,0,15,15,31,82.05983287500021,,,,,,,,,,,,,,,,,,,,,,,,,,,,,,,,,,,,,,,,,,,,,82.03441200000088,82.05983287500021,82.05983287500021,82.05983287500021,82.05983287500021,82.06737320833284,82.05983287500021,82.05983287500021,82.22861162499976,Incorrect! The correct answer is Speaker2. نادرست! پاسخ صحیح گوینده۲ است,1,0.15703654100070707,None,0,16,82.23355233300026,82.24756287499986,84.23232154200014,84.25621800000044,,177991,001,2024-06-30_14h01.24.443,5-23,2024.1.4,None,2024-06-30 14h01.29.647971 +0900,
Images/Speaker1.jpg,Images/Speaker2.jpg,Images/Speaker3.jpg,Images/Speaker4.jpg,Audio/Speaker4_En/P4-11-En.wav,Speaker4,گوینده۴,,,,,,,,,0,16,16,70,84.25621800000044,,,,,,,,,,,,,,,,,,,,,,,,,,,,,,,,,,,,,,,,,,,,,84.23249041700001,84.25621800000044,84.25621800000044,84.25621800000044,84.25621800000044,84.2653928753339,84.25621800000044,84.25621800000044,84.40037445800044,Incorrect! The correct answer is Speaker4. نادرست! پاسخ صحیح گوینده۴ است,1,0.14296299999841722,None,0,17,84.4041092919997,84.41690795800059,86.40006125000036,86.42277391700009,,177991,001,2024-06-30_14h01.24.443,5-23,2024.1.4,None,2024-06-30 14h01.29.647971 +0900,
Images/Speaker1.jpg,Images/Speaker2.jpg,Images/Speaker3.jpg,Images/Speaker4.jpg,Audio/Speaker1_En/P1-17-En.wav,Speaker1,گوینده ۱,,,,,,,,,0,17,17,16,86.42277391700009,,,,,,,,,,,,,,,,,,,,,,,,,,,,,,,,,,,,,,,,,,,,,86.40022024999962,86.42277391700009,86.42277391700009,86.42277391700009,86.42277391700009,86.41645491666738,86.42277391700009,86.42277391700009,86.56646208300117,Correct! صحیح است,1,0.13742350000029546,None,0,18,86.57032837500083,86.5813540830004,88.56677487500019,88.58933883300051,,177991,001,2024-06-30_14h01.24.443,5-23,2024.1.4,None,2024-06-30 14h01.29.647971 +0900,
Images/Speaker1.jpg,Images/Speaker2.jpg,Images/Speaker3.jpg,Images/Speaker4.jpg,Audio/Speaker4_En/P4-17-En.wav,Speaker4,گوینده۴,,,,,,,,,0,18,18,76,88.58933883300051,,,,,,,,,,,,,,,,,,,,,,,,,,,,,,,,,,,,,,,,,,,,,88.56693495800027,88.58933883300051,88.58933883300051,88.58933883300051,88.58933883300051,88.5831618336672,88.58933883300051,88.58933883300051,88.64958933300113,Incorrect! The correct answer is Speaker4. نادرست! پاسخ صحیح گوینده۴ است,1,0.05588979099957214,None,0,19,88.65345358299965,88.66574299999957,90.65542712500064,,,177991,001,2024-06-30_14h01.24.443,5-23,2024.1.4,None,2024-06-30 14h01.29.647971 +0900,
Images/Speaker1.jpg,Images/Speaker2.jpg,Images/Speaker3.jpg,Images/Speaker4.jpg,Audio/Speaker3_En/P3-20-En.wav,Speaker3,گوینده۳,,,,,,,,,0,19,19,59,90.68145941700095,,,,,,,,,,,,,,,,,,,,,,,,,,,,,,,,,,,,,,,,,,,,,90.65602337500059,90.68145941700095,90.68145941700095,90.68145941700095,90.68145941700095,90.68859900033434,90.68145941700095,90.68145941700095,90.91506566700082,Incorrect! The correct answer is Speaker3. نادرست! پاسخ صحیح گوینده۳ است,1,0.23159320900049352,None,0,20,90.91881791699961,90.93180279199987,92.91933929200059,92.94512929200027,,177991,001,2024-06-30_14h01.24.443,5-23,2024.1.4,None,2024-06-30 14h01.29.647971 +0900,
Images/Speaker1.jpg,Images/Speaker2.jpg,Images/Speaker3.jpg,Images/Speaker4.jpg,Audio/Speaker4_En/P4-18-En.wav,Speaker4,گوینده۴,,,,,,,,,0,20,20,77,92.94512929200027,,,,,,,,,,,,,,,,,,,,,,,,,,,,,,,,,,,,,,,,,,,,,92.92015708300096,92.94512929200027,92.94512929200027,92.94512929200027,92.94512929200027,92.95178970833379,92.94512929200027,92.94512929200027,92.94571416700092,Incorrect! The correct answer is Speaker4. نادرست! پاسخ صحیح گوینده۴ است,1,2.1485930840008223,None,0,21,92.94596224999987,92.95743641700028,94.94723366700055,,,177991,001,2024-06-30_14h01.24.443,5-23,2024.1.4,None,2024-06-30 14h01.29.647971 +0900,
Images/Speaker1.jpg,Images/Speaker2.jpg,Images/Speaker3.jpg,Images/Speaker4.jpg,Audio/Speaker2_En/P2-5-En.wav,Speaker2,گوینده۲,,,,,,,,,0,21,21,24,94.97117062500001,,,,,,,,,,,,,,,,,,,,,,,,,,,,,,,,,,,,,,,,,,,,,94.9474394580011,94.97117062500001,94.97117062500001,94.97117062500001,94.97117062500001,94.9638289586676,94.97117062500001,94.97117062500001,95.30073762500069,Incorrect! The correct answer is Speaker2. نادرست! پاسخ صحیح گوینده۲ است,1,0.3283802919995651,None,0,22,95.30444775000069,95.31677574999958,97.31264216700038,,,177991,001,2024-06-30_14h01.24.443,5-23,2024.1.4,None,2024-06-30 14h01.29.647971 +0900,
Images/Speaker1.jpg,Images/Speaker2.jpg,Images/Speaker3.jpg,Images/Speaker4.jpg,Audio/Speaker2_En/P2-20-En.wav,Speaker2,گوینده۲,,,,,,,,,0,22,22,39,97.3356325420009,,,,,,,,,,,,,,,,,,,,,,,,,,,,,,,,,,,,,,,,,,,,,97.31281358300112,97.3356325420009,97.3356325420009,97.3356325420009,97.3356325420009,97.32926820866693,97.3356325420009,97.3356325420009,97.33621370800029,Incorrect! The correct answer is Speaker2. نادرست! پاسخ صحیح گوینده۲ است,1,2.3036806669988437,None,0,23,97.3400590830006,97.34949108299952,99.33894920800049,99.3674628330009,,177991,001,2024-06-30_14h01.24.443,5-23,2024.1.4,None,2024-06-30 14h01.29.647971 +0900,
Images/Speaker1.jpg,Images/Speaker2.jpg,Images/Speaker3.jpg,Images/Speaker4.jpg,Audio/Speaker1_En/P1-11-En.wav,Speaker1,گوینده ۱,,,,,,,,,0,23,23,10,99.3674628330009,,,,,,,,,,,,,,,,,,,,,,,,,,,,,,,,,,,,,,,,,,,,,99.33949712499998,99.3674628330009,99.3674628330009,99.3674628330009,99.3674628330009,99.37139566633462,99.3674628330009,99.3674628330009,99.56230870800027,Correct! صحیح است,1,0.19060983400049736,None,0,24,99.566020708,99.57863308299966,101.5626509169997,101.58591433299989,,177991,001,2024-06-30_14h01.24.443,5-23,2024.1.4,None,2024-06-30 14h01.29.647971 +0900,
Images/Speaker1.jpg,Images/Speaker2.jpg,Images/Speaker3.jpg,Images/Speaker4.jpg,Audio/Speaker4_En/P4-6-En.wav,Speaker4,گوینده۴,,,,,,,,,0,24,24,65,101.58591433299989,,,,,,,,,,,,,,,,,,,,,,,,,,,,,,,,,,,,,,,,,,,,,101.56284545800008,101.58591433299989,101.58591433299989,101.58591433299989,101.58591433299989,101.59578483333328,101.58591433299989,101.58591433299989,101.66703129199959,Incorrect! The correct answer is Speaker4. نادرست! پاسخ صحیح گوینده۴ است,1,0.07905487500102026,None,0,25,101.67103612500068,101.68352750000122,103.66621108300023,103.68966916700083,,177991,001,2024-06-30_14h01.24.443,5-23,2024.1.4,None,2024-06-30 14h01.29.647971 +0900,
Images/Speaker1.jpg,Images/Speaker2.jpg,Images/Speaker3.jpg,Images/Speaker4.jpg,Audio/Speaker1_En/P1-1-En.wav,Speaker1,گوینده ۱,,,,,,,,,0,25,25,0,103.68966916700083,,,,,,,,,,,,,,,,,,,,,,,,,,,,,,,,,,,,,,,,,,,,,103.6663805420012,103.68966916700083,103.68966916700083,103.68966916700083,103.68966916700083,103.69929716633354,103.68966916700083,103.68966916700083,103.70598687500024,Correct! صحیح است,1,0.013767459000519011,None,0,26,103.71008962500127,103.72145854200062,105.71424450000086,,,177991,001,2024-06-30_14h01.24.443,5-23,2024.1.4,None,2024-06-30 14h01.29.647971 +0900,
Images/Speaker1.jpg,Images/Speaker2.jpg,Images/Speaker3.jpg,Images/Speaker4.jpg,Audio/Speaker2_En/P2-7-En.wav,Speaker2,گوینده۲,,,,,,,,,0,26,26,26,105.73968062499989,,,,,,,,,,,,,,,,,,,,,,,,,,,,,,,,,,,,,,,,,,,,,105.7148392500003,105.73968062499989,105.73968062499989,105.73968062499989,105.73968062499989,105.74735812533302,105.73968062499989,105.73968062499989,105.8574452920002,Incorrect! The correct answer is Speaker2. نادرست! پاسخ صحیح گوینده۲ است,1,0.10639095899932727,None,0,27,105.86153654200098,105.87422095799957,107.86228183300045,,,177991,001,2024-06-30_14h01.24.443,5-23,2024.1.4,None,2024-06-30 14h01.29.647971 +0900,
Images/Speaker1.jpg,Images/Speaker2.jpg,Images/Speaker3.jpg,Images/Speaker4.jpg,Audio/Speaker1_En/P1-6-En.wav,Speaker1,گوینده ۱,,,,,,,,,0,27,27,5,107.88600383300036,,,,,,,,,,,,,,,,,,,,,,,,,,,,,,,,,,,,,,,,,,,,,107.86246800000117,107.88600383300036,107.88600383300036,107.88600383300036,107.88600383300036,107.89557216633378,107.88600383300036,107.88600383300036,108.0135288750007,Correct! صحیح است,1,0.12400870799865515,None,0,28,108.01733045800029,108.02820591700038,110.01564745799988,110.04276891700101,,177991,001,2024-06-30_14h01.24.443,5-23,2024.1.4,None,2024-06-30 14h01.29.647971 +0900,
Images/Speaker1.jpg,Images/Speaker2.jpg,Images/Speaker3.jpg,Images/Speaker4.jpg,Audio/Speaker2_En/P2-15-En.wav,Speaker2,گوینده۲,,,,,,,,,0,28,28,34,110.04276891700101,,,,,,,,,,,,,,,,,,,,,,,,,,,,,,,,,,,,,,,,,,,,,110.01651612500063,110.04276891700101,110.04276891700101,110.04276891700101,110.04276891700101,110.04813675033304,110.04276891700101,110.04276891700101,110.04336729200077,Incorrect! The correct answer is Speaker2. نادرست! پاسخ صحیح گوینده۲ است,1,2.0086206249998213,None,0,29,110.04388837500119,110.0540236249999,112.03808129200115,112.0600592080009,,177991,001,2024-06-30_14h01.24.443,5-23,2024.1.4,None,2024-06-30 14h01.29.647971 +0900,
Images/Speaker1.jpg,Images/Speaker2.jpg,Images/Speaker3.jpg,Images/Speaker4.jpg,Audio/Speaker1_En/P1-7-En.wav,Speaker1,گوینده ۱,,,,,,,,,0,29,29,6,112.0600592080009,,,,,,,,,,,,,,,,,,,,,,,,,,,,,,,,,,,,,,,,,,,,,112.03824287499992,112.0600592080009,112.0600592080009,112.0600592080009,112.0600592080009,112.0544802086663,112.0600592080009,112.0600592080009,112.23357179199957,Correct! صحیح است,1,0.17091616700054146,None,0,30,112.23735962499995,112.24820541699955,114.23248854200028,114.26353958300024,,177991,001,2024-06-30_14h01.24.443,5-23,2024.1.4,None,2024-06-30 14h01.29.647971 +0900,
Images/Speaker1.jpg,Images/Speaker2.jpg,Images/Speaker3.jpg,Images/Speaker4.jpg,Audio/Speaker3_En/P3-2-En.wav,Speaker3,گوینده۳,,,,,,,,,0,30,30,41,114.26353958300024,,,,,,,,,,,,,,,,,,,,,,,,,,,,,,,,,,,,,,,,,,,,,114.23317375000079,114.26353958300024,114.26353958300024,114.26353958300024,114.26353958300024,114.26502208333343,114.26353958300024,114.26353958300024,114.26415799999995,Incorrect! The correct answer is Speaker3. نادرست! پاسخ صحیح گوینده۳ است,1,2.1724104170007195,None,0,31,114.26828495799964,114.27905199999987,116.26166550000016,116.28486737499952,,177991,001,2024-06-30_14h01.24.443,5-23,2024.1.4,None,2024-06-30 14h01.29.647971 +0900,
Images/Speaker1.jpg,Images/Speaker2.jpg,Images/Speaker3.jpg,Images/Speaker4.jpg,Audio/Speaker2_En/P2-8-En.wav,Speaker2,گوینده۲,,,,,,,,,0,31,31,27,116.28486737499952,,,,,,,,,,,,,,,,,,,,,,,,,,,,,,,,,,,,,,,,,,,,,116.26182558300025,116.28486737499952,116.28486737499952,116.28486737499952,116.28486737499952,116.29472829133422,116.28486737499952,116.28486737499952,116.28549983300036,Incorrect! The correct answer is Speaker2. نادرست! پاسخ صحیح گوینده۲ است,1,1.9858902500000113,None,0,32,116.28575941700001,116.29610675000004,118.29087804200026,,,177991,001,2024-06-30_14h01.24.443,5-23,2024.1.4,None,2024-06-30 14h01.29.647971 +0900,
Images/Speaker1.jpg,Images/Speaker2.jpg,Images/Speaker3.jpg,Images/Speaker4.jpg,Audio/Speaker2_En/P2-1-En.wav,Speaker2,گوینده۲,,,,,,,,,0,32,32,20,118.31789279199984,,,,,,,,,,,,,,,,,,,,,,,,,,,,,,,,,,,,,,,,,,,,,118.29150345800008,118.31789279199984,118.31789279199984,118.31789279199984,118.31789279199984,118.32402462533403,118.31789279199984,118.31789279199984,118.43565854200097,Incorrect! The correct answer is Speaker2. نادرست! پاسخ صحیح گوینده۲ است,1,0.11091012499855424,None,0,33,118.43961879200106,118.450157958001,120.43712708299972,120.46189658299954,,177991,001,2024-06-30_14h01.24.443,5-23,2024.1.4,None,2024-06-30 14h01.29.647971 +0900,
Images/Speaker1.jpg,Images/Speaker2.jpg,Images/Speaker3.jpg,Images/Speaker4.jpg,Audio/Speaker1_En/P1-4-En.wav,Speaker1,گوینده ۱,,,,,,,,,0,33,33,13,120.46189658299954,,,,,,,,,,,,,,,,,,,,,,,,,,,,,,,,,,,,,,,,,,,,,120.43731245799972,120.46189658299954,120.46189658299954,120.46189658299954,120.46189658299954,120.47014737533439,120.46189658299954,120.46189658299954,120.56222470800094,Correct! صحیح است,1,0.09910620899972855,None,0,34,120.56641262500125,120.57792850000078,122.57264908300021,,,177991,001,2024-06-30_14h01.24.443,5-23,2024.1.4,None,2024-06-30 14h01.29.647971 +0900,
Images/Speaker1.jpg,Images/Speaker2.jpg,Images/Speaker3.jpg,Images/Speaker4.jpg,Audio/Speaker1_En/P1-5-En.wav,Speaker1,گوینده ۱,,,,,,,,,0,34,34,4,122.59818079199977,,,,,,,,,,,,,,,,,,,,,,,,,,,,,,,,,,,,,,,,,,,,,122.57328287500059,122.59818079199977,122.59818079199977,122.59818079199977,122.59818079199977,122.60578508333359,122.59818079199977,122.59818079199977,122.75389620799979,Correct! صحیح است,1,0.15467358300156775,None,0,35,122.75768295800117,122.76831645800121,124.76247087500087,,,177991,001,2024-06-30_14h01.24.443,5-23,2024.1.4,None,2024-06-30 14h01.29.647971 +0900,
Images/Speaker1.jpg,Images/Speaker2.jpg,Images/Speaker3.jpg,Images/Speaker4.jpg,Audio/Speaker2_En/P2-19-En.wav,Speaker2,گوینده۲,,,,,,,,,0,35,35,38,124.7897818750007,,,,,,,,,,,,,,,,,,,,,,,,,,,,,,,,,,,,,,,,,,,,,124.76266208299967,124.7897818750007,124.7897818750007,124.7897818750007,124.7897818750007,124.79575083333341,124.7897818750007,124.7897818750007,124.7904440000002,Incorrect! The correct answer is Speaker2. نادرست! پاسخ صحیح گوینده۲ است,1,2.171724917001484,None,0,36,124.79082487500091,124.80121083300037,126.79060329200001,126.81504270799996,,177991,001,2024-06-30_14h01.24.443,5-23,2024.1.4,None,2024-06-30 14h01.29.647971 +0900,
Images/Speaker1.jpg,Images/Speaker2.jpg,Images/Speaker3.jpg,Images/Speaker4.jpg,Audio/Speaker4_En/P4-8-En.wav,Speaker4,گوینده۴,,,,,,,,,0,36,36,67,126.81504270799996,,,,,,,,,,,,,,,,,,,,,,,,,,,,,,,,,,,,,,,,,,,,,126.79075866700077,126.81504270799996,126.81504270799996,126.81504270799996,126.81504270799996,126.82372395833457,126.81504270799996,126.81504270799996,126.97618220799995,Incorrect! The correct answer is Speaker4. نادرست! پاسخ صحیح گوینده۴ است,1,0.1591097919990716,None,0,37,126.97990716700042,126.99277266700119,128.9823608330007,,,177991,001,2024-06-30_14h01.24.443,5-23,2024.1.4,None,2024-06-30 14h01.29.647971 +0900,
Images/Speaker1.jpg,Images/Speaker2.jpg,Images/Speaker3.jpg,Images/Speaker4.jpg,Audio/Speaker3_En/P3-17-En.wav,Speaker3,گوینده۳,,,,,,,,,0,37,37,56,129.0079714170006,,,,,,,,,,,,,,,,,,,,,,,,,,,,,,,,,,,,,,,,,,,,,128.98292029200093,129.0079714170006,129.0079714170006,129.0079714170006,129.0079714170006,129.01554541633465,129.0079714170006,129.0079714170006,129.1304362080009,Incorrect! The correct answer is Speaker3. نادرست! پاسخ صحیح گوینده۳ است,1,0.11184658299862349,None,0,38,129.13428554200073,129.1468086670011,131.13307270800033,131.1574195000012,,177991,001,2024-06-30_14h01.24.443,5-23,2024.1.4,None,2024-06-30 14h01.29.647971 +0900,
Images/Speaker1.jpg,Images/Speaker2.jpg,Images/Speaker3.jpg,Images/Speaker4.jpg,Audio/Speaker2_En/P2-14-En.wav,Speaker2,گوینده۲,,,,,,,,,0,38,38,33,131.1574195000012,,,,,,,,,,,,,,,,,,,,,,,,,,,,,,,,,,,,,,,,,,,,,131.13325745800103,131.1574195000012,131.1574195000012,131.1574195000012,131.1574195000012,131.16617512533463,131.1574195000012,131.1574195000012,131.2288205420009,Incorrect! The correct answer is Speaker2. نادرست! پاسخ صحیح گوینده۲ است,1,0.06706220799969742,None,0,39,131.23306016700008,131.2459276669997,133.23709575000066,,,177991,001,2024-06-30_14h01.24.443,5-23,2024.1.4,None,2024-06-30 14h01.29.647971 +0900,
Images/Speaker1.jpg,Images/Speaker2.jpg,Images/Speaker3.jpg,Images/Speaker4.jpg,Audio/Speaker2_En/P2-16-En.wav,Speaker2,گوینده۲,,,,,,,,,0,39,39,35,133.259850208,,,,,,,,,,,,,,,,,,,,,,,,,,,,,,,,,,,,,,,,,,,,,133.2372572080003,133.259850208,133.259850208,133.259850208,133.259850208,133.25372287466624,133.259850208,133.259850208,133.26662750000105,Incorrect! The correct answer is Speaker2. نادرست! پاسخ صحیح گوینده۲ است,1,0.004648457999792299,None,0,40,133.27085562499997,133.2833025,135.27136475000043,,,177991,001,2024-06-30_14h01.24.443,5-23,2024.1.4,None,2024-06-30 14h01.29.647971 +0900,
Images/Speaker1.jpg,Images/Speaker2.jpg,Images/Speaker3.jpg,Images/Speaker4.jpg,Audio/Speaker3_En/P3-4-En.wav,Speaker3,گوینده۳,,,,,,,,,0,40,40,43,135.29898649999996,,,,,,,,,,,,,,,,,,,,,,,,,,,,,,,,,,,,,,,,,,,,,135.2719842080005,135.29898649999996,135.29898649999996,135.29898649999996,135.29898649999996,135.30454133333347,135.29898649999996,135.29898649999996,135.54865133299973,Incorrect! The correct answer is Speaker3. نادرست! پاسخ صحیح گوینده۳ است,1,0.24422520799998892,None,0,41,135.55248608300099,135.56636679199983,137.55017425000005,137.57657649999965,,177991,001,2024-06-30_14h01.24.443,5-23,2024.1.4,None,2024-06-30 14h01.29.647971 +0900,
Images/Speaker1.jpg,Images/Speaker2.jpg,Images/Speaker3.jpg,Images/Speaker4.jpg,Audio/Speaker1_En/P1-3-En.wav,Speaker1,گوینده ۱,,,,,,,,,0,41,41,2,137.57657649999965,,,,,,,,,,,,,,,,,,,,,,,,,,,,,,,,,,,,,,,,,,,,,137.55115504199966,137.57657649999965,137.57657649999965,137.57657649999965,137.57657649999965,137.58235300033317,137.57657649999965,137.57657649999965,137.70366345799994,Correct! صحیح است,1,0.12603058300010161,None,0,42,137.70743416699952,137.71848737500113,139.71443558300052,,,177991,001,2024-06-30_14h01.24.443,5-23,2024.1.4,None,2024-06-30 14h01.29.647971 +0900,
Images/Speaker1.jpg,Images/Speaker2.jpg,Images/Speaker3.jpg,Images/Speaker4.jpg,Audio/Speaker1_En/P1-9-En.wav,Speaker1,گوینده ۱,,,,,,,,,0,42,42,8,139.73948341700088,,,,,,,,,,,,,,,,,,,,,,,,,,,,,,,,,,,,,,,,,,,,,139.71505304200036,139.73948341700088,139.73948341700088,139.73948341700088,139.73948341700088,139.74754762533354,139.73948341700088,139.73948341700088,139.91204124999967,Correct! صحیح است,1,0.16158345800067764,None,0,43,139.9158787920005,139.92648304199975,141.911994125001,141.9365004170013,,177991,001,2024-06-30_14h01.24.443,5-23,2024.1.4,None,2024-06-30 14h01.29.647971 +0900,
Images/Speaker1.jpg,Images/Speaker2.jpg,Images/Speaker3.jpg,Images/Speaker4.jpg,Audio/Speaker2_En/P2-2-En.wav,Speaker2,گوینده۲,,,,,,,,,0,43,43,21,141.9365004170013,,,,,,,,,,,,,,,,,,,,,,,,,,,,,,,,,,,,,,,,,,,,,141.91215566699975,141.9365004170013,141.9365004170013,141.9365004170013,141.9365004170013,141.94502166633407,141.9365004170013,141.9365004170013,142.11480912499974,Incorrect! The correct answer is Speaker2. نادرست! پاسخ صحیح گوینده۲ است,1,0.17356154099979904,None,0,44,142.11952012500115,142.13294733300063,144.12079699999958,,,177991,001,2024-06-30_14h01.24.443,5-23,2024.1.4,None,2024-06-30 14h01.29.647971 +0900,
Images/Speaker1.jpg,Images/Speaker2.jpg,Images/Speaker3.jpg,Images/Speaker4.jpg,Audio/Speaker2_En/P2-9-En.wav,Speaker2,گوینده۲,,,,,,,,,0,44,44,28,144.14404133300013,,,,,,,,,,,,,,,,,,,,,,,,,,,,,,,,,,,,,,,,,,,,,144.1209571670006,144.14404133300013,144.14404133300013,144.14404133300013,144.14404133300013,144.1540949583346,144.14404133300013,144.14404133300013,144.34830095799953,Incorrect! The correct answer is Speaker2. نادرست! پاسخ صحیح گوینده۲ است,1,0.1998154999982944,None,0,45,144.35232908299986,144.36523316700004,146.34905724999953,146.37386991700077,,177991,001,2024-06-30_14h01.24.443,5-23,2024.1.4,None,2024-06-30 14h01.29.647971 +0900,
Images/Speaker1.jpg,Images/Speaker2.jpg,Images/Speaker3.jpg,Images/Speaker4.jpg,Audio/Speaker4_En/P4-14-En.wav,Speaker4,گوینده۴,,,,,,,,,0,45,45,73,146.37386991700077,,,,,,,,,,,,,,,,,,,,,,,,,,,,,,,,,,,,,,,,,,,,,146.34925187500085,146.37386991700077,146.37386991700077,146.37386991700077,146.37386991700077,146.3821430833346,146.37386991700077,146.37386991700077,146.47442541700002,Incorrect! The correct answer is Speaker4. نادرست! پاسخ صحیح گوینده۴ است,1,0.09127320800143934,None,0,46,146.4784435420006,146.4917544580003,148.4792721670001,,,177991,001,2024-06-30_14h01.24.443,5-23,2024.1.4,None,2024-06-30 14h01.29.647971 +0900,
Images/Speaker1.jpg,Images/Speaker2.jpg,Images/Speaker3.jpg,Images/Speaker4.jpg,Audio/Speaker4_En/P4-13-En.wav,Speaker4,گوینده۴,,,,,,,,,0,46,46,72,148.50378312500106,,,,,,,,,,,,,,,,,,,,,,,,,,,,,,,,,,,,,,,,,,,,,148.4794364999998,148.50378312500106,148.50378312500106,148.50378312500106,148.50378312500106,148.51254316633327,148.50378312500106,148.50378312500106,148.71194404200105,Incorrect! The correct answer is Speaker4. نادرست! پاسخ صحیح گوینده۴ است,1,0.20688474999951723,None,0,47,148.71561575000123,148.72861320800075,150.71314412500033,150.73699641700114,,177991,001,2024-06-30_14h01.24.443,5-23,2024.1.4,None,2024-06-30 14h01.29.647971 +0900,
Images/Speaker1.jpg,Images/Speaker2.jpg,Images/Speaker3.jpg,Images/Speaker4.jpg,Audio/Speaker1_En/P1-15-En.wav,Speaker1,گوینده ۱,,,,,,,,,0,47,47,14,150.73699641700114,,,,,,,,,,,,,,,,,,,,,,,,,,,,,,,,,,,,,,,,,,,,,150.71333491699988,150.73699641700114,150.73699641700114,150.73699641700114,150.73699641700114,150.746241958334,150.73699641700114,150.73699641700114,150.90474375000122,Correct! صحیح است,1,0.16128537499935192,None,0,48,150.90845658299986,150.91945916700024,152.90660316700087,152.93128591700042,,177991,001,2024-06-30_14h01.24.443,5-23,2024.1.4,None,2024-06-30 14h01.29.647971 +0900,
Images/Speaker1.jpg,Images/Speaker2.jpg,Images/Speaker3.jpg,Images/Speaker4.jpg,Audio/Speaker1_En/P1-4-En.wav,Speaker1,گوینده ۱,,,,,,,,,0,48,48,3,152.93128591700042,,,,,,,,,,,,,,,,,,,,,,,,,,,,,,,,,,,,,,,,,,,,,152.90722508300132,152.93128591700042,152.93128591700042,152.93128591700042,152.93128591700042,152.9389298753345,152.93128591700042,152.93128591700042,153.03158054199957,Correct! صحیح است,1,0.09456670799954736,None,0,49,153.0356551670011,153.04672712499996,155.03217987500102,155.05509637500109,,177991,001,2024-06-30_14h01.24.443,5-23,2024.1.4,None,2024-06-30 14h01.29.647971 +0900,
Images/Speaker1.jpg,Images/Speaker2.jpg,Images/Speaker3.jpg,Images/Speaker4.jpg,Audio/Speaker3_En/P3-8-En.wav,Speaker3,گوینده۳,,,,,,,,,0,49,49,47,155.05509637500109,,,,,,,,,,,,,,,,,,,,,,,,,,,,,,,,,,,,,,,,,,,,,155.0323623330005,155.05509637500109,155.05509637500109,155.05509637500109,155.05509637500109,155.0486520836678,155.05509637500109,155.05509637500109,155.24069216700082,Incorrect! The correct answer is Speaker3. نادرست! پاسخ صحیح گوینده۳ است,1,0.17706879199977266,None,0,50,155.2447404579998,155.25691562500106,157.24423083300098,157.2673738329995,,177991,001,2024-06-30_14h01.24.443,5-23,2024.1.4,None,2024-06-30 14h01.29.647971 +0900,
Images/Speaker1.jpg,Images/Speaker2.jpg,Images/Speaker3.jpg,Images/Speaker4.jpg,Audio/Speaker4_En/P4-12-En.wav,Speaker4,گوینده۴,,,,,,,,,0,50,50,71,157.2673738329995,,,,,,,,,,,,,,,,,,,,,,,,,,,,,,,,,,,,,,,,,,,,,157.2444049170008,157.2673738329995,157.2673738329995,157.2673738329995,157.2673738329995,157.27727829133306,157.2673738329995,157.2673738329995,157.3459956250008,Incorrect! The correct answer is Speaker4. نادرست! پاسخ صحیح گوینده۴ است,1,0.06750083299994003,None,0,51,157.34978258299998,157.36337208300029,159.34972587500124,159.3734113749997,,177991,001,2024-06-30_14h01.24.443,5-23,2024.1.4,None,2024-06-30 14h01.29.647971 +0900,
Images/Speaker1.jpg,Images/Speaker2.jpg,Images/Speaker3.jpg,Images/Speaker4.jpg,Audio/Speaker1_En/P1-19-En.wav,Speaker1,گوینده ۱,,,,,,,,,0,51,51,18,159.3734113749997,,,,,,,,,,,,,,,,,,,,,,,,,,,,,,,,,,,,,,,,,,,,,159.34993075000057,159.3734113749997,159.3734113749997,159.3734113749997,159.3734113749997,159.38283820833436,159.3734113749997,159.3734113749997,159.5473457500011,Correct! صحیح است,1,0.16565537499991478,None,0,52,159.55133566699988,159.56234058300106,161.54720604199974,161.57140283300032,,177991,001,2024-06-30_14h01.24.443,5-23,2024.1.4,None,2024-06-30 14h01.29.647971 +0900,
Images/Speaker1.jpg,Images/Speaker2.jpg,Images/Speaker3.jpg,Images/Speaker4.jpg,Audio/Speaker4_En/P4-19-En.wav,Speaker4,گوینده۴,,,,,,,,,0,52,52,78,161.57140283300032,,,,,,,,,,,,,,,,,,,,,,,,,,,,,,,,,,,,,,,,,,,,,161.54778741700102,161.57140283300032,161.57140283300032,161.57140283300032,161.57140283300032,161.5796355833341,161.57140283300032,161.57140283300032,161.61998866700014,Incorrect! The correct answer is Speaker4. نادرست! پاسخ صحیح گوینده۴ است,1,0.04743083299945283,None,0,53,161.62411037499987,161.6371320420003,163.62301300000036,163.65168608299973,,177991,001,2024-06-30_14h01.24.443,5-23,2024.1.4,None,2024-06-30 14h01.29.647971 +0900,
Images/Speaker1.jpg,Images/Speaker2.jpg,Images/Speaker3.jpg,Images/Speaker4.jpg,Audio/Speaker4_En/P4-4-En.wav,Speaker4,گوینده۴,,,,,,,,,0,53,53,63,163.65168608299973,,,,,,,,,,,,,,,,,,,,,,,,,,,,,,,,,,,,,,,,,,,,,163.6235501250012,163.65168608299973,163.65168608299973,163.65168608299973,163.65168608299973,163.655424125333,163.65168608299973,163.65168608299973,163.81462233300044,Incorrect! The correct answer is Speaker4. نادرست! پاسخ صحیح گوینده۴ است,1,0.1584482090001984,None,0,54,163.81883579200075,163.8319477920013,165.81465874999958,165.8378858750002,,177991,001,2024-06-30_14h01.24.443,5-23,2024.1.4,None,2024-06-30 14h01.29.647971 +0900,
Images/Speaker1.jpg,Images/Speaker2.jpg,Images/Speaker3.jpg,Images/Speaker4.jpg,Audio/Speaker4_En/P4-9-En.wav,Speaker4,گوینده۴,,,,,,,,,0,54,54,68,165.8378858750002,,,,,,,,,,,,,,,,,,,,,,,,,,,,,,,,,,,,,,,,,,,,,165.8148423750008,165.8378858750002,165.8378858750002,165.8378858750002,165.8378858750002,165.84767233333383,165.8378858750002,165.8378858750002,165.98929687500095,Incorrect! The correct answer is Speaker4. نادرست! پاسخ صحیح گوینده۴ است,1,0.14583370900072623,None,0,55,165.99353875000088,166.00656904199968,167.99890279200008,,,177991,001,2024-06-30_14h01.24.443,5-23,2024.1.4,None,2024-06-30 14h01.29.647971 +0900,
Images/Speaker1.jpg,Images/Speaker2.jpg,Images/Speaker3.jpg,Images/Speaker4.jpg,Audio/Speaker3_En/P3-16-En.wav,Speaker3,گوینده۳,,,,,,,,,0,55,55,55,168.0269921250001,,,,,,,,,,,,,,,,,,,,,,,,,,,,,,,,,,,,,,,,,,,,,167.99951941700056,168.0269921250001,168.0269921250001,168.0269921250001,168.0269921250001,168.032019916333,168.0269921250001,168.0269921250001,168.2180508750007,Incorrect! The correct answer is Speaker3. نادرست! پاسخ صحیح گوینده۳ است,1,0.18777274999956717,None,0,56,168.22197433300062,168.23511866700028,170.22978862499986,,,177991,001,2024-06-30_14h01.24.443,5-23,2024.1.4,None,2024-06-30 14h01.29.647971 +0900,
Images/Speaker1.jpg,Images/Speaker2.jpg,Images/Speaker3.jpg,Images/Speaker4.jpg,Audio/Speaker3_En/P3-13-En.wav,Speaker3,گوینده۳,,,,,,,,,0,56,56,52,170.25559199999952,,,,,,,,,,,,,,,,,,,,,,,,,,,,,,,,,,,,,,,,,,,,,170.2304644169999,170.25559199999952,170.25559199999952,170.25559199999952,170.25559199999952,170.2629576253335,170.25559199999952,170.25559199999952,170.4121202080005,Incorrect! The correct answer is Speaker3. نادرست! پاسخ صحیح گوینده۳ است,1,0.15471570800036716,None,0,57,170.41635837499962,170.42900033300066,172.4145841669997,172.43920991699997,,177991,001,2024-06-30_14h01.24.443,5-23,2024.1.4,None,2024-06-30 14h01.29.647971 +0900,
Images/Speaker1.jpg,Images/Speaker2.jpg,Images/Speaker3.jpg,Images/Speaker4.jpg,Audio/Speaker1_En/P1-13-En.wav,Speaker1,گوینده ۱,,,,,,,,,0,57,57,12,172.43920991699997,,,,,,,,,,,,,,,,,,,,,,,,,,,,,,,,,,,,,,,,,,,,,172.4151263750009,172.43920991699997,172.43920991699997,172.43920991699997,172.43920991699997,172.44699708333297,172.43920991699997,172.43920991699997,172.573748625,Correct! صحیح است,1,0.12328912500015576,None,0,58,172.57794862500123,172.5889100000004,174.58181633300046,,,177991,001,2024-06-30_14h01.24.443,5-23,2024.1.4,None,2024-06-30 14h01.29.647971 +0900,
Images/Speaker1.jpg,Images/Speaker2.jpg,Images/Speaker3.jpg,Images/Speaker4.jpg,Audio/Speaker3_En/P3-12-En.wav,Speaker3,گوینده۳,,,,,,,,,0,58,58,51,174.60554924999997,,,,,,,,,,,,,,,,,,,,,,,,,,,,,,,,,,,,,,,,,,,,,174.58238616699964,174.60554924999997,174.60554924999997,174.60554924999997,174.60554924999997,174.61497987533454,174.60554924999997,174.60554924999997,174.79061104200082,Incorrect! The correct answer is Speaker3. نادرست! پاسخ صحیح گوینده۳ است,1,0.18221475000063947,None,0,59,174.79454716700093,174.80784183300057,176.79182583300098,176.81438658300067,,177991,001,2024-06-30_14h01.24.443,5-23,2024.1.4,None,2024-06-30 14h01.29.647971 +0900,
Images/Speaker1.jpg,Images/Speaker2.jpg,Images/Speaker3.jpg,Images/Speaker4.jpg,Audio/Speaker4_En/P4-20-En.wav,Speaker4,گوینده۴,,,,,,,,,0,59,59,79,176.81438658300067,,,,,,,,,,,,,,,,,,,,,,,,,,,,,,,,,,,,,,,,,,,,,176.7920001250004,176.81438658300067,176.81438658300067,176.81438658300067,176.81438658300067,176.80827012466787,176.81438658300067,176.81438658300067,176.83050729200113,Incorrect! The correct answer is Speaker4. نادرست! پاسخ صحیح گوینده۴ است,1,0.011553999998795916,None,0,60,176.83451429200068,176.84731691700108,178.83138883300126,178.85786008300056,,177991,001,2024-06-30_14h01.24.443,5-23,2024.1.4,None,2024-06-30 14h01.29.647971 +0900,
Images/Speaker1.jpg,Images/Speaker2.jpg,Images/Speaker3.jpg,Images/Speaker4.jpg,Audio/Speaker3_En/P3-9-En.wav,Speaker3,گوینده۳,,,,,,,,,0,60,60,48,178.85786008300056,,,,,,,,,,,,,,,,,,,,,,,,,,,,,,,,,,,,,,,,,,,,,178.83202145799987,178.85786008300056,178.85786008300056,178.85786008300056,178.85786008300056,178.86361512533455,178.85786008300056,178.85786008300056,179.50925104199996,Incorrect! The correct answer is Speaker3. نادرست! پاسخ صحیح گوینده۳ است,1,0.6471714170002087,None,0,61,179.51328537500012,179.52670887500062,181.52287741700093,,,177991,001,2024-06-30_14h01.24.443,5-23,2024.1.4,None,2024-06-30 14h01.29.647971 +0900,
Images/Speaker1.jpg,Images/Speaker2.jpg,Images/Speaker3.jpg,Images/Speaker4.jpg,Audio/Speaker3_En/P3-11-En.wav,Speaker3,گوینده۳,,,,,,,,,0,61,61,50,181.5500879170013,,,,,,,,,,,,,,,,,,,,,,,,,,,,,,,,,,,,,,,,,,,,,181.52345737500036,181.5500879170013,181.5500879170013,181.5500879170013,181.5500879170013,181.5560297083344,181.5500879170013,181.5500879170013,181.74098437500106,Incorrect! The correct answer is Speaker3. نادرست! پاسخ صحیح گوینده۳ است,1,0.18831195900020248,None,0,62,181.74486391699975,181.75785345800068,183.74867962499957,,,177991,001,2024-06-30_14h01.24.443,5-23,2024.1.4,None,2024-06-30 14h01.29.647971 +0900,
Images/Speaker1.jpg,Images/Speaker2.jpg,Images/Speaker3.jpg,Images/Speaker4.jpg,Audio/Speaker3_En/P3-18-En.wav,Speaker3,گوینده۳,,,,,,,,,0,62,62,57,183.774459708,,,,,,,,,,,,,,,,,,,,,,,,,,,,,,,,,,,,,,,,,,,,,183.74926887500078,183.774459708,183.774459708,183.774459708,183.774459708,183.78182691633316,183.774459708,183.774459708,183.97616520799966,Incorrect! The correct answer is Speaker3. نادرست! پاسخ صحیح گوینده۳ است,1,0.20060100000046077,None,0,63,183.97988404200078,183.99243837500035,185.98255258300014,,,177991,001,2024-06-30_14h01.24.443,5-23,2024.1.4,None,2024-06-30 14h01.29.647971 +0900,
Images/Speaker1.jpg,Images/Speaker2.jpg,Images/Speaker3.jpg,Images/Speaker4.jpg,Audio/Speaker1_En/P1-20-En.wav,Speaker1,گوینده ۱,,,,,,,,,0,63,63,19,186.00925237500087,,,,,,,,,,,,,,,,,,,,,,,,,,,,,,,,,,,,,,,,,,,,,185.98316087500098,186.00925237500087,186.00925237500087,186.00925237500087,186.00925237500087,186.0157390413338,186.00925237500087,186.00925237500087,186.06349016700005,Correct! صحیح است,1,0.04743179099932604,None,0,64,186.0674209580011,186.07861912500084,188.06337212499966,188.0888803329999,,177991,001,2024-06-30_14h01.24.443,5-23,2024.1.4,None,2024-06-30 14h01.29.647971 +0900,
Images/Speaker1.jpg,Images/Speaker2.jpg,Images/Speaker3.jpg,Images/Speaker4.jpg,Audio/Speaker3_En/P3-3-En.wav,Speaker3,گوینده۳,,,,,,,,,0,64,64,42,188.0888803329999,,,,,,,,,,,,,,,,,,,,,,,,,,,,,,,,,,,,,,,,,,,,,188.06351841700052,188.0888803329999,188.0888803329999,188.0888803329999,188.0888803329999,188.0964568753339,188.0888803329999,188.0888803329999,188.1890857920007,Incorrect! The correct answer is Speaker3. نادرست! پاسخ صحیح گوینده۳ است,1,0.09466174999943178,None,0,65,188.19331908300046,188.20585154200126,190.19533279200004,,,177991,001,2024-06-30_14h01.24.443,5-23,2024.1.4,None,2024-06-30 14h01.29.647971 +0900,
Images/Speaker1.jpg,Images/Speaker2.jpg,Images/Speaker3.jpg,Images/Speaker4.jpg,Audio/Speaker2_En/P2-4-En.wav,Speaker2,گوینده۲,,,,,,,,,0,65,65,23,190.21880166700066,,,,,,,,,,,,,,,,,,,,,,,,,,,,,,,,,,,,,,,,,,,,,190.19549316700068,190.21880166700066,190.21880166700066,190.21880166700066,190.21880166700066,190.2286290413345,190.21880166700066,190.21880166700066,190.30140929200024,Incorrect! The correct answer is Speaker2. نادرست! پاسخ صحیح گوینده۲ است,1,0.08053595799901814,None,0,66,190.30521537499953,190.31868079200103,192.31115070800115,,,177991,001,2024-06-30_14h01.24.443,5-23,2024.1.4,None,2024-06-30 14h01.29.647971 +0900,
Images/Speaker1.jpg,Images/Speaker2.jpg,Images/Speaker3.jpg,Images/Speaker4.jpg,Audio/Speaker1_En/P1-8-En.wav,Speaker1,گوینده ۱,,,,,,,,,0,66,66,7,192.3343529169997,,,,,,,,,,,,,,,,,,,,,,,,,,,,,,,,,,,,,,,,,,,,,192.3113174170012,192.3343529169997,192.3343529169997,192.3343529169997,192.3343529169997,192.32778541666656,192.3343529169997,192.3343529169997,192.5172763749997,Correct! صحیح است,1,0.18072899999970105,None,0,67,192.52118545800113,192.53233612500117,194.5210938750006,194.54464295800062,,177991,001,2024-06-30_14h01.24.443,5-23,2024.1.4,None,2024-06-30 14h01.29.647971 +0900,
Images/Speaker1.jpg,Images/Speaker2.jpg,Images/Speaker3.jpg,Images/Speaker4.jpg,Audio/Speaker1_En/P1-10-En.wav,Speaker1,گوینده ۱,,,,,,,,,0,67,67,9,194.54464295800062,,,,,,,,,,,,,,,,,,,,,,,,,,,,,,,,,,,,,,,,,,,,,194.5212592500011,194.54464295800062,194.54464295800062,194.54464295800062,194.54464295800062,194.55414616633294,194.54464295800062,194.54464295800062,194.68831704200056,Correct! صحیح است,1,0.13677724999979546,None,0,68,194.692412417,194.7036272080004,196.68802529200002,196.71189833300014,,177991,001,2024-06-30_14h01.24.443,5-23,2024.1.4,None,2024-06-30 14h01.29.647971 +0900,
Images/Speaker1.jpg,Images/Speaker2.jpg,Images/Speaker3.jpg,Images/Speaker4.jpg,Audio/Speaker4_En/P4-1-En.wav,Speaker4,گوینده۴,,,,,,,,,0,68,68,60,196.71189833300014,,,,,,,,,,,,,,,,,,,,,,,,,,,,,,,,,,,,,,,,,,,,,196.68821691700032,196.71189833300014,196.71189833300014,196.71189833300014,196.71189833300014,196.72104012533288,196.71189833300014,196.71189833300014,196.99017300000014,Incorrect! The correct answer is Speaker4. نادرست! پاسخ صحیح گوینده۴ است,1,0.2661697089988593,None,0,69,196.99433316700015,197.00723991700033,198.99943695799993,,,177991,001,2024-06-30_14h01.24.443,5-23,2024.1.4,None,2024-06-30 14h01.29.647971 +0900,
Images/Speaker1.jpg,Images/Speaker2.jpg,Images/Speaker3.jpg,Images/Speaker4.jpg,Audio/Speaker3_En/P3-1-En.wav,Speaker3,گوینده۳,,,,,,,,,0,69,69,40,199.0281837500006,,,,,,,,,,,,,,,,,,,,,,,,,,,,,,,,,,,,,,,,,,,,,199.0001608750008,199.0281837500006,199.0281837500006,199.0281837500006,199.0281837500006,199.0325977913331,199.0281837500006,199.0281837500006,199.24561995800104,Incorrect! The correct answer is Speaker3. نادرست! پاسخ صحیح گوینده۳ است,1,0.21309554199979175,None,0,70,199.24928970800102,199.2622090420009,201.24690250000094,201.27005437499975,,177991,001,2024-06-30_14h01.24.443,5-23,2024.1.4,None,2024-06-30 14h01.29.647971 +0900,
Images/Speaker1.jpg,Images/Speaker2.jpg,Images/Speaker3.jpg,Images/Speaker4.jpg,Audio/Speaker4_En/P4-10-En.wav,Speaker4,گوینده۴,,,,,,,,,0,70,70,69,201.27005437499975,,,,,,,,,,,,,,,,,,,,,,,,,,,,,,,,,,,,,,,,,,,,,201.24708745800126,201.27005437499975,201.27005437499975,201.27005437499975,201.27005437499975,201.27993325033327,201.27005437499975,201.27005437499975,201.57158529200024,Incorrect! The correct answer is Speaker4. نادرست! پاسخ صحیح گوینده۴ است,1,0.29799425000055635,None,0,71,201.575907542001,201.5895483330005,203.5774250000013,,,177991,001,2024-06-30_14h01.24.443,5-23,2024.1.4,None,2024-06-30 14h01.29.647971 +0900,
Images/Speaker1.jpg,Images/Speaker2.jpg,Images/Speaker3.jpg,Images/Speaker4.jpg,Audio/Speaker2_En/P2-10-En.wav,Speaker2,گوینده۲,,,,,,,,,0,71,71,29,203.60020537499986,,,,,,,,,,,,,,,,,,,,,,,,,,,,,,,,,,,,,,,,,,,,,203.57758166700114,203.60020537499986,203.60020537499986,203.60020537499986,203.60020537499986,203.59405974966674,203.60020537499986,203.60020537499986,203.75716658300007,Incorrect! The correct answer is Speaker2. نادرست! پاسخ صحیح گوینده۲ است,1,0.14897374999964086,None,0,72,203.76090295799986,203.7734418330001,205.7647248330013,,,177991,001,2024-06-30_14h01.24.443,5-23,2024.1.4,None,2024-06-30 14h01.29.647971 +0900,
Images/Speaker1.jpg,Images/Speaker2.jpg,Images/Speaker3.jpg,Images/Speaker4.jpg,Audio/Speaker1_En/P1-16-En.wav,Speaker1,گوینده ۱,,,,,,,,,0,72,72,15,205.7897447080013,,,,,,,,,,,,,,,,,,,,,,,,,,,,,,,,,,,,,,,,,,,,,205.7652564580003,205.7897447080013,205.7897447080013,205.7897447080013,205.7897447080013,205.79783920833376,205.7897447080013,205.7897447080013,205.85117354199974,Correct! صحیح است,1,0.05869075000009616,None,0,73,205.85497100000066,205.8662038750008,207.85095424999963,207.87529320800058,,177991,001,2024-06-30_14h01.24.443,5-23,2024.1.4,None,2024-06-30 14h01.29.647971 +0900,
Images/Speaker1.jpg,Images/Speaker2.jpg,Images/Speaker3.jpg,Images/Speaker4.jpg,Audio/Speaker3_En/P3-15-En.wav,Speaker3,گوینده۳,,,,,,,,,0,73,73,54,207.87529320800058,,,,,,,,,,,,,,,,,,,,,,,,,,,,,,,,,,,,,,,,,,,,,207.85110825000083,207.87529320800058,207.87529320800058,207.87529320800058,207.87529320800058,207.88402391633332,207.87529320800058,207.87529320800058,208.07427116700092,Incorrect! The correct answer is Speaker3. نادرست! پاسخ صحیح گوینده۳ است,1,0.18724595900130225,None,0,74,208.0781203330007,208.0910162500004,210.07739358300023,210.10130220800056,,177991,001,2024-06-30_14h01.24.443,5-23,2024.1.4,None,2024-06-30 14h01.29.647971 +0900,
Images/Speaker1.jpg,Images/Speaker2.jpg,Images/Speaker3.jpg,Images/Speaker4.jpg,Audio/Speaker2_En/P2-6-En.wav,Speaker2,گوینده۲,,,,,,,,,0,74,74,25,210.10130220800056,,,,,,,,,,,,,,,,,,,,,,,,,,,,,,,,,,,,,,,,,,,,,210.07757195799968,210.10130220800056,210.10130220800056,210.10130220800056,210.10130220800056,210.11042633333324,210.10130220800056,210.10130220800056,210.20670695800072,Incorrect! The correct answer is Speaker2. نادرست! پاسخ صحیح گوینده۲ است,1,0.09978654200131132,None,0,75,210.21092800000042,210.22347929200077,212.2091237500008,212.23211820799952,,177991,001,2024-06-30_14h01.24.443,5-23,2024.1.4,None,2024-06-30 14h01.29.647971 +0900,
Images/Speaker1.jpg,Images/Speaker2.jpg,Images/Speaker3.jpg,Images/Speaker4.jpg,Audio/Speaker4_En/P4-3-En.wav,Speaker4,گوینده۴,,,,,,,,,0,75,75,62,212.23211820799952,,,,,,,,,,,,,,,,,,,,,,,,,,,,,,,,,,,,,,,,,,,,,212.209321833001,212.23211820799952,212.23211820799952,212.23211820799952,212.23211820799952,212.2421555413335,212.23211820799952,212.23211820799952,212.40922537500046,Incorrect! The correct answer is Speaker4. نادرست! پاسخ صحیح گوینده۴ است,1,0.16812737500004005,None,0,76,212.41315020799993,212.42401029200119,214.41568175000066,,,177991,001,2024-06-30_14h01.24.443,5-23,2024.1.4,None,2024-06-30 14h01.29.647971 +0900,
Images/Speaker1.jpg,Images/Speaker2.jpg,Images/Speaker3.jpg,Images/Speaker4.jpg,Audio/Speaker2_En/P2-17-En.wav,Speaker2,گوینده۲,,,,,,,,,0,76,76,36,214.4401185830011,,,,,,,,,,,,,,,,,,,,,,,,,,,,,,,,,,,,,,,,,,,,,214.41629433300113,214.4401185830011,214.4401185830011,214.4401185830011,214.4401185830011,214.44881658333412,214.4401185830011,214.4401185830011,214.6134980830011,Incorrect! The correct answer is Speaker2. نادرست! پاسخ صحیح گوینده۲ است,1,0.17040916700170783,None,0,77,214.61751650000042,214.63050216699958,216.61629395800082,216.6407706250011,,177991,001,2024-06-30_14h01.24.443,5-23,2024.1.4,None,2024-06-30 14h01.29.647971 +0900,
Images/Speaker1.jpg,Images/Speaker2.jpg,Images/Speaker3.jpg,Images/Speaker4.jpg,Audio/Speaker2_En/P2-3-En.wav,Speaker2,گوینده۲,,,,,,,,,0,77,77,22,216.6407706250011,,,,,,,,,,,,,,,,,,,,,,,,,,,,,,,,,,,,,,,,,,,,,216.6171974580011,216.6407706250011,216.6407706250011,216.6407706250011,216.6407706250011,216.64858937533296,216.6407706250011,216.6407706250011,216.8005612500001,Incorrect! The correct answer is Speaker2. نادرست! پاسخ صحیح گوینده۲ است,1,0.15750137499890116,None,0,78,216.80474058300024,216.81775108300099,218.8070282919998,,,177991,001,2024-06-30_14h01.24.443,5-23,2024.1.4,None,2024-06-30 14h01.29.647971 +0900,
Images/Speaker1.jpg,Images/Speaker2.jpg,Images/Speaker3.jpg,Images/Speaker4.jpg,Audio/Speaker4_En/P4-7-En.wav,Speaker4,گوینده۴,,,,,,,,,0,78,78,66,218.8305320420004,,,,,,,,,,,,,,,,,,,,,,,,,,,,,,,,,,,,,,,,,,,,,218.8071991249999,218.8305320420004,218.8305320420004,218.8305320420004,218.8305320420004,218.84032366633306,218.8305320420004,218.8305320420004,220.06329316700067,Incorrect! The correct answer is Speaker4. نادرست! پاسخ صحیح گوینده۴ است,1,1.2256837919994723,None,0,79,220.06757404200107,220.08111087500038,222.06511825000052,222.08979920800084,,177991,001,2024-06-30_14h01.24.443,5-23,2024.1.4,None,2024-06-30 14h01.29.647971 +0900,
Images/Speaker1.jpg,Images/Speaker2.jpg,Images/Speaker3.jpg,Images/Speaker4.jpg,Audio/Speaker3_En/P3-10-En.wav,Speaker3,گوینده۳,,,,,,,,,0,79,79,49,222.08979920800084,,,,,,,,,,,,,,,,,,,,,,,,,,,,,,,,,,,,,,,,,,,,,222.0658402500012,222.08979920800084,222.08979920800084,222.08979920800084,222.08979920800084,222.09738545833403,222.08979920800084,222.08979920800084,222.71800258300027,Incorrect! The correct answer is Speaker3. نادرست! پاسخ صحیح گوینده۳ است,1,0.6272589170002902,None,0,80,222.7219527920006,222.73465295800088,224.72939250000127,,,177991,001,2024-06-30_14h01.24.443,5-23,2024.1.4,None,2024-06-30 14h01.29.647971 +0900,
,,,,,,,,,,,,,,,,,,,,,,,,,,,,,,,,,,,,,,,,,,,,,,,,,,,,,,,,,,,,,,,,,,,,,,,,,,,,,,,,,,,224.72944158300015,,,,,,,,
