SpeakerImage1,SpeakerImage2,SpeakerImage3,SpeakerImage4,TrainingSound,EnglishCorrectAnswer,PersianCorrectAnswer,TrainingLoopGroup1.thisRepN,TrainingLoopGroup1.thisTrialN,TrainingLoopGroup1.thisN,TrainingLoopGroup1.thisIndex,TrainingLoopGroup2.thisRepN,TrainingLoopGroup2.thisTrialN,TrainingLoopGroup2.thisN,TrainingLoopGroup2.thisIndex,TrainingLoopGroup3.thisRepN,TrainingLoopGroup3.thisTrialN,TrainingLoopGroup3.thisN,TrainingLoopGroup3.thisIndex,thisRow.t,notes,trial.started,trial.stopped,GroupSelection.started,GroupInstructions.started,key_resp.started,GroupSelection.stopped,key_resp.keys,key_resp.rt,key_resp.duration,Introduction.started,text_2.started,image.started,sound_7.started,text_4.started,text_2.stopped,sound_8.started,image_7.started,sound_9.started,text_5.started,image.stopped,text_4.stopped,sound_10.started,image_7.stopped,text_5.stopped,image_8.started,sound_11.started,text_6.started,sound_12.started,image_8.stopped,text_6.stopped,image_9.started,sound_13.started,text_7.started,sound_14.started,image_9.stopped,text_7.stopped,Introduction.stopped,Instructions.started,InstructionText.started,InstructionText.stopped,Instructions.stopped,InitializeExperiment.started,InitializeExperiment.stopped,TrainingGroup3.started,SpeakerPicture3.started,image_15.started,image_16.started,image_17.started,Sound3.started,Instruction3.started,Response3.started,TrainingGroup3.stopped,feedbackText,Response3.keys,Response3.rt,Response3.duration,correct_responses_group3,total_trials_group3,FeedbackRoutine3.started,FeedbackText3.started,FeedbackText3.stopped,FeedbackRoutine3.stopped,CheckAccuracy3.started,accuracy_group3,proceed_to_test_group3,CheckAccuracy3.stopped,participant,session,date,expName,psychopyVersion,frameRate,expStart,
,,,,,,,,,,,,,,,,,,,,,0.01102654199985409,0.011335457999848586,,,,,,,,,,,,,,,,,,,,,,,,,,,,,,,,,,,,,,,,,,,,,,,,,,,,,,,,,,,,,,,,,201888,001,2024-07-01_11h45.26.659,5-25,2024.1.4,None,2024-07-01 11h45.32.596912 +0900,
,,,,,,,,,,,,,,,,,,,,,,,0.011351125000146567,0.023095667000234243,0.023095667000234243,1.3796258329994089,3,1.3199310829995738,None,,,,,,,,,,,,,,,,,,,,,,,,,,,,,,,,,,,,,,,,,,,,,,,,,,,,,,,,,,201888,001,2024-07-01_11h45.26.659,5-25,2024.1.4,None,2024-07-01 11h45.32.596912 +0900,
,,,,,,,,,,,,,,,,,,,,,,,,,,,,,,1.379651707999983,1.4517441669995605,6.385615791999953,6.380756833666298,6.385615791999953,6.442538958000114,11.390335874666805,16.37616783300018,16.383151291666096,16.37616783300018,16.380697667000277,16.380697667000277,21.383005708666374,26.36830458300028,26.36830458300028,26.36830458300028,26.37998412466665,26.36830458300028,31.380854166666964,36.36331504200007,36.36331504200007,36.368552666999676,36.37998170866673,36.368552666999676,41.38151287466668,46.36098870800015,46.36098870800015,46.35628241699942,,,,,,,,,,,,,,,,,,,,,,,,,,,,,,201888,001,2024-07-01_11h45.26.659,5-25,2024.1.4,None,2024-07-01 11h45.32.596912 +0900,
,,,,,,,,,,,,,,,,,,,,,,,,,,,,,,,,,,,,,,,,,,,,,,,,,,,,,,,,,,46.35632474999966,46.37987358299961,47.45809762499994,47.373567583000295,,,,,,,,,,,,,,,,,,,,,,,,,,201888,001,2024-07-01_11h45.26.659,5-25,2024.1.4,None,2024-07-01 11h45.32.596912 +0900,
,,,,,,,,,,,,,,,,,,,,,,,,,,,,,,,,,,,,,,,,,,,,,,,,,,,,,,,,,,,,,,47.37358391699945,47.37373275000027,,,,,,,,,,,,,,,,,,,,,,,,201888,001,2024-07-01_11h45.26.659,5-25,2024.1.4,None,2024-07-01 11h45.32.596912 +0900,
Images/Speaker1.jpg,Images/Speaker2.jpg,Images/Speaker3.jpg,Images/Speaker4.jpg,Audio/Speaker4_En/P4-15-En.wav,Speaker4,گوینده۴,,,,,,,,,0,0,0,74,47.45809762499994,,,,,,,,,,,,,,,,,,,,,,,,,,,,,,,,,,,,,,,,,,,,,47.43063904199971,47.45809762499994,47.45809762499994,47.45809762499994,47.45809762499994,47.45669404133363,47.45809762499994,47.45809762499994,50.719544374999714,Correct! صحیح است,4,3.2595491249994666,None,0,1,50.72427708299983,50.737137000000075,52.74695191699993,52.72371275000023,52.723723832999895,0.0,False,52.72399295800005,201888,001,2024-07-01_11h45.26.659,5-25,2024.1.4,None,2024-07-01 11h45.32.596912 +0900,
Images/Speaker1.jpg,Images/Speaker2.jpg,Images/Speaker3.jpg,Images/Speaker4.jpg,Audio/Speaker2_En/P2-3-En.wav,Speaker2,گوینده۲,,,,,,,,,0,1,1,22,52.74695191699993,,,,,,,,,,,,,,,,,,,,,,,,,,,,,,,,,,,,,,,,,,,,,52.7241686669995,52.74695191699993,52.74695191699993,52.74695191699993,52.74695191699993,52.75679629133313,52.74695191699993,52.74695191699993,54.16135695799949,Correct! صحیح است,2,1.4089899589998822,None,0,2,54.16539791699961,54.176859041999705,56.18834416699974,56.162235750000036,56.162249332999636,0.0,False,56.16246287499962,201888,001,2024-07-01_11h45.26.659,5-25,2024.1.4,None,2024-07-01 11h45.32.596912 +0900,
Images/Speaker1.jpg,Images/Speaker2.jpg,Images/Speaker3.jpg,Images/Speaker4.jpg,Audio/Speaker2_En/P2-2-En.wav,Speaker2,گوینده۲,,,,,,,,,0,2,2,21,56.18834416699974,,,,,,,,,,,,,,,,,,,,,,,,,,,,,,,,,,,,,,,,,,,,,56.16268391699941,56.18834416699974,56.18834416699974,56.18834416699974,56.18834416699974,56.19537029133292,56.18834416699974,56.18834416699974,57.647417416999815,Correct! صحیح است,2,1.458006583000497,None,0,3,57.65225920800003,57.668955791999906,59.67574158299976,59.6523106249997,59.65231991699966,0.0,False,59.65248995799993,201888,001,2024-07-01_11h45.26.659,5-25,2024.1.4,None,2024-07-01 11h45.32.596912 +0900,
Images/Speaker1.jpg,Images/Speaker2.jpg,Images/Speaker3.jpg,Images/Speaker4.jpg,Audio/Speaker1_En/P1-17-En.wav,Speaker1,گوینده ۱,,,,,,,,,0,3,3,16,59.67574158299976,,,,,,,,,,,,,,,,,,,,,,,,,,,,,,,,,,,,,,,,,,,,,59.652673791999405,59.67574158299976,59.67574158299976,59.67574158299976,59.67574158299976,59.68540691633328,59.67574158299976,59.67574158299976,61.057700291999936,Correct! صحیح است,1,1.3797900420004225,None,0,4,61.0616791249995,61.073153542,63.0839134580001,63.057440874999884,63.05748104200029,0.0,False,63.05780429199967,201888,001,2024-07-01_11h45.26.659,5-25,2024.1.4,None,2024-07-01 11h45.32.596912 +0900,
Images/Speaker1.jpg,Images/Speaker2.jpg,Images/Speaker3.jpg,Images/Speaker4.jpg,Audio/Speaker1_En/P1-9-En.wav,Speaker1,گوینده ۱,,,,,,,,,0,4,4,8,63.0839134580001,,,,,,,,,,,,,,,,,,,,,,,,,,,,,,,,,,,,,,,,,,,,,63.0585076669995,63.0839134580001,63.0839134580001,63.0839134580001,63.0839134580001,63.08987283333275,63.0839134580001,63.0839134580001,64.27179587499995,Correct! صحیح است,1,1.183799917000215,None,0,5,64.27608387500004,64.28713783300009,66.29559879199951,66.27146133299993,66.27146979200006,0.0,False,66.27178937499957,201888,001,2024-07-01_11h45.26.659,5-25,2024.1.4,None,2024-07-01 11h45.32.596912 +0900,
Images/Speaker1.jpg,Images/Speaker2.jpg,Images/Speaker3.jpg,Images/Speaker4.jpg,Audio/Speaker1_En/P1-18-En.wav,Speaker1,گوینده ۱,,,,,,,,,0,5,5,17,66.29559879199951,,,,,,,,,,,,,,,,,,,,,,,,,,,,,,,,,,,,,,,,,,,,,66.27219029200023,66.29559879199951,66.29559879199951,66.29559879199951,66.29559879199951,66.30455366633353,66.29559879199951,66.29559879199951,67.28477787500015,Correct! صحیح است,1,0.9797732910001287,None,0,6,67.28855912499967,67.29951962499945,,69.28903145799995,69.28903962499953,0.0,False,69.2892435419999,201888,001,2024-07-01_11h45.26.659,5-25,2024.1.4,None,2024-07-01 11h45.32.596912 +0900,
Images/Speaker1.jpg,Images/Speaker2.jpg,Images/Speaker3.jpg,Images/Speaker4.jpg,Audio/Speaker4_En/P4-8-En.wav,Speaker4,گوینده۴,,,,,,,,,0,6,6,67,69.31273062499986,,,,,,,,,,,,,,,,,,,,,,,,,,,,,,,,,,,,,,,,,,,,,69.28940845800025,69.31273062499986,69.31273062499986,69.31273062499986,69.31273062499986,69.32232766633345,69.31273062499986,69.31273062499986,70.59194558299987,Correct! صحیح است,4,1.276619582999956,None,0,7,70.59611633300028,70.60748945799969,72.61664145800023,72.59286425000028,72.59287333300017,0.0,False,72.5930409169996,201888,001,2024-07-01_11h45.26.659,5-25,2024.1.4,None,2024-07-01 11h45.32.596912 +0900,
Images/Speaker1.jpg,Images/Speaker2.jpg,Images/Speaker3.jpg,Images/Speaker4.jpg,Audio/Speaker4_En/P4-10-En.wav,Speaker4,گوینده۴,,,,,,,,,0,7,7,69,72.61664145800023,,,,,,,,,,,,,,,,,,,,,,,,,,,,,,,,,,,,,,,,,,,,,72.59320983299949,72.61664145800023,72.61664145800023,72.61664145800023,72.61664145800023,72.62600358333341,72.61664145800023,72.61664145800023,73.88125166699956,Correct! صحیح است,4,1.2576943750000282,None,0,8,73.88546287499958,73.8966181249998,75.90825162500005,75.88424170799954,75.88426895799967,0.0,False,75.88463291700009,201888,001,2024-07-01_11h45.26.659,5-25,2024.1.4,None,2024-07-01 11h45.32.596912 +0900,
Images/Speaker1.jpg,Images/Speaker2.jpg,Images/Speaker3.jpg,Images/Speaker4.jpg,Audio/Speaker1_En/P1-3-En.wav,Speaker1,گوینده ۱,,,,,,,,,0,8,8,2,75.90825162500005,,,,,,,,,,,,,,,,,,,,,,,,,,,,,,,,,,,,,,,,,,,,,75.88538079199952,75.90825162500005,75.90825162500005,75.90825162500005,75.90825162500005,75.91671804133287,75.90825162500005,75.90825162500005,76.97238758299954,Correct! صحیح است,1,1.061548292000225,None,0,9,76.97765487499964,76.9911187079997,,78.97817629200017,78.97818437499973,0.0,False,78.97841133299971,201888,001,2024-07-01_11h45.26.659,5-25,2024.1.4,None,2024-07-01 11h45.32.596912 +0900,
Images/Speaker1.jpg,Images/Speaker2.jpg,Images/Speaker3.jpg,Images/Speaker4.jpg,Audio/Speaker2_En/P2-6-En.wav,Speaker2,گوینده۲,,,,,,,,,0,9,9,25,79.00230583299981,,,,,,,,,,,,,,,,,,,,,,,,,,,,,,,,,,,,,,,,,,,,,78.97859633299959,79.00230583299981,79.00230583299981,79.00230583299981,79.00230583299981,79.01145508333278,79.00230583299981,79.00230583299981,80.02442174999942,Correct! صحیح است,2,1.0118917499994495,None,0,10,80.02834562499993,80.03969916699953,82.05132487499941,82.02573245799977,82.02575875000002,0.0,False,82.02610354199987,201888,001,2024-07-01_11h45.26.659,5-25,2024.1.4,None,2024-07-01 11h45.32.596912 +0900,
Images/Speaker1.jpg,Images/Speaker2.jpg,Images/Speaker3.jpg,Images/Speaker4.jpg,Audio/Speaker3_En/P3-8-En.wav,Speaker3,گوینده۳,,,,,,,,,0,10,10,47,82.05132487499941,,,,,,,,,,,,,,,,,,,,,,,,,,,,,,,,,,,,,,,,,,,,,82.02703729199948,82.05132487499941,82.05132487499941,82.05132487499941,82.05132487499941,82.05823516633293,82.05132487499941,82.05132487499941,83.4255627499997,Correct! صحیح است,3,1.3624306249994333,None,0,11,83.43054254199978,83.44325529199978,85.45077883300019,85.42632058300023,85.4263294579996,0.0,False,85.42647837499953,201888,001,2024-07-01_11h45.26.659,5-25,2024.1.4,None,2024-07-01 11h45.32.596912 +0900,
Images/Speaker1.jpg,Images/Speaker2.jpg,Images/Speaker3.jpg,Images/Speaker4.jpg,Audio/Speaker1_En/P1-4-En.wav,Speaker1,گوینده ۱,,,,,,,,,0,11,11,3,85.45077883300019,,,,,,,,,,,,,,,,,,,,,,,,,,,,,,,,,,,,,,,,,,,,,85.42667383299977,85.45077883300019,85.45077883300019,85.45077883300019,85.45077883300019,85.45943412533282,85.45077883300019,85.45077883300019,86.41454133299976,Correct! صحیح است,1,0.9609457910000856,None,0,12,86.41866816699985,86.43018916700021,88.44302591699943,88.41830779199972,88.4183571249996,0.0,False,88.41874312500022,201888,001,2024-07-01_11h45.26.659,5-25,2024.1.4,None,2024-07-01 11h45.32.596912 +0900,
Images/Speaker1.jpg,Images/Speaker2.jpg,Images/Speaker3.jpg,Images/Speaker4.jpg,Audio/Speaker2_En/P2-20-En.wav,Speaker2,گوینده۲,,,,,,,,,0,12,12,39,88.44302591699943,,,,,,,,,,,,,,,,,,,,,,,,,,,,,,,,,,,,,,,,,,,,,88.41952450000008,88.44302591699943,88.44302591699943,88.44302591699943,88.44302591699943,88.45071166633309,88.44302591699943,88.44302591699943,89.44238179199965,Correct! صحیح است,2,0.9900506660005703,None,0,13,89.44618512499983,89.45534924999993,91.46483650000027,91.44154204200004,91.44155829200008,0.0,False,91.44169608299944,201888,001,2024-07-01_11h45.26.659,5-25,2024.1.4,None,2024-07-01 11h45.32.596912 +0900,
Images/Speaker1.jpg,Images/Speaker2.jpg,Images/Speaker3.jpg,Images/Speaker4.jpg,Audio/Speaker4_En/P4-7-En.wav,Speaker4,گوینده۴,,,,,,,,,0,13,13,66,91.46483650000027,,,,,,,,,,,,,,,,,,,,,,,,,,,,,,,,,,,,,,,,,,,,,91.441904583,91.46483650000027,91.46483650000027,91.46483650000027,91.46483650000027,91.47466125033364,91.46483650000027,91.46483650000027,92.53137233300004,Correct! صحیح است,4,1.0597465830005603,None,0,14,92.53526604199942,92.54700533300002,94.55526504199952,94.53060045799975,94.53060970800016,0.0,False,94.53075708300003,201888,001,2024-07-01_11h45.26.659,5-25,2024.1.4,None,2024-07-01 11h45.32.596912 +0900,
Images/Speaker1.jpg,Images/Speaker2.jpg,Images/Speaker3.jpg,Images/Speaker4.jpg,Audio/Speaker2_En/P2-14-En.wav,Speaker2,گوینده۲,,,,,,,,,0,14,14,33,94.55526504199952,,,,,,,,,,,,,,,,,,,,,,,,,,,,,,,,,,,,,,,,,,,,,94.53094891699948,94.55526504199952,94.55526504199952,94.55526504199952,94.55526504199952,94.5637274583328,94.55526504199952,94.55526504199952,95.76952891699966,Correct! صحیح است,2,1.2131906250006068,None,0,15,95.77340762499989,95.78474474999985,97.79611624999961,97.76994479199948,97.76995412499946,0.0,False,97.77011383299941,201888,001,2024-07-01_11h45.26.659,5-25,2024.1.4,None,2024-07-01 11h45.32.596912 +0900,
Images/Speaker1.jpg,Images/Speaker2.jpg,Images/Speaker3.jpg,Images/Speaker4.jpg,Audio/Speaker4_En/P4-18-En.wav,Speaker4,گوینده۴,,,,,,,,,0,15,15,77,97.79611624999961,,,,,,,,,,,,,,,,,,,,,,,,,,,,,,,,,,,,,,,,,,,,,97.77027937499952,97.79611624999961,97.79611624999961,97.79611624999961,97.79611624999961,97.80309250033363,97.79611624999961,97.79611624999961,99.0306197079999,Correct! صحیح است,4,1.2283424580000428,None,0,16,99.03567699999985,99.04737004199978,,101.04036529199948,101.04037499999959,0.0,False,101.04056437500003,201888,001,2024-07-01_11h45.26.659,5-25,2024.1.4,None,2024-07-01 11h45.32.596912 +0900,
Images/Speaker1.jpg,Images/Speaker2.jpg,Images/Speaker3.jpg,Images/Speaker4.jpg,Audio/Speaker1_En/P1-1-En.wav,Speaker1,گوینده ۱,,,,,,,,,0,16,16,0,101.06611299999986,,,,,,,,,,,,,,,,,,,,,,,,,,,,,,,,,,,,,,,,,,,,,101.04078508299972,101.06611299999986,101.06611299999986,101.06611299999986,101.06611299999986,101.07365966633327,101.06611299999986,101.06611299999986,102.46689891699953,Correct! صحیح است,1,1.3916724169994268,None,0,17,102.47092650000013,102.48231549999946,104.49514754200027,104.46748212500006,104.46750754200002,0.0,False,104.46785437499966,201888,001,2024-07-01_11h45.26.659,5-25,2024.1.4,None,2024-07-01 11h45.32.596912 +0900,
Images/Speaker1.jpg,Images/Speaker2.jpg,Images/Speaker3.jpg,Images/Speaker4.jpg,Audio/Speaker3_En/P3-13-En.wav,Speaker3,گوینده۳,,,,,,,,,0,17,17,52,104.49514754200027,,,,,,,,,,,,,,,,,,,,,,,,,,,,,,,,,,,,,,,,,,,,,104.46882379199997,104.49514754200027,104.49514754200027,104.49514754200027,104.49514754200027,104.49998300033306,104.49514754200027,104.49514754200027,105.54091133299971,Correct! صحیح است,3,1.0390626660000635,None,0,18,105.5449939580003,105.5564128750002,,107.54732787499961,107.54735824999989,0.0,False,107.54804324999986,201888,001,2024-07-01_11h45.26.659,5-25,2024.1.4,None,2024-07-01 11h45.32.596912 +0900,
Images/Speaker1.jpg,Images/Speaker2.jpg,Images/Speaker3.jpg,Images/Speaker4.jpg,Audio/Speaker2_En/P2-4-En.wav,Speaker2,گوینده۲,,,,,,,,,0,18,18,23,107.57236733299942,,,,,,,,,,,,,,,,,,,,,,,,,,,,,,,,,,,,,,,,,,,,,107.54900066699975,107.57236733299942,107.57236733299942,107.57236733299942,107.57236733299942,107.5805043333335,107.57236733299942,107.57236733299942,108.65369749999991,Correct! صحیح است,2,1.078448958000081,None,0,19,108.65752379199967,108.66943654199986,110.67939374999969,110.65462608300004,110.65463529199951,0.0,False,110.65479720799976,201888,001,2024-07-01_11h45.26.659,5-25,2024.1.4,None,2024-07-01 11h45.32.596912 +0900,
Images/Speaker1.jpg,Images/Speaker2.jpg,Images/Speaker3.jpg,Images/Speaker4.jpg,Audio/Speaker3_En/P3-11-En.wav,Speaker3,گوینده۳,,,,,,,,,0,19,19,50,110.67939374999969,,,,,,,,,,,,,,,,,,,,,,,,,,,,,,,,,,,,,,,,,,,,,110.65498104200014,110.67939374999969,110.67939374999969,110.67939374999969,110.67939374999969,110.68769116633351,110.67939374999969,110.67939374999969,112.12480191699979,Correct! صحیح است,3,1.4382437920003213,None,0,20,112.12909500000023,112.1400757499996,114.14570929199999,114.1233527079994,114.12336154199966,0.0,False,114.1235107499997,201888,001,2024-07-01_11h45.26.659,5-25,2024.1.4,None,2024-07-01 11h45.32.596912 +0900,
Images/Speaker1.jpg,Images/Speaker2.jpg,Images/Speaker3.jpg,Images/Speaker4.jpg,Audio/Speaker2_En/P2-12-En.wav,Speaker2,گوینده۲,,,,,,,,,0,20,20,31,114.14570929199999,,,,,,,,,,,,,,,,,,,,,,,,,,,,,,,,,,,,,,,,,,,,,114.1237082079997,114.14570929199999,114.14570929199999,114.14570929199999,114.14570929199999,114.13982587466695,114.14570929199999,114.14570929199999,115.28173529200012,Correct! صحیح است,2,1.132796333999977,None,0,21,115.28566470799979,115.2971405420003,117.30446520799978,117.28130808300011,117.2813173329996,0.0,False,117.28144708299988,201888,001,2024-07-01_11h45.26.659,5-25,2024.1.4,None,2024-07-01 11h45.32.596912 +0900,
Images/Speaker1.jpg,Images/Speaker2.jpg,Images/Speaker3.jpg,Images/Speaker4.jpg,Audio/Speaker1_En/P1-16-En.wav,Speaker1,گوینده ۱,,,,,,,,,0,21,21,15,117.30446520799978,,,,,,,,,,,,,,,,,,,,,,,,,,,,,,,,,,,,,,,,,,,,,117.28162474999954,117.30446520799978,117.30446520799978,117.30446520799978,117.30446520799978,117.31441887533359,117.30446520799978,117.30446520799978,118.42544999999973,Correct! صحیح است,1,1.1121294579997993,None,0,22,118.42977295800029,118.43851483300023,120.452019458,120.42511762499998,120.42514233299971,0.0,False,120.42544358299983,201888,001,2024-07-01_11h45.26.659,5-25,2024.1.4,None,2024-07-01 11h45.32.596912 +0900,
Images/Speaker1.jpg,Images/Speaker2.jpg,Images/Speaker3.jpg,Images/Speaker4.jpg,Audio/Speaker2_En/P2-5-En.wav,Speaker2,گوینده۲,,,,,,,,,0,22,22,24,120.452019458,,,,,,,,,,,,,,,,,,,,,,,,,,,,,,,,,,,,,,,,,,,,,120.42637545799971,120.452019458,120.452019458,120.452019458,120.452019458,120.45759562533343,120.452019458,120.452019458,121.91077949999999,Correct! صحیح است,2,1.45601995800007,None,0,23,121.91550633299994,121.92856804199982,123.9379109169995,123.91417129199999,123.91418900000008,0.0,False,123.91434000000027,201888,001,2024-07-01_11h45.26.659,5-25,2024.1.4,None,2024-07-01 11h45.32.596912 +0900,
Images/Speaker1.jpg,Images/Speaker2.jpg,Images/Speaker3.jpg,Images/Speaker4.jpg,Audio/Speaker3_En/P3-9-En.wav,Speaker3,گوینده۳,,,,,,,,,0,23,23,48,123.9379109169995,,,,,,,,,,,,,,,,,,,,,,,,,,,,,,,,,,,,,,,,,,,,,123.91450837499997,123.9379109169995,123.9379109169995,123.9379109169995,123.9379109169995,123.94729866633364,123.9379109169995,123.9379109169995,125.38113366699963,Incorrect! The correct answer is Speaker3. نادرست! پاسخ صحیح گوینده۳ است,4,1.433608500000446,None,0,24,125.38607429199965,125.40133558300022,127.40744033299961,127.38405708299979,127.38406604200009,0.0,False,127.3842077499994,201888,001,2024-07-01_11h45.26.659,5-25,2024.1.4,None,2024-07-01 11h45.32.596912 +0900,
Images/Speaker1.jpg,Images/Speaker2.jpg,Images/Speaker3.jpg,Images/Speaker4.jpg,Audio/Speaker4_En/P4-5-En.wav,Speaker4,گوینده۴,,,,,,,,,0,24,24,64,127.40744033299961,,,,,,,,,,,,,,,,,,,,,,,,,,,,,,,,,,,,,,,,,,,,,127.3843810419994,127.40744033299961,127.40744033299961,127.40744033299961,127.40744033299961,127.41716908333322,127.40744033299961,127.40744033299961,128.8652457500002,Correct! صحیح است,4,1.4544628749999902,None,0,25,128.8690877500003,128.8797101250002,130.88994258299954,130.86603962499976,130.86604887500016,0.0,False,130.86618995800018,201888,001,2024-07-01_11h45.26.659,5-25,2024.1.4,None,2024-07-01 11h45.32.596912 +0900,
Images/Speaker1.jpg,Images/Speaker2.jpg,Images/Speaker3.jpg,Images/Speaker4.jpg,Audio/Speaker1_En/P1-19-En.wav,Speaker1,گوینده ۱,,,,,,,,,0,25,25,18,130.88994258299954,,,,,,,,,,,,,,,,,,,,,,,,,,,,,,,,,,,,,,,,,,,,,130.866366708,130.88994258299954,130.88994258299954,130.88994258299954,130.88994258299954,130.89915987533328,130.88994258299954,130.88994258299954,132.20078137499968,Correct! صحیح است,1,1.296321333999913,None,0,26,132.20483483299995,132.21617625,134.22845958299968,134.20330525000008,134.20331449999958,0.0,False,134.2034749579998,201888,001,2024-07-01_11h45.26.659,5-25,2024.1.4,None,2024-07-01 11h45.32.596912 +0900,
Images/Speaker1.jpg,Images/Speaker2.jpg,Images/Speaker3.jpg,Images/Speaker4.jpg,Audio/Speaker4_En/P4-4-En.wav,Speaker4,گوینده۴,,,,,,,,,0,26,26,63,134.22845958299968,,,,,,,,,,,,,,,,,,,,,,,,,,,,,,,,,,,,,,,,,,,,,134.20366341699992,134.22845958299968,134.22845958299968,134.22845958299968,134.22845958299968,134.23641250033285,134.22845958299968,134.22845958299968,135.46048166699984,Correct! صحیح است,4,1.229856916999779,None,0,27,135.46453083300003,135.47603345799962,137.490678958,137.46525204199952,137.46528158299952,0.0,False,137.46555770800023,201888,001,2024-07-01_11h45.26.659,5-25,2024.1.4,None,2024-07-01 11h45.32.596912 +0900,
Images/Speaker1.jpg,Images/Speaker2.jpg,Images/Speaker3.jpg,Images/Speaker4.jpg,Audio/Speaker3_En/P3-1-En.wav,Speaker3,گوینده۳,,,,,,,,,0,27,27,40,137.490678958,,,,,,,,,,,,,,,,,,,,,,,,,,,,,,,,,,,,,,,,,,,,,137.46615933300018,137.490678958,137.490678958,137.490678958,137.490678958,137.49764833333353,137.490678958,137.490678958,138.88566145799996,Correct! صحیح است,3,1.3939709579999544,None,0,28,138.88953729199966,138.90030037499946,140.91450333299963,140.8883049999995,140.88831562499945,0.0,False,140.8884865,201888,001,2024-07-01_11h45.26.659,5-25,2024.1.4,None,2024-07-01 11h45.32.596912 +0900,
Images/Speaker1.jpg,Images/Speaker2.jpg,Images/Speaker3.jpg,Images/Speaker4.jpg,Audio/Speaker4_En/P4-2-En.wav,Speaker4,گوینده۴,,,,,,,,,0,28,28,61,140.91450333299963,,,,,,,,,,,,,,,,,,,,,,,,,,,,,,,,,,,,,,,,,,,,,140.88868600000023,140.91450333299963,140.91450333299963,140.91450333299963,140.91450333299963,140.9213601253328,140.91450333299963,140.91450333299963,142.5453076670001,Correct! صحیح است,4,1.626688125000328,None,0,29,142.5496414170002,142.5616862500001,144.5682986669999,144.54467225000008,144.5446799579995,0.0,False,144.5448354170003,201888,001,2024-07-01_11h45.26.659,5-25,2024.1.4,None,2024-07-01 11h45.32.596912 +0900,
Images/Speaker1.jpg,Images/Speaker2.jpg,Images/Speaker3.jpg,Images/Speaker4.jpg,Audio/Speaker4_En/P4-3-En.wav,Speaker4,گوینده۴,,,,,,,,,0,29,29,62,144.5682986669999,,,,,,,,,,,,,,,,,,,,,,,,,,,,,,,,,,,,,,,,,,,,,144.54503537500023,144.5682986669999,144.5682986669999,144.5682986669999,144.5682986669999,144.57773520833285,144.5682986669999,144.5682986669999,145.78940183299983,Correct! صحیح است,4,1.2186100830003852,None,0,30,145.79333725000015,145.80461941700014,,147.79887229199994,147.79891487500026,0.0,False,147.7996103329997,201888,001,2024-07-01_11h45.26.659,5-25,2024.1.4,None,2024-07-01 11h45.32.596912 +0900,
Images/Speaker1.jpg,Images/Speaker2.jpg,Images/Speaker3.jpg,Images/Speaker4.jpg,Audio/Speaker3_En/P3-20-En.wav,Speaker3,گوینده۳,,,,,,,,,0,30,30,59,147.82329933300025,,,,,,,,,,,,,,,,,,,,,,,,,,,,,,,,,,,,,,,,,,,,,147.80022833299972,147.82329933300025,147.82329933300025,147.82329933300025,147.82329933300025,147.8320248333335,147.82329933300025,147.82329933300025,149.0654993749995,Correct! صحیح است,3,1.2389596670000174,None,0,31,149.07019358300022,149.08236058300008,151.09234262500013,151.06811545799974,151.0681238750003,0.0,False,151.0682756670003,201888,001,2024-07-01_11h45.26.659,5-25,2024.1.4,None,2024-07-01 11h45.32.596912 +0900,
Images/Speaker1.jpg,Images/Speaker2.jpg,Images/Speaker3.jpg,Images/Speaker4.jpg,Audio/Speaker4_En/P4-19-En.wav,Speaker4,گوینده۴,,,,,,,,,0,31,31,78,151.09234262500013,,,,,,,,,,,,,,,,,,,,,,,,,,,,,,,,,,,,,,,,,,,,,151.0685097079995,151.09234262500013,151.09234262500013,151.09234262500013,151.09234262500013,151.10122575033307,151.09234262500013,151.09234262500013,152.38563762499962,Correct! صحیح است,4,1.2901098330003151,None,0,32,152.3909630420003,152.40287858299962,154.41098458299984,154.38777870800004,154.38779220800006,0.0,False,154.38794362499993,201888,001,2024-07-01_11h45.26.659,5-25,2024.1.4,None,2024-07-01 11h45.32.596912 +0900,
Images/Speaker1.jpg,Images/Speaker2.jpg,Images/Speaker3.jpg,Images/Speaker4.jpg,Audio/Speaker1_En/P1-8-En.wav,Speaker1,گوینده ۱,,,,,,,,,0,32,32,7,154.41098458299984,,,,,,,,,,,,,,,,,,,,,,,,,,,,,,,,,,,,,,,,,,,,,154.38811379199979,154.41098458299984,154.41098458299984,154.41098458299984,154.41098458299984,154.42086350033293,154.41098458299984,154.41098458299984,155.7576198329998,Correct! صحیح است,1,1.335928000000422,None,0,33,155.76232929199978,155.77478254200014,157.7831686669997,157.75982858299994,157.75983745800022,0.0,False,157.75998166699992,201888,001,2024-07-01_11h45.26.659,5-25,2024.1.4,None,2024-07-01 11h45.32.596912 +0900,
Images/Speaker1.jpg,Images/Speaker2.jpg,Images/Speaker3.jpg,Images/Speaker4.jpg,Audio/Speaker4_En/P4-6-En.wav,Speaker4,گوینده۴,,,,,,,,,0,33,33,65,157.7831686669997,,,,,,,,,,,,,,,,,,,,,,,,,,,,,,,,,,,,,,,,,,,,,157.76016508300017,157.7831686669997,157.7831686669997,157.7831686669997,157.7831686669997,157.79291795833302,157.7831686669997,157.7831686669997,159.22271275000003,Correct! صحیح است,4,1.4380445830001918,None,0,34,159.22683204199984,159.2378739169999,161.251362125,161.2240638329995,161.22408820799956,0.0,False,161.2243805829994,201888,001,2024-07-01_11h45.26.659,5-25,2024.1.4,None,2024-07-01 11h45.32.596912 +0900,
Images/Speaker1.jpg,Images/Speaker2.jpg,Images/Speaker3.jpg,Images/Speaker4.jpg,Audio/Speaker3_En/P3-2-En.wav,Speaker3,گوینده۳,,,,,,,,,0,34,34,41,161.251362125,,,,,,,,,,,,,,,,,,,,,,,,,,,,,,,,,,,,,,,,,,,,,161.2249701669998,161.251362125,161.251362125,161.251362125,161.251362125,161.2564579163332,161.251362125,161.251362125,162.46118458299952,Correct! صحیح است,3,1.205229624999447,None,0,35,162.46498858299947,162.4762805829996,,164.47298299999966,164.47302670799945,0.0,False,164.47384212499946,201888,001,2024-07-01_11h45.26.659,5-25,2024.1.4,None,2024-07-01 11h45.32.596912 +0900,
Images/Speaker1.jpg,Images/Speaker2.jpg,Images/Speaker3.jpg,Images/Speaker4.jpg,Audio/Speaker4_En/P4-17-En.wav,Speaker4,گوینده۴,,,,,,,,,0,35,35,76,164.49771758299994,,,,,,,,,,,,,,,,,,,,,,,,,,,,,,,,,,,,,,,,,,,,,164.47442662499998,164.49771758299994,164.49771758299994,164.49771758299994,164.49771758299994,164.5061565833335,164.49771758299994,164.49771758299994,166.04688312500002,Correct! صحیح است,4,1.546018125000046,None,0,36,166.05097729199952,166.06254716700005,,168.05780683299963,168.05783650000012,0.0,False,168.05845020800007,201888,001,2024-07-01_11h45.26.659,5-25,2024.1.4,None,2024-07-01 11h45.32.596912 +0900,
Images/Speaker1.jpg,Images/Speaker2.jpg,Images/Speaker3.jpg,Images/Speaker4.jpg,Audio/Speaker2_En/P2-16-En.wav,Speaker2,گوینده۲,,,,,,,,,0,36,36,35,168.08690124999976,,,,,,,,,,,,,,,,,,,,,,,,,,,,,,,,,,,,,,,,,,,,,168.0592592920002,168.08690124999976,168.08690124999976,168.08690124999976,168.08690124999976,168.09094187533316,168.08690124999976,168.08690124999976,169.3802163749997,Correct! صحیح است,2,1.2879040829993755,None,0,37,169.3843377080002,169.39578354199966,171.4101314999998,171.38436716700016,171.3843947079995,0.0,False,171.38482512500013,201888,001,2024-07-01_11h45.26.659,5-25,2024.1.4,None,2024-07-01 11h45.32.596912 +0900,
Images/Speaker1.jpg,Images/Speaker2.jpg,Images/Speaker3.jpg,Images/Speaker4.jpg,Audio/Speaker2_En/P2-19-En.wav,Speaker2,گوینده۲,,,,,,,,,0,37,37,38,171.4101314999998,,,,,,,,,,,,,,,,,,,,,,,,,,,,,,,,,,,,,,,,,,,,,171.38590091700007,171.4101314999998,171.4101314999998,171.4101314999998,171.4101314999998,171.4168201663329,171.4101314999998,171.4101314999998,172.48805166700004,Correct! صحیح است,2,1.0724881659998573,None,0,38,172.49185620800017,172.5032741670002,174.51193016700017,174.48848066699975,174.48848887500026,0.0,False,174.48864175000017,201888,001,2024-07-01_11h45.26.659,5-25,2024.1.4,None,2024-07-01 11h45.32.596912 +0900,
Images/Speaker1.jpg,Images/Speaker2.jpg,Images/Speaker3.jpg,Images/Speaker4.jpg,Audio/Speaker3_En/P3-10-En.wav,Speaker3,گوینده۳,,,,,,,,,0,38,38,49,174.51193016700017,,,,,,,,,,,,,,,,,,,,,,,,,,,,,,,,,,,,,,,,,,,,,174.4888288330003,174.51193016700017,174.51193016700017,174.51193016700017,174.51193016700017,174.52155616633314,174.51193016700017,174.51193016700017,176.06369129199993,Correct! صحیح است,3,1.5504259160006768,None,0,39,176.06787437499952,176.0811522920003,178.09295225000005,178.0660444999994,178.06606699999975,0.0,False,178.06636141699983,201888,001,2024-07-01_11h45.26.659,5-25,2024.1.4,None,2024-07-01 11h45.32.596912 +0900,
Images/Speaker1.jpg,Images/Speaker2.jpg,Images/Speaker3.jpg,Images/Speaker4.jpg,Audio/Speaker2_En/P2-11-En.wav,Speaker2,گوینده۲,,,,,,,,,0,39,39,30,178.09295225000005,,,,,,,,,,,,,,,,,,,,,,,,,,,,,,,,,,,,,,,,,,,,,178.066934167,178.09295225000005,178.09295225000005,178.09295225000005,178.09295225000005,178.0984874583333,178.09295225000005,178.09295225000005,179.54897812499985,Correct! صحیح است,2,1.4526491249998799,None,0,40,179.553180375,179.56458895800006,,181.55831087499973,181.55834200000027,0.0,False,181.55932683299943,201888,001,2024-07-01_11h45.26.659,5-25,2024.1.4,None,2024-07-01 11h45.32.596912 +0900,
Images/Speaker1.jpg,Images/Speaker2.jpg,Images/Speaker3.jpg,Images/Speaker4.jpg,Audio/Speaker3_En/P3-3-En.wav,Speaker3,گوینده۳,,,,,,,,,0,40,40,42,181.58455604200026,,,,,,,,,,,,,,,,,,,,,,,,,,,,,,,,,,,,,,,,,,,,,181.56024604199956,181.58455604200026,181.58455604200026,181.58455604200026,181.58455604200026,181.5915132083333,181.58455604200026,181.58455604200026,182.87347695799963,Incorrect! The correct answer is Speaker3. نادرست! پاسخ صحیح گوینده۳ است,1,1.2863538330002484,None,0,41,182.87727774999985,182.8903585830003,184.89797395799997,184.87293679199956,184.87294654200014,0.0,False,184.87308154199945,201888,001,2024-07-01_11h45.26.659,5-25,2024.1.4,None,2024-07-01 11h45.32.596912 +0900,
Images/Speaker1.jpg,Images/Speaker2.jpg,Images/Speaker3.jpg,Images/Speaker4.jpg,Audio/Speaker2_En/P2-15-En.wav,Speaker2,گوینده۲,,,,,,,,,0,41,41,34,184.89797395799997,,,,,,,,,,,,,,,,,,,,,,,,,,,,,,,,,,,,,,,,,,,,,184.8732720830003,184.89797395799997,184.89797395799997,184.89797395799997,184.89797395799997,184.906080958333,184.89797395799997,184.89797395799997,186.2236647919999,Correct! صحیح است,2,1.3174175829999513,None,0,42,186.22889362499973,186.24102049999965,188.24875129199972,188.22462754200023,188.22465766699952,0.0,False,188.22504333300003,201888,001,2024-07-01_11h45.26.659,5-25,2024.1.4,None,2024-07-01 11h45.32.596912 +0900,
Images/Speaker1.jpg,Images/Speaker2.jpg,Images/Speaker3.jpg,Images/Speaker4.jpg,Audio/Speaker1_En/P1-6-En.wav,Speaker1,گوینده ۱,,,,,,,,,0,42,42,5,188.24875129199972,,,,,,,,,,,,,,,,,,,,,,,,,,,,,,,,,,,,,,,,,,,,,188.22578729199995,188.24875129199972,188.24875129199972,188.24875129199972,188.24875129199972,188.2570340003336,188.24875129199972,188.24875129199972,189.29471091699997,Correct! صحیح است,1,1.043362624999645,None,0,43,189.29852383300022,189.30954475,191.3219159579994,191.29749512499984,191.29750400000012,0.0,False,191.2976945829996,201888,001,2024-07-01_11h45.26.659,5-25,2024.1.4,None,2024-07-01 11h45.32.596912 +0900,
Images/Speaker1.jpg,Images/Speaker2.jpg,Images/Speaker3.jpg,Images/Speaker4.jpg,Audio/Speaker2_En/P2-9-En.wav,Speaker2,گوینده۲,,,,,,,,,0,43,43,28,191.3219159579994,,,,,,,,,,,,,,,,,,,,,,,,,,,,,,,,,,,,,,,,,,,,,191.29785908299982,191.3219159579994,191.3219159579994,191.3219159579994,191.3219159579994,191.33058945833324,191.3219159579994,191.3219159579994,192.4972754999999,Correct! صحیح است,2,1.1739462499999718,None,0,44,192.50135604200022,192.51338016699992,194.5199915000003,194.4985535830001,194.49856391699996,0.0,False,194.4987289999999,201888,001,2024-07-01_11h45.26.659,5-25,2024.1.4,None,2024-07-01 11h45.32.596912 +0900,
Images/Speaker1.jpg,Images/Speaker2.jpg,Images/Speaker3.jpg,Images/Speaker4.jpg,Audio/Speaker4_En/P4-13-En.wav,Speaker4,گوینده۴,,,,,,,,,0,44,44,72,194.5199915000003,,,,,,,,,,,,,,,,,,,,,,,,,,,,,,,,,,,,,,,,,,,,,194.49891433299945,194.5199915000003,194.5199915000003,194.5199915000003,194.5199915000003,194.515016708667,194.5199915000003,194.5199915000003,196.07801562500026,Correct! صحیح است,4,1.5555514580000818,None,0,45,196.08326383300027,196.09622587499962,,198.08951637500013,198.08954499999982,0.0,False,198.0904695829995,201888,001,2024-07-01_11h45.26.659,5-25,2024.1.4,None,2024-07-01 11h45.32.596912 +0900,
Images/Speaker1.jpg,Images/Speaker2.jpg,Images/Speaker3.jpg,Images/Speaker4.jpg,Audio/Speaker2_En/P2-18-En.wav,Speaker2,گوینده۲,,,,,,,,,0,45,45,37,198.1139535000002,,,,,,,,,,,,,,,,,,,,,,,,,,,,,,,,,,,,,,,,,,,,,198.09110037499977,198.1139535000002,198.1139535000002,198.1139535000002,198.1139535000002,198.1226380003332,198.1139535000002,198.1139535000002,199.25816441699953,Correct! صحیح است,2,1.1341150830003244,None,0,46,199.26280183299968,199.27580175000003,,201.26556716699997,201.2656011250001,0.0,False,201.26643716699982,201888,001,2024-07-01_11h45.26.659,5-25,2024.1.4,None,2024-07-01 11h45.32.596912 +0900,
Images/Speaker1.jpg,Images/Speaker2.jpg,Images/Speaker3.jpg,Images/Speaker4.jpg,Audio/Speaker2_En/P2-8-En.wav,Speaker2,گوینده۲,,,,,,,,,0,46,46,27,201.29155479200017,,,,,,,,,,,,,,,,,,,,,,,,,,,,,,,,,,,,,,,,,,,,,201.26723554199998,201.29155479200017,201.29155479200017,201.29155479200017,201.29155479200017,201.29869987533363,201.29155479200017,201.29155479200017,202.42857575000016,Correct! صحیح است,2,1.1352851250003368,None,0,47,202.43233766699996,202.44363862499995,204.45162570799948,204.42817804199967,204.42818674999944,0.0,False,204.42835995799942,201888,001,2024-07-01_11h45.26.659,5-25,2024.1.4,None,2024-07-01 11h45.32.596912 +0900,
Images/Speaker1.jpg,Images/Speaker2.jpg,Images/Speaker3.jpg,Images/Speaker4.jpg,Audio/Speaker3_En/P3-19-En.wav,Speaker3,گوینده۳,,,,,,,,,0,47,47,58,204.45162570799948,,,,,,,,,,,,,,,,,,,,,,,,,,,,,,,,,,,,,,,,,,,,,204.42854429199997,204.45162570799948,204.45162570799948,204.45162570799948,204.45162570799948,204.46124487533285,204.45162570799948,204.45162570799948,205.7455942079996,Correct! صحیح است,3,1.289852208999946,None,0,48,205.74988074999965,205.76139987500028,,207.75752850000026,207.75756629199986,0.0,False,207.75852154199947,201888,001,2024-07-01_11h45.26.659,5-25,2024.1.4,None,2024-07-01 11h45.32.596912 +0900,
Images/Speaker1.jpg,Images/Speaker2.jpg,Images/Speaker3.jpg,Images/Speaker4.jpg,Audio/Speaker1_En/P1-10-En.wav,Speaker1,گوینده ۱,,,,,,,,,0,48,48,9,207.78371645799962,,,,,,,,,,,,,,,,,,,,,,,,,,,,,,,,,,,,,,,,,,,,,207.75958241700027,207.78371645799962,207.78371645799962,207.78371645799962,207.78371645799962,207.79065833333294,207.78371645799962,207.78371645799962,209.02168087500013,Correct! صحیح است,1,1.2275330000002214,None,0,49,209.0254775000003,209.0373771249997,,211.03222662499957,211.0322605829997,0.0,False,211.03297445799944,201888,001,2024-07-01_11h45.26.659,5-25,2024.1.4,None,2024-07-01 11h45.32.596912 +0900,
Images/Speaker1.jpg,Images/Speaker2.jpg,Images/Speaker3.jpg,Images/Speaker4.jpg,Audio/Speaker2_En/P2-10-En.wav,Speaker2,گوینده۲,,,,,,,,,0,49,49,29,211.05937766700026,,,,,,,,,,,,,,,,,,,,,,,,,,,,,,,,,,,,,,,,,,,,,211.03362275000018,211.05937766700026,211.05937766700026,211.05937766700026,211.05937766700026,211.06537004133367,211.05937766700026,211.05937766700026,212.2370072499998,Correct! صحیح است,2,1.1741791249996822,None,0,50,212.24084133299948,212.25226349999957,214.25979129200005,214.2364782499999,214.2364864579995,0.0,False,214.2366635419994,201888,001,2024-07-01_11h45.26.659,5-25,2024.1.4,None,2024-07-01 11h45.32.596912 +0900,
Images/Speaker1.jpg,Images/Speaker2.jpg,Images/Speaker3.jpg,Images/Speaker4.jpg,Audio/Speaker2_En/P2-17-En.wav,Speaker2,گوینده۲,,,,,,,,,0,50,50,36,214.25979129200005,,,,,,,,,,,,,,,,,,,,,,,,,,,,,,,,,,,,,,,,,,,,,214.23686841699964,214.25979129200005,214.25979129200005,214.25979129200005,214.25979129200005,214.26958516633346,214.25979129200005,214.25979129200005,215.89686408299985,Correct! صحیح است,2,1.634743042000082,None,0,51,215.90181870800006,215.9140909580001,,217.9051416249995,217.90514933299983,0.0,False,217.90531395800008,201888,001,2024-07-01_11h45.26.659,5-25,2024.1.4,None,2024-07-01 11h45.32.596912 +0900,
Images/Speaker1.jpg,Images/Speaker2.jpg,Images/Speaker3.jpg,Images/Speaker4.jpg,Audio/Speaker1_En/P1-2-En.wav,Speaker1,گوینده ۱,,,,,,,,,0,51,51,1,217.9293173750002,,,,,,,,,,,,,,,,,,,,,,,,,,,,,,,,,,,,,,,,,,,,,217.90548854200006,217.9293173750002,217.9293173750002,217.9293173750002,217.9293173750002,217.93844387533278,217.9293173750002,217.9293173750002,218.74689712500003,Correct! صحیح است,1,0.8088804580002034,None,0,52,218.75105687499945,218.76209754199954,,220.75783899999988,220.75788470799944,0.0,False,220.75875304199963,201888,001,2024-07-01_11h45.26.659,5-25,2024.1.4,None,2024-07-01 11h45.32.596912 +0900,
Images/Speaker1.jpg,Images/Speaker2.jpg,Images/Speaker3.jpg,Images/Speaker4.jpg,Audio/Speaker2_En/P2-1-En.wav,Speaker2,گوینده۲,,,,,,,,,0,52,52,20,220.78649549999955,,,,,,,,,,,,,,,,,,,,,,,,,,,,,,,,,,,,,,,,,,,,,220.75972670800002,220.78649549999955,220.78649549999955,220.78649549999955,220.78649549999955,220.79096537533366,220.78649549999955,220.78649549999955,222.08109879199947,Correct! صحیح است,2,1.2860299579997445,None,0,53,222.08495279199997,222.09598904199993,224.10787600000003,224.0822017499995,224.0822254169998,0.0,False,224.08254079200015,201888,001,2024-07-01_11h45.26.659,5-25,2024.1.4,None,2024-07-01 11h45.32.596912 +0900,
Images/Speaker1.jpg,Images/Speaker2.jpg,Images/Speaker3.jpg,Images/Speaker4.jpg,Audio/Speaker3_En/P3-12-En.wav,Speaker3,گوینده۳,,,,,,,,,0,53,53,51,224.10787600000003,,,,,,,,,,,,,,,,,,,,,,,,,,,,,,,,,,,,,,,,,,,,,224.08311791699998,224.10787600000003,224.10787600000003,224.10787600000003,224.10787600000003,224.114570958333,224.10787600000003,224.10787600000003,225.6978897500003,Correct! صحیح است,3,1.5773790000002919,None,0,54,225.70214758299971,225.71129562500028,,227.70503033299974,227.70504179199997,0.0,False,227.70524895800008,201888,001,2024-07-01_11h45.26.659,5-25,2024.1.4,None,2024-07-01 11h45.32.596912 +0900,
Images/Speaker1.jpg,Images/Speaker2.jpg,Images/Speaker3.jpg,Images/Speaker4.jpg,Audio/Speaker1_En/P1-7-En.wav,Speaker1,گوینده ۱,,,,,,,,,0,54,54,6,227.7287322080001,,,,,,,,,,,,,,,,,,,,,,,,,,,,,,,,,,,,,,,,,,,,,227.7054445419999,227.7287322080001,227.7287322080001,227.7287322080001,227.7287322080001,227.7383278753328,227.7287322080001,227.7287322080001,228.91538870800014,Correct! صحیح است,1,1.184532625000429,None,0,55,228.92045283300013,228.93295537499944,,230.92148029199961,230.9215172080003,0.0,False,230.92203162500027,201888,001,2024-07-01_11h45.26.659,5-25,2024.1.4,None,2024-07-01 11h45.32.596912 +0900,
Images/Speaker1.jpg,Images/Speaker2.jpg,Images/Speaker3.jpg,Images/Speaker4.jpg,Audio/Speaker3_En/P3-5-En.wav,Speaker3,گوینده۳,,,,,,,,,0,55,55,44,230.9486448329999,,,,,,,,,,,,,,,,,,,,,,,,,,,,,,,,,,,,,,,,,,,,,230.92253283299942,230.9486448329999,230.9486448329999,230.9486448329999,230.9486448329999,230.95466733333302,230.9486448329999,230.9486448329999,234.93728937499964,Correct! صحیح است,3,3.980646875000275,None,0,56,234.93754229200022,234.94629087500016,,236.94033820799996,236.94036633299947,0.0,False,236.94107670799985,201888,001,2024-07-01_11h45.26.659,5-25,2024.1.4,None,2024-07-01 11h45.32.596912 +0900,
Images/Speaker1.jpg,Images/Speaker2.jpg,Images/Speaker3.jpg,Images/Speaker4.jpg,Audio/Speaker1_En/P1-5-En.wav,Speaker1,گوینده ۱,,,,,,,,,0,56,56,4,236.96793870799956,,,,,,,,,,,,,,,,,,,,,,,,,,,,,,,,,,,,,,,,,,,,,236.94164829199963,236.96793870799956,236.96793870799956,236.96793870799956,236.96793870799956,236.97348741633283,236.96793870799956,236.96793870799956,238.39269091699953,Correct! صحیح است,1,1.4153043330006767,None,0,57,238.3969385829996,238.40813158299989,,240.3999167080001,240.39992466700005,0.0,False,240.40012433299944,201888,001,2024-07-01_11h45.26.659,5-25,2024.1.4,None,2024-07-01 11h45.32.596912 +0900,
Images/Speaker1.jpg,Images/Speaker2.jpg,Images/Speaker3.jpg,Images/Speaker4.jpg,Audio/Speaker4_En/P4-14-En.wav,Speaker4,گوینده۴,,,,,,,,,0,57,57,73,240.42522333299985,,,,,,,,,,,,,,,,,,,,,,,,,,,,,,,,,,,,,,,,,,,,,240.40031637499942,240.42522333299985,240.42522333299985,240.42522333299985,240.42522333299985,240.433211125333,240.42522333299985,240.42522333299985,242.031536167,Correct! صحیح است,4,1.5993000420003227,None,0,58,242.0356596669999,242.04671908299952,244.05472029199973,244.02939324999988,244.02941308299978,0.0,False,244.02959116700004,201888,001,2024-07-01_11h45.26.659,5-25,2024.1.4,None,2024-07-01 11h45.32.596912 +0900,
Images/Speaker1.jpg,Images/Speaker2.jpg,Images/Speaker3.jpg,Images/Speaker4.jpg,Audio/Speaker4_En/P4-9-En.wav,Speaker4,گوینده۴,,,,,,,,,0,58,58,68,244.05472029199973,,,,,,,,,,,,,,,,,,,,,,,,,,,,,,,,,,,,,,,,,,,,,244.02984916700007,244.05472029199973,244.05472029199973,244.05472029199973,244.05472029199973,244.06250262533337,244.05472029199973,244.05472029199973,245.39404616699994,Correct! صحیح است,4,1.3379849579996517,None,0,59,245.39818433300024,245.41004970799986,,247.40085508299944,247.40089474999968,0.0,False,247.40168804199948,201888,001,2024-07-01_11h45.26.659,5-25,2024.1.4,None,2024-07-01 11h45.32.596912 +0900,
Images/Speaker1.jpg,Images/Speaker2.jpg,Images/Speaker3.jpg,Images/Speaker4.jpg,Audio/Speaker3_En/P3-4-En.wav,Speaker3,گوینده۳,,,,,,,,,0,59,59,43,247.4263782500002,,,,,,,,,,,,,,,,,,,,,,,,,,,,,,,,,,,,,,,,,,,,,247.402619083,247.4263782500002,247.4263782500002,247.4263782500002,247.4263782500002,247.43401508333278,247.4263782500002,247.4263782500002,248.57842083299965,Correct! صحیح است,3,1.1441193330001624,None,0,60,248.58240179199947,248.5909822499998,250.59853337499953,250.57494762500028,250.5749574169995,0.0,False,250.57511929199973,201888,001,2024-07-01_11h45.26.659,5-25,2024.1.4,None,2024-07-01 11h45.32.596912 +0900,
Images/Speaker1.jpg,Images/Speaker2.jpg,Images/Speaker3.jpg,Images/Speaker4.jpg,Audio/Speaker4_En/P4-12-En.wav,Speaker4,گوینده۴,,,,,,,,,0,60,60,71,250.59853337499953,,,,,,,,,,,,,,,,,,,,,,,,,,,,,,,,,,,,,,,,,,,,,250.57530637499985,250.59853337499953,250.59853337499953,250.59853337499953,250.59853337499953,250.60805633333308,250.59853337499953,250.59853337499953,252.1216316250002,Correct! صحیح است,4,1.5148610829992322,None,0,61,252.12537204199998,252.13462983299996,254.14725845799967,254.12223875000018,254.12224650000007,0.0,False,254.12240183299946,201888,001,2024-07-01_11h45.26.659,5-25,2024.1.4,None,2024-07-01 11h45.32.596912 +0900,
Images/Speaker1.jpg,Images/Speaker2.jpg,Images/Speaker3.jpg,Images/Speaker4.jpg,Audio/Speaker1_En/P1-15-En.wav,Speaker1,گوینده ۱,,,,,,,,,0,61,61,14,254.14725845799967,,,,,,,,,,,,,,,,,,,,,,,,,,,,,,,,,,,,,,,,,,,,,254.12259804199948,254.14725845799967,254.14725845799967,254.14725845799967,254.14725845799967,254.15528308333302,254.14725845799967,254.14725845799967,256.06927641699986,Correct! صحیح است,1,1.9171930419997807,None,0,62,256.07323366699984,256.08449816699977,258.0915122919996,258.06877070799965,258.0687801670001,0.0,False,258.0689675829999,201888,001,2024-07-01_11h45.26.659,5-25,2024.1.4,None,2024-07-01 11h45.32.596912 +0900,
Images/Speaker1.jpg,Images/Speaker2.jpg,Images/Speaker3.jpg,Images/Speaker4.jpg,Audio/Speaker4_En/P4-16-En.wav,Speaker4,گوینده۴,,,,,,,,,0,62,62,75,258.0915122919996,,,,,,,,,,,,,,,,,,,,,,,,,,,,,,,,,,,,,,,,,,,,,258.0691674999998,258.0915122919996,258.0915122919996,258.0915122919996,258.0915122919996,258.0851535836666,258.0915122919996,258.0915122919996,263.2827173329997,Correct! صحیح است,4,5.179398708000008,None,0,63,263.2831685000001,263.2949749999998,265.30361962499956,265.2801799580002,265.2801884999999,0.0,False,265.2803650830001,201888,001,2024-07-01_11h45.26.659,5-25,2024.1.4,None,2024-07-01 11h45.32.596912 +0900,
Images/Speaker1.jpg,Images/Speaker2.jpg,Images/Speaker3.jpg,Images/Speaker4.jpg,Audio/Speaker2_En/P2-13-En.wav,Speaker2,گوینده۲,,,,,,,,,0,63,63,32,265.30361962499956,,,,,,,,,,,,,,,,,,,,,,,,,,,,,,,,,,,,,,,,,,,,,265.28056666700013,265.30361962499956,265.30361962499956,265.30361962499956,265.30361962499956,265.3132207083331,265.30361962499956,265.30361962499956,267.158790083,Correct! صحیح است,2,1.841191333000097,None,0,64,267.16267691699977,267.1743076249995,,269.16363383299995,269.1636412500002,0.0,False,269.16382174999944,201888,001,2024-07-01_11h45.26.659,5-25,2024.1.4,None,2024-07-01 11h45.32.596912 +0900,
Images/Speaker1.jpg,Images/Speaker2.jpg,Images/Speaker3.jpg,Images/Speaker4.jpg,Audio/Speaker1_En/P1-12-En.wav,Speaker1,گوینده ۱,,,,,,,,,0,64,64,11,269.1870917919996,,,,,,,,,,,,,,,,,,,,,,,,,,,,,,,,,,,,,,,,,,,,,269.16402041699985,269.1870917919996,269.1870917919996,269.1870917919996,269.1870917919996,269.1969292083336,269.1870917919996,269.1870917919996,270.66789620799955,Correct! صحیح است,1,1.4742500419997668,None,0,65,270.67174458299996,270.6832933329997,,272.67204879200017,272.6720569580002,0.0,False,272.6722291670003,201888,001,2024-07-01_11h45.26.659,5-25,2024.1.4,None,2024-07-01 11h45.32.596912 +0900,
Images/Speaker1.jpg,Images/Speaker2.jpg,Images/Speaker3.jpg,Images/Speaker4.jpg,Audio/Speaker3_En/P3-16-En.wav,Speaker3,گوینده۳,,,,,,,,,0,65,65,55,272.69577562499944,,,,,,,,,,,,,,,,,,,,,,,,,,,,,,,,,,,,,,,,,,,,,272.67242183300004,272.69577562499944,272.69577562499944,272.69577562499944,272.69577562499944,272.7053420833331,272.69577562499944,272.69577562499944,274.341653167,Correct! صحیح است,3,1.6433579170006851,None,0,66,274.3454504169995,274.35641029199996,276.3630545420001,276.339979333,276.3399920419997,0.0,False,276.3401347079998,201888,001,2024-07-01_11h45.26.659,5-25,2024.1.4,None,2024-07-01 11h45.32.596912 +0900,
Images/Speaker1.jpg,Images/Speaker2.jpg,Images/Speaker3.jpg,Images/Speaker4.jpg,Audio/Speaker4_En/P4-11-En.wav,Speaker4,گوینده۴,,,,,,,,,0,66,66,70,276.3630545420001,,,,,,,,,,,,,,,,,,,,,,,,,,,,,,,,,,,,,,,,,,,,,276.34030325000003,276.3630545420001,276.3630545420001,276.3630545420001,276.3630545420001,276.37312383333347,276.3630545420001,276.3630545420001,277.5564342919997,Correct! صحیح است,4,1.182672583000567,None,0,67,277.5601024580001,277.5708359170003,,279.5604269579999,279.56043475000024,0.0,False,279.5606183330001,201888,001,2024-07-01_11h45.26.659,5-25,2024.1.4,None,2024-07-01 11h45.32.596912 +0900,
Images/Speaker1.jpg,Images/Speaker2.jpg,Images/Speaker3.jpg,Images/Speaker4.jpg,Audio/Speaker3_En/P3-17-En.wav,Speaker3,گوینده۳,,,,,,,,,0,67,67,56,279.5822680829997,,,,,,,,,,,,,,,,,,,,,,,,,,,,,,,,,,,,,,,,,,,,,279.5608036670001,279.5822680829997,279.5822680829997,279.5822680829997,279.5822680829997,279.57705758366615,279.5822680829997,279.5822680829997,281.71575479199964,Correct! صحیح است,3,2.128430541999478,None,0,68,281.71993058299995,281.7314752080001,,283.7237562499995,283.723780542,0.0,False,283.72445558300024,201888,001,2024-07-01_11h45.26.659,5-25,2024.1.4,None,2024-07-01 11h45.32.596912 +0900,
Images/Speaker1.jpg,Images/Speaker2.jpg,Images/Speaker3.jpg,Images/Speaker4.jpg,Audio/Speaker1_En/P1-4-En.wav,Speaker1,گوینده ۱,,,,,,,,,0,68,68,13,283.746997833,,,,,,,,,,,,,,,,,,,,,,,,,,,,,,,,,,,,,,,,,,,,,283.72502370799975,283.746997833,283.746997833,283.746997833,283.746997833,283.7569090413331,283.746997833,283.746997833,284.9661731670003,Correct! صحیح است,1,1.2086742080000477,None,0,69,284.97125654199954,284.9839645000002,286.9930543749997,286.9694930830001,286.9695020829995,0.0,False,286.9696602920003,201888,001,2024-07-01_11h45.26.659,5-25,2024.1.4,None,2024-07-01 11h45.32.596912 +0900,
Images/Speaker1.jpg,Images/Speaker2.jpg,Images/Speaker3.jpg,Images/Speaker4.jpg,Audio/Speaker1_En/P1-11-En.wav,Speaker1,گوینده ۱,,,,,,,,,0,69,69,10,286.9930543749997,,,,,,,,,,,,,,,,,,,,,,,,,,,,,,,,,,,,,,,,,,,,,286.96984799999973,286.9930543749997,286.9930543749997,286.9930543749997,286.9930543749997,287.0025496663334,286.9930543749997,286.9930543749997,288.1030195829999,Correct! صحیح است,1,1.101651832999778,None,0,70,288.10682370799987,288.11576983299983,,290.10869833299967,290.1087297080003,0.0,False,290.10939125000004,201888,001,2024-07-01_11h45.26.659,5-25,2024.1.4,None,2024-07-01 11h45.32.596912 +0900,
Images/Speaker1.jpg,Images/Speaker2.jpg,Images/Speaker3.jpg,Images/Speaker4.jpg,Audio/Speaker4_En/P4-20-En.wav,Speaker4,گوینده۴,,,,,,,,,0,70,70,79,290.13360241699957,,,,,,,,,,,,,,,,,,,,,,,,,,,,,,,,,,,,,,,,,,,,,290.11037512500025,290.13360241699957,290.13360241699957,290.13360241699957,290.13360241699957,290.1418453333331,290.13360241699957,290.13360241699957,291.31948762499997,Correct! صحیح است,4,1.1814981669995177,None,0,71,291.32371254200007,291.3346206670003,293.3422824999998,293.3184042080002,293.3184124999998,0.0,False,293.31857262499943,201888,001,2024-07-01_11h45.26.659,5-25,2024.1.4,None,2024-07-01 11h45.32.596912 +0900,
Images/Speaker1.jpg,Images/Speaker2.jpg,Images/Speaker3.jpg,Images/Speaker4.jpg,Audio/Speaker3_En/P3-7-En.wav,Speaker3,گوینده۳,,,,,,,,,0,71,71,46,293.3422824999998,,,,,,,,,,,,,,,,,,,,,,,,,,,,,,,,,,,,,,,,,,,,,293.3187468750002,293.3422824999998,293.3422824999998,293.3422824999998,293.3422824999998,293.35147629133326,293.3422824999998,293.3422824999998,294.88074012499965,Correct! صحیح است,3,1.533432791999985,None,0,72,294.88469262499984,294.8962339999998,,296.8903404169996,296.89037262500005,0.0,False,296.89129475000027,201888,001,2024-07-01_11h45.26.659,5-25,2024.1.4,None,2024-07-01 11h45.32.596912 +0900,
Images/Speaker1.jpg,Images/Speaker2.jpg,Images/Speaker3.jpg,Images/Speaker4.jpg,Audio/Speaker3_En/P3-14-En.wav,Speaker3,گوینده۳,,,,,,,,,0,72,72,53,296.91883108299953,,,,,,,,,,,,,,,,,,,,,,,,,,,,,,,,,,,,,,,,,,,,,296.89191895800013,296.91883108299953,296.91883108299953,296.91883108299953,296.91883108299953,296.92348129133325,296.91883108299953,296.91883108299953,298.8821618330003,Correct! صحیح است,3,1.9600917500001742,None,0,73,298.8873431669999,298.90056370799994,300.90786599999956,300.8848371670001,300.88484595799946,0.0,False,300.8850107500002,201888,001,2024-07-01_11h45.26.659,5-25,2024.1.4,None,2024-07-01 11h45.32.596912 +0900,
Images/Speaker1.jpg,Images/Speaker2.jpg,Images/Speaker3.jpg,Images/Speaker4.jpg,Audio/Speaker3_En/P3-18-En.wav,Speaker3,گوینده۳,,,,,,,,,0,73,73,57,300.90786599999956,,,,,,,,,,,,,,,,,,,,,,,,,,,,,,,,,,,,,,,,,,,,,300.88519279199954,300.90786599999956,300.90786599999956,300.90786599999956,300.90786599999956,300.90129204166647,300.90786599999956,300.90786599999956,302.0943385419996,Correct! صحیح است,3,1.1853842919999806,None,0,74,302.0984473749995,302.1098747919996,304.1154593330002,304.0933353749997,304.09334425,0.0,False,304.0935058750001,201888,001,2024-07-01_11h45.26.659,5-25,2024.1.4,None,2024-07-01 11h45.32.596912 +0900,
Images/Speaker1.jpg,Images/Speaker2.jpg,Images/Speaker3.jpg,Images/Speaker4.jpg,Audio/Speaker2_En/P2-7-En.wav,Speaker2,گوینده۲,,,,,,,,,0,74,74,26,304.1154593330002,,,,,,,,,,,,,,,,,,,,,,,,,,,,,,,,,,,,,,,,,,,,,304.0936692079995,304.1154593330002,304.1154593330002,304.1154593330002,304.1154593330002,304.1097931246661,304.1154593330002,304.1154593330002,305.0804902919999,Correct! صحیح است,2,0.9629147919995376,None,0,75,305.08437541700005,305.0952896250001,307.10377358299957,307.08051004200024,307.0805191669997,0.0,False,307.080683917,201888,001,2024-07-01_11h45.26.659,5-25,2024.1.4,None,2024-07-01 11h45.32.596912 +0900,
Images/Speaker1.jpg,Images/Speaker2.jpg,Images/Speaker3.jpg,Images/Speaker4.jpg,Audio/Speaker3_En/P3-15-En.wav,Speaker3,گوینده۳,,,,,,,,,0,75,75,54,307.10377358299957,,,,,,,,,,,,,,,,,,,,,,,,,,,,,,,,,,,,,,,,,,,,,307.0808502919999,307.10377358299957,307.10377358299957,307.10377358299957,307.10377358299957,307.1135990003336,307.10377358299957,307.10377358299957,308.50675466699977,Correct! صحیح است,3,1.4000177500001882,None,0,76,308.5106744579998,308.5218177079996,310.5296319580002,310.50498954199975,310.50499879200015,0.0,False,310.50519545799943,201888,001,2024-07-01_11h45.26.659,5-25,2024.1.4,None,2024-07-01 11h45.32.596912 +0900,
Images/Speaker1.jpg,Images/Speaker2.jpg,Images/Speaker3.jpg,Images/Speaker4.jpg,Audio/Speaker3_En/P3-6-En.wav,Speaker3,گوینده۳,,,,,,,,,0,76,76,45,310.5296319580002,,,,,,,,,,,,,,,,,,,,,,,,,,,,,,,,,,,,,,,,,,,,,310.5053848329999,310.5296319580002,310.5296319580002,310.5296319580002,310.5296319580002,310.5378662503331,310.5296319580002,310.5296319580002,312.24391233299957,Correct! صحیح است,3,1.7118500000005952,None,0,77,312.24820245799947,312.25971087499966,314.2712942500002,314.24813558299957,314.24814420799976,0.0,False,314.24830745799954,201888,001,2024-07-01_11h45.26.659,5-25,2024.1.4,None,2024-07-01 11h45.32.596912 +0900,
Images/Speaker1.jpg,Images/Speaker2.jpg,Images/Speaker3.jpg,Images/Speaker4.jpg,Audio/Speaker1_En/P1-20-En.wav,Speaker1,گوینده ۱,,,,,,,,,0,77,77,19,314.2712942500002,,,,,,,,,,,,,,,,,,,,,,,,,,,,,,,,,,,,,,,,,,,,,314.24847512499946,314.2712942500002,314.2712942500002,314.2712942500002,314.2712942500002,314.2811746663333,314.2712942500002,314.2712942500002,315.4777564999995,Correct! صحیح است,1,1.202615875000447,None,0,78,315.4819618749998,315.49277891699967,317.50649520800016,317.48133029200017,317.481351292,0.0,False,317.4817222499996,201888,001,2024-07-01_11h45.26.659,5-25,2024.1.4,None,2024-07-01 11h45.32.596912 +0900,
Images/Speaker1.jpg,Images/Speaker2.jpg,Images/Speaker3.jpg,Images/Speaker4.jpg,Audio/Speaker4_En/P4-1-En.wav,Speaker4,گوینده۴,,,,,,,,,0,78,78,60,317.50649520800016,,,,,,,,,,,,,,,,,,,,,,,,,,,,,,,,,,,,,,,,,,,,,317.4826732499996,317.50649520800016,317.50649520800016,317.50649520800016,317.50649520800016,317.51383191633295,317.50649520800016,317.50649520800016,319.09528729199974,Correct! صحیح است,4,1.5859855410008095,None,0,79,319.0994662080002,319.11140308299946,321.12210779199995,321.0988418750003,321.09885187500004,0.0,False,321.09901762499976,201888,001,2024-07-01_11h45.26.659,5-25,2024.1.4,None,2024-07-01 11h45.32.596912 +0900,
Images/Speaker1.jpg,Images/Speaker2.jpg,Images/Speaker3.jpg,Images/Speaker4.jpg,Audio/Speaker1_En/P1-13-En.wav,Speaker1,گوینده ۱,,,,,,,,,0,79,79,12,321.12210779199995,,,,,,,,,,,,,,,,,,,,,,,,,,,,,,,,,,,,,,,,,,,,,321.09918966700025,321.12210779199995,321.12210779199995,321.12210779199995,321.12210779199995,321.1319525833328,321.12210779199995,321.12210779199995,322.63883458300006,Correct! صحیح است,1,1.5065817499998957,None,0,80,322.6425924999994,322.65419349999956,324.66127829200013,324.6397346670001,324.6397423749995,0.0,False,324.63990683300017,201888,001,2024-07-01_11h45.26.659,5-25,2024.1.4,None,2024-07-01 11h45.32.596912 +0900,
Images/Speaker1.jpg,Images/Speaker2.jpg,Images/Speaker3.jpg,Images/Speaker4.jpg,Audio/Speaker4_En/P4-19-En.wav,Speaker4,گوینده۴,,,,,,,,,1,0,80,78,324.66127829200013,,,,,,,,,,,,,,,,,,,,,,,,,,,,,,,,,,,,,,,,,,,,,324.6400699169999,324.66127829200013,324.66127829200013,324.66127829200013,324.66127829200013,324.6561463336668,324.66127829200013,324.66127829200013,328.7522941669995,Correct! صحیح است,4,4.082232457999453,None,0,81,328.75251395800024,328.76027387500017,330.77043074999983,330.7467494169996,330.74677258300017,0.0,False,330.7470913750003,201888,001,2024-07-01_11h45.26.659,5-25,2024.1.4,None,2024-07-01 11h45.32.596912 +0900,
Images/Speaker1.jpg,Images/Speaker2.jpg,Images/Speaker3.jpg,Images/Speaker4.jpg,Audio/Speaker2_En/P2-1-En.wav,Speaker2,گوینده۲,,,,,,,,,1,1,81,20,330.77043074999983,,,,,,,,,,,,,,,,,,,,,,,,,,,,,,,,,,,,,,,,,,,,,330.7480151669997,330.77043074999983,330.77043074999983,330.77043074999983,330.77043074999983,330.77920658333323,330.77043074999983,330.77043074999983,336.5643918329997,Correct! صحیح است,2,5.7920874159999585,None,0,82,336.5646127079999,336.5753316250002,,338.5661032500002,338.56611079199956,0.0,False,338.5663077500003,201888,001,2024-07-01_11h45.26.659,5-25,2024.1.4,None,2024-07-01 11h45.32.596912 +0900,
Images/Speaker1.jpg,Images/Speaker2.jpg,Images/Speaker3.jpg,Images/Speaker4.jpg,Audio/Speaker2_En/P2-11-En.wav,Speaker2,گوینده۲,,,,,,,,,1,2,82,30,338.58718016700004,,,,,,,,,,,,,,,,,,,,,,,,,,,,,,,,,,,,,,,,,,,,,338.56647237499965,338.58718016700004,338.58718016700004,338.58718016700004,338.58718016700004,338.58273891666636,338.58718016700004,338.58718016700004,341.7654226249997,Correct! صحیح است,2,3.1716027499996926,None,0,83,341.77056812499995,341.7826905000002,343.788228417,343.7661816669997,343.76619070800007,0.0,False,343.7663555829995,201888,001,2024-07-01_11h45.26.659,5-25,2024.1.4,None,2024-07-01 11h45.32.596912 +0900,
Images/Speaker1.jpg,Images/Speaker2.jpg,Images/Speaker3.jpg,Images/Speaker4.jpg,Audio/Speaker2_En/P2-14-En.wav,Speaker2,گوینده۲,,,,,,,,,1,3,83,33,343.788228417,,,,,,,,,,,,,,,,,,,,,,,,,,,,,,,,,,,,,,,,,,,,,343.7665473750003,343.788228417,343.788228417,343.788228417,343.788228417,343.78258416666654,343.788228417,343.788228417,345.7721860829997,Correct! صحیح است,2,1.9733310000001438,None,0,84,345.77614687499954,345.78815674999987,347.79845662499974,347.77607870799966,347.7761137079997,0.0,False,347.7765272919996,201888,001,2024-07-01_11h45.26.659,5-25,2024.1.4,None,2024-07-01 11h45.32.596912 +0900,
Images/Speaker1.jpg,Images/Speaker2.jpg,Images/Speaker3.jpg,Images/Speaker4.jpg,Audio/Speaker3_En/P3-16-En.wav,Speaker3,گوینده۳,,,,,,,,,1,4,84,55,347.79845662499974,,,,,,,,,,,,,,,,,,,,,,,,,,,,,,,,,,,,,,,,,,,,,347.7773949579996,347.79845662499974,347.79845662499974,347.79845662499974,347.79845662499974,347.80831116633317,347.79845662499974,347.79845662499974,349.6975898749997,Correct! صحیح است,3,1.8944437090003703,None,0,85,349.7018590830003,349.7132811249994,351.72195420800017,351.6987025419994,351.69876716699946,0.0,False,351.6993296669998,201888,001,2024-07-01_11h45.26.659,5-25,2024.1.4,None,2024-07-01 11h45.32.596912 +0900,
Images/Speaker1.jpg,Images/Speaker2.jpg,Images/Speaker3.jpg,Images/Speaker4.jpg,Audio/Speaker4_En/P4-10-En.wav,Speaker4,گوینده۴,,,,,,,,,1,5,85,69,351.72195420800017,,,,,,,,,,,,,,,,,,,,,,,,,,,,,,,,,,,,,,,,,,,,,351.70010566699966,351.72195420800017,351.72195420800017,351.72195420800017,351.72195420800017,351.7308690003333,351.72195420800017,351.72195420800017,354.6535347500003,Correct! صحیح است,4,2.9295961660000103,None,0,86,354.6574840829999,354.66893741700005,356.67924779199984,356.6533218750001,356.65332924999984,0.0,False,356.65348370799984,201888,001,2024-07-01_11h45.26.659,5-25,2024.1.4,None,2024-07-01 11h45.32.596912 +0900,
Images/Speaker1.jpg,Images/Speaker2.jpg,Images/Speaker3.jpg,Images/Speaker4.jpg,Audio/Speaker4_En/P4-2-En.wav,Speaker4,گوینده۴,,,,,,,,,1,6,86,61,356.67924779199984,,,,,,,,,,,,,,,,,,,,,,,,,,,,,,,,,,,,,,,,,,,,,356.65366283299954,356.67924779199984,356.67924779199984,356.67924779199984,356.67924779199984,356.6864519163332,356.67924779199984,356.67924779199984,358.07134574999964,Correct! صحیح است,4,1.3905816660007986,None,0,87,358.07575691700004,358.08754212500025,360.09487416699994,360.0738552499997,360.0738645419997,0.0,False,360.07404329200017,201888,001,2024-07-01_11h45.26.659,5-25,2024.1.4,None,2024-07-01 11h45.32.596912 +0900,
Images/Speaker1.jpg,Images/Speaker2.jpg,Images/Speaker3.jpg,Images/Speaker4.jpg,Audio/Speaker4_En/P4-16-En.wav,Speaker4,گوینده۴,,,,,,,,,1,7,87,75,360.09487416699994,,,,,,,,,,,,,,,,,,,,,,,,,,,,,,,,,,,,,,,,,,,,,360.0742197919999,360.09487416699994,360.09487416699994,360.09487416699994,360.09487416699994,360.09029616666635,360.09487416699994,360.09487416699994,362.49215670800004,Correct! صحیح است,4,2.390376958000161,None,0,88,362.4962980829996,362.5079009579995,364.51394591699955,364.49251016699964,364.49251945800006,0.0,False,364.4927050420001,201888,001,2024-07-01_11h45.26.659,5-25,2024.1.4,None,2024-07-01 11h45.32.596912 +0900,
Images/Speaker1.jpg,Images/Speaker2.jpg,Images/Speaker3.jpg,Images/Speaker4.jpg,Audio/Speaker3_En/P3-9-En.wav,Speaker3,گوینده۳,,,,,,,,,1,8,88,48,364.51394591699955,,,,,,,,,,,,,,,,,,,,,,,,,,,,,,,,,,,,,,,,,,,,,364.4928840419998,364.51394591699955,364.51394591699955,364.51394591699955,364.51394591699955,364.50890358366655,364.51394591699955,364.51394591699955,366.534010417,Correct! صحیح است,3,2.01060970799972,None,0,89,366.5378341249998,366.54716691700014,368.55649825,368.53592133300026,368.5359302079996,0.0,False,368.5360949579999,201888,001,2024-07-01_11h45.26.659,5-25,2024.1.4,None,2024-07-01 11h45.32.596912 +0900,
Images/Speaker1.jpg,Images/Speaker2.jpg,Images/Speaker3.jpg,Images/Speaker4.jpg,Audio/Speaker2_En/P2-17-En.wav,Speaker2,گوینده۲,,,,,,,,,1,9,89,36,368.55649825,,,,,,,,,,,,,,,,,,,,,,,,,,,,,,,,,,,,,,,,,,,,,368.5362693750003,368.55649825,368.55649825,368.55649825,368.55649825,368.55237904166665,368.55649825,368.55649825,370.0816057920001,Correct! صحیح است,2,1.5174819579997347,None,0,90,370.0856547499998,370.0967530830003,,372.09038079199945,372.0904058750002,0.0,False,372.09119762499995,201888,001,2024-07-01_11h45.26.659,5-25,2024.1.4,None,2024-07-01 11h45.32.596912 +0900,
Images/Speaker1.jpg,Images/Speaker2.jpg,Images/Speaker3.jpg,Images/Speaker4.jpg,Audio/Speaker2_En/P2-20-En.wav,Speaker2,گوینده۲,,,,,,,,,1,10,90,39,372.11459195799944,,,,,,,,,,,,,,,,,,,,,,,,,,,,,,,,,,,,,,,,,,,,,372.0918084169998,372.11459195799944,372.11459195799944,372.11459195799944,372.11459195799944,372.1235347083334,372.11459195799944,372.11459195799944,373.79884562499956,Correct! صحیح است,2,1.6777855000000272,None,0,91,373.80412545800027,373.81662591700024,,375.8056578750002,375.8056686250002,0.0,False,375.80584649999946,201888,001,2024-07-01_11h45.26.659,5-25,2024.1.4,None,2024-07-01 11h45.32.596912 +0900,
Images/Speaker1.jpg,Images/Speaker2.jpg,Images/Speaker3.jpg,Images/Speaker4.jpg,Audio/Speaker2_En/P2-16-En.wav,Speaker2,گوینده۲,,,,,,,,,1,11,91,35,375.8271175,,,,,,,,,,,,,,,,,,,,,,,,,,,,,,,,,,,,,,,,,,,,,375.8060338329997,375.8271175,375.8271175,375.8271175,375.8271175,375.8222874166661,375.8271175,375.8271175,377.4154207920001,Correct! صحیح است,2,1.5754246669994245,None,0,92,377.42077037499985,377.4334524579999,379.44208179199995,379.417671958,379.4177167079997,0.0,False,379.4181412500002,201888,001,2024-07-01_11h45.26.659,5-25,2024.1.4,None,2024-07-01 11h45.32.596912 +0900,
Images/Speaker1.jpg,Images/Speaker2.jpg,Images/Speaker3.jpg,Images/Speaker4.jpg,Audio/Speaker1_En/P1-13-En.wav,Speaker1,گوینده ۱,,,,,,,,,1,12,92,12,379.44208179199995,,,,,,,,,,,,,,,,,,,,,,,,,,,,,,,,,,,,,,,,,,,,,379.4191474580002,379.44208179199995,379.44208179199995,379.44208179199995,379.44208179199995,379.4501380413335,379.44208179199995,379.44208179199995,380.93321987499985,Correct! صحیح است,1,1.487459542000579,None,0,93,380.9372718329996,380.9500694170001,,382.9430010830001,382.9430117080001,0.0,False,382.94325195799956,201888,001,2024-07-01_11h45.26.659,5-25,2024.1.4,None,2024-07-01 11h45.32.596912 +0900,
Images/Speaker1.jpg,Images/Speaker2.jpg,Images/Speaker3.jpg,Images/Speaker4.jpg,Audio/Speaker3_En/P3-19-En.wav,Speaker3,گوینده۳,,,,,,,,,1,13,93,58,382.9644567079995,,,,,,,,,,,,,,,,,,,,,,,,,,,,,,,,,,,,,,,,,,,,,382.9434457079997,382.9644567079995,382.9644567079995,382.9644567079995,382.9644567079995,382.9596379996667,382.9644567079995,382.9644567079995,384.65764608300015,Correct! صحیح است,3,1.6848815829998784,None,0,94,384.6619933330003,384.6716414579996,,386.6656189999994,386.6656310419994,0.0,False,386.6658379999999,201888,001,2024-07-01_11h45.26.659,5-25,2024.1.4,None,2024-07-01 11h45.32.596912 +0900,
Images/Speaker1.jpg,Images/Speaker2.jpg,Images/Speaker3.jpg,Images/Speaker4.jpg,Audio/Speaker1_En/P1-3-En.wav,Speaker1,گوینده ۱,,,,,,,,,1,14,94,2,386.6870008750002,,,,,,,,,,,,,,,,,,,,,,,,,,,,,,,,,,,,,,,,,,,,,386.66602049999983,386.6870008750002,386.6870008750002,386.6870008750002,386.6870008750002,386.68223041666647,386.6870008750002,386.6870008750002,388.09015850000014,Correct! صحیح است,1,1.3963415420003003,None,0,95,388.0945137919998,388.105983167,390.11284129199976,390.09071870800017,390.09072845799983,0.0,False,390.0909003329998,201888,001,2024-07-01_11h45.26.659,5-25,2024.1.4,None,2024-07-01 11h45.32.596912 +0900,
Images/Speaker1.jpg,Images/Speaker2.jpg,Images/Speaker3.jpg,Images/Speaker4.jpg,Audio/Speaker3_En/P3-1-En.wav,Speaker3,گوینده۳,,,,,,,,,1,15,95,40,390.11284129199976,,,,,,,,,,,,,,,,,,,,,,,,,,,,,,,,,,,,,,,,,,,,,390.09108966700023,390.11284129199976,390.11284129199976,390.11284129199976,390.11284129199976,390.10712424966664,390.11284129199976,390.11284129199976,391.6421422080002,Correct! صحیح است,3,1.5208895830000984,None,0,96,391.6464052499996,391.6557530829996,,393.6490797079996,393.64912558299966,0.0,False,393.6498639169995,201888,001,2024-07-01_11h45.26.659,5-25,2024.1.4,None,2024-07-01 11h45.32.596912 +0900,
Images/Speaker1.jpg,Images/Speaker2.jpg,Images/Speaker3.jpg,Images/Speaker4.jpg,Audio/Speaker3_En/P3-7-En.wav,Speaker3,گوینده۳,,,,,,,,,1,16,96,46,393.676577792,,,,,,,,,,,,,,,,,,,,,,,,,,,,,,,,,,,,,,,,,,,,,393.6506265420003,393.676577792,393.676577792,393.676577792,393.676577792,393.68220091633293,393.676577792,393.676577792,394.8941778749995,Correct! صحیح است,3,1.2163740420000977,None,0,97,394.89827625,394.9096949579998,396.9137686670001,396.8925963749998,396.8926052079996,0.0,False,396.8927665000001,201888,001,2024-07-01_11h45.26.659,5-25,2024.1.4,None,2024-07-01 11h45.32.596912 +0900,
Images/Speaker1.jpg,Images/Speaker2.jpg,Images/Speaker3.jpg,Images/Speaker4.jpg,Audio/Speaker4_En/P4-6-En.wav,Speaker4,گوینده۴,,,,,,,,,1,17,97,65,396.9137686670001,,,,,,,,,,,,,,,,,,,,,,,,,,,,,,,,,,,,,,,,,,,,,396.8929520829997,396.9137686670001,396.9137686670001,396.9137686670001,396.9137686670001,396.90906462466614,396.9137686670001,396.9137686670001,398.6606579999998,Correct! صحیح است,4,1.7442945409993627,None,0,98,398.66485124999963,398.6757991249997,,400.6651977920001,400.6652221249997,0.0,False,400.6661680420002,201888,001,2024-07-01_11h45.26.659,5-25,2024.1.4,None,2024-07-01 11h45.32.596912 +0900,
Images/Speaker1.jpg,Images/Speaker2.jpg,Images/Speaker3.jpg,Images/Speaker4.jpg,Audio/Speaker1_En/P1-15-En.wav,Speaker1,گوینده ۱,,,,,,,,,1,18,98,14,400.6916779579997,,,,,,,,,,,,,,,,,,,,,,,,,,,,,,,,,,,,,,,,,,,,,400.6668009169998,400.6916779579997,400.6916779579997,400.6916779579997,400.6916779579997,400.6983452913332,400.6916779579997,400.6916779579997,402.218009917,Correct! صحیح است,1,1.5125202909994186,None,0,99,402.22207983299995,402.234191042,,404.2255664579998,404.2255938749995,0.0,False,404.2263797079995,201888,001,2024-07-01_11h45.26.659,5-25,2024.1.4,None,2024-07-01 11h45.32.596912 +0900,
Images/Speaker1.jpg,Images/Speaker2.jpg,Images/Speaker3.jpg,Images/Speaker4.jpg,Audio/Speaker3_En/P3-12-En.wav,Speaker3,گوینده۳,,,,,,,,,1,19,99,51,404.2490537499998,,,,,,,,,,,,,,,,,,,,,,,,,,,,,,,,,,,,,,,,,,,,,404.2273528329997,404.2490537499998,404.2490537499998,404.2490537499998,404.2490537499998,404.2587183753335,404.2490537499998,404.2490537499998,405.7647239170001,Correct! صحیح است,3,1.510145040999305,None,0,100,405.76963137500024,405.78180837499986,407.7866349579999,407.7648234170001,407.76483199999984,0.0,False,407.76500787500026,201888,001,2024-07-01_11h45.26.659,5-25,2024.1.4,None,2024-07-01 11h45.32.596912 +0900,
Images/Speaker1.jpg,Images/Speaker2.jpg,Images/Speaker3.jpg,Images/Speaker4.jpg,Audio/Speaker1_En/P1-11-En.wav,Speaker1,گوینده ۱,,,,,,,,,1,20,100,10,407.7866349579999,,,,,,,,,,,,,,,,,,,,,,,,,,,,,,,,,,,,,,,,,,,,,407.76517395799965,407.7866349579999,407.7866349579999,407.7866349579999,407.7866349579999,407.7812435416665,407.7866349579999,407.7866349579999,409.0553808750001,Correct! صحیح است,1,1.2625929169998926,None,0,101,409.05927170799987,409.0709221669995,411.07570745799967,411.0540154579994,411.0540240829996,0.0,False,411.0541932919996,201888,001,2024-07-01_11h45.26.659,5-25,2024.1.4,None,2024-07-01 11h45.32.596912 +0900,
Images/Speaker1.jpg,Images/Speaker2.jpg,Images/Speaker3.jpg,Images/Speaker4.jpg,Audio/Speaker2_En/P2-18-En.wav,Speaker2,گوینده۲,,,,,,,,,1,21,101,37,411.07570745799967,,,,,,,,,,,,,,,,,,,,,,,,,,,,,,,,,,,,,,,,,,,,,411.05440412499956,411.07570745799967,411.07570745799967,411.07570745799967,411.07570745799967,411.0704512916666,411.07570745799967,411.07570745799967,412.55362816700017,Correct! صحیح است,2,1.4750381250005375,None,0,102,412.5584659169999,412.5707519580001,414.5766414999998,414.55495283300024,414.55496066700016,0.0,False,414.5551532919999,201888,001,2024-07-01_11h45.26.659,5-25,2024.1.4,None,2024-07-01 11h45.32.596912 +0900,
Images/Speaker1.jpg,Images/Speaker2.jpg,Images/Speaker3.jpg,Images/Speaker4.jpg,Audio/Speaker3_En/P3-17-En.wav,Speaker3,گوینده۳,,,,,,,,,1,22,102,56,414.5766414999998,,,,,,,,,,,,,,,,,,,,,,,,,,,,,,,,,,,,,,,,,,,,,414.55538516700017,414.5766414999998,414.5766414999998,414.5766414999998,414.5766414999998,414.5714055836663,414.5766414999998,414.5766414999998,416.2227091670002,Correct! صحیح است,3,1.6390363330001492,None,0,103,416.22680583300007,416.2379923749995,418.2421153329997,418.2210955419996,418.2211044169999,0.0,False,418.22129329200015,201888,001,2024-07-01_11h45.26.659,5-25,2024.1.4,None,2024-07-01 11h45.32.596912 +0900,
Images/Speaker1.jpg,Images/Speaker2.jpg,Images/Speaker3.jpg,Images/Speaker4.jpg,Audio/Speaker1_En/P1-4-En.wav,Speaker1,گوینده ۱,,,,,,,,,1,23,103,13,418.2421153329997,,,,,,,,,,,,,,,,,,,,,,,,,,,,,,,,,,,,,,,,,,,,,418.22145083299984,418.2421153329997,418.2421153329997,418.2421153329997,418.2421153329997,418.2375487916663,418.2421153329997,418.2421153329997,419.46949591700013,Correct! صحیح است,1,1.2251077910004824,None,0,104,419.4744104169995,419.4870889169997,421.49407987499944,421.4717394999998,421.4717483329996,0.0,False,421.47195033299977,201888,001,2024-07-01_11h45.26.659,5-25,2024.1.4,None,2024-07-01 11h45.32.596912 +0900,
Images/Speaker1.jpg,Images/Speaker2.jpg,Images/Speaker3.jpg,Images/Speaker4.jpg,Audio/Speaker4_En/P4-1-En.wav,Speaker4,گوینده۴,,,,,,,,,1,24,104,60,421.49407987499944,,,,,,,,,,,,,,,,,,,,,,,,,,,,,,,,,,,,,,,,,,,,,421.4721424170002,421.49407987499944,421.49407987499944,421.49407987499944,421.49407987499944,421.4881846246665,421.49407987499944,421.49407987499944,422.91025470800014,Correct! صحیح است,4,1.4141923750003116,None,0,105,422.9140310419998,422.92558974999974,,424.9194774580001,424.9195163329996,0.0,False,424.9207065419996,201888,001,2024-07-01_11h45.26.659,5-25,2024.1.4,None,2024-07-01 11h45.32.596912 +0900,
Images/Speaker1.jpg,Images/Speaker2.jpg,Images/Speaker3.jpg,Images/Speaker4.jpg,Audio/Speaker4_En/P4-17-En.wav,Speaker4,گوینده۴,,,,,,,,,1,25,105,76,424.94659304200013,,,,,,,,,,,,,,,,,,,,,,,,,,,,,,,,,,,,,,,,,,,,,424.9216770000003,424.94659304200013,424.94659304200013,424.94659304200013,424.94659304200013,424.9526470413334,424.94659304200013,424.94659304200013,426.536710333,Correct! صحیح است,4,1.5866636669998115,None,0,106,426.5406250830001,426.55150395799956,,428.5448342919999,428.54486720800014,0.0,False,428.54566270800024,201888,001,2024-07-01_11h45.26.659,5-25,2024.1.4,None,2024-07-01 11h45.32.596912 +0900,
Images/Speaker1.jpg,Images/Speaker2.jpg,Images/Speaker3.jpg,Images/Speaker4.jpg,Audio/Speaker1_En/P1-9-En.wav,Speaker1,گوینده ۱,,,,,,,,,1,26,106,8,428.56789649999973,,,,,,,,,,,,,,,,,,,,,,,,,,,,,,,,,,,,,,,,,,,,,428.5465833749995,428.56789649999973,428.56789649999973,428.56789649999973,428.56789649999973,428.56135216666667,428.56789649999973,428.56789649999973,430.1907711670001,Correct! صحیح است,1,1.6185193329993126,None,0,107,430.19573195799967,430.20857341699957,432.213993542,432.1923614999996,432.1923703329994,0.0,False,432.192527833,201888,001,2024-07-01_11h45.26.659,5-25,2024.1.4,None,2024-07-01 11h45.32.596912 +0900,
Images/Speaker1.jpg,Images/Speaker2.jpg,Images/Speaker3.jpg,Images/Speaker4.jpg,Audio/Speaker3_En/P3-10-En.wav,Speaker3,گوینده۳,,,,,,,,,1,27,107,49,432.213993542,,,,,,,,,,,,,,,,,,,,,,,,,,,,,,,,,,,,,,,,,,,,,432.1927353330002,432.213993542,432.213993542,432.213993542,432.213993542,432.2088144586662,432.213993542,432.213993542,433.5607835419996,Correct! صحیح است,3,1.3441847499998403,None,0,108,433.56474595799955,433.5756912500001,,435.56592658299996,435.56593758300005,0.0,False,435.5661546250003,201888,001,2024-07-01_11h45.26.659,5-25,2024.1.4,None,2024-07-01 11h45.32.596912 +0900,
Images/Speaker1.jpg,Images/Speaker2.jpg,Images/Speaker3.jpg,Images/Speaker4.jpg,Audio/Speaker4_En/P4-18-En.wav,Speaker4,گوینده۴,,,,,,,,,1,28,108,77,435.5871096669998,,,,,,,,,,,,,,,,,,,,,,,,,,,,,,,,,,,,,,,,,,,,,435.56635995800025,435.5871096669998,435.5871096669998,435.5871096669998,435.5871096669998,435.58255433366617,435.5871096669998,435.5871096669998,438.4521826250002,Correct! صحیح است,4,2.863170208000156,None,0,109,438.4524725829997,438.46422916699976,440.4761087500001,440.451467375,440.4515032499994,0.0,False,440.45193720799944,201888,001,2024-07-01_11h45.26.659,5-25,2024.1.4,None,2024-07-01 11h45.32.596912 +0900,
Images/Speaker1.jpg,Images/Speaker2.jpg,Images/Speaker3.jpg,Images/Speaker4.jpg,Audio/Speaker2_En/P2-10-En.wav,Speaker2,گوینده۲,,,,,,,,,1,29,109,29,440.4761087500001,,,,,,,,,,,,,,,,,,,,,,,,,,,,,,,,,,,,,,,,,,,,,440.4528447499997,440.4761087500001,440.4761087500001,440.4761087500001,440.4761087500001,440.4839621253327,440.4761087500001,440.4761087500001,441.86963258299966,Correct! صحیح است,2,1.390642375000425,None,0,110,441.8738107500003,441.8851207919997,443.88993304199994,443.8684357080001,443.86844287500026,0.0,False,443.86860304199945,201888,001,2024-07-01_11h45.26.659,5-25,2024.1.4,None,2024-07-01 11h45.32.596912 +0900,
Images/Speaker1.jpg,Images/Speaker2.jpg,Images/Speaker3.jpg,Images/Speaker4.jpg,Audio/Speaker1_En/P1-7-En.wav,Speaker1,گوینده ۱,,,,,,,,,1,30,110,6,443.88993304199994,,,,,,,,,,,,,,,,,,,,,,,,,,,,,,,,,,,,,,,,,,,,,443.8687626250003,443.88993304199994,443.88993304199994,443.88993304199994,443.88993304199994,443.8848497916663,443.88993304199994,443.88993304199994,445.0311414170001,Correct! صحیح است,1,1.1329856249994918,None,0,111,445.03512512499947,445.044234125,447.05678991700006,447.03380174999984,447.0338311249998,0.0,False,447.0342458750001,201888,001,2024-07-01_11h45.26.659,5-25,2024.1.4,None,2024-07-01 11h45.32.596912 +0900,
Images/Speaker1.jpg,Images/Speaker2.jpg,Images/Speaker3.jpg,Images/Speaker4.jpg,Audio/Speaker1_En/P1-10-En.wav,Speaker1,گوینده ۱,,,,,,,,,1,31,111,9,447.05678991700006,,,,,,,,,,,,,,,,,,,,,,,,,,,,,,,,,,,,,,,,,,,,,447.03500174999954,447.05678991700006,447.05678991700006,447.05678991700006,447.05678991700006,447.06600820833273,447.05678991700006,447.05678991700006,448.3910177079997,Correct! صحیح است,1,1.3287277919998814,None,0,112,448.3957460829997,448.40850491699985,450.4175504579998,450.3957379579997,450.3957464169998,0.0,False,450.39592404199993,201888,001,2024-07-01_11h45.26.659,5-25,2024.1.4,None,2024-07-01 11h45.32.596912 +0900,
Images/Speaker1.jpg,Images/Speaker2.jpg,Images/Speaker3.jpg,Images/Speaker4.jpg,Audio/Speaker1_En/P1-12-En.wav,Speaker1,گوینده ۱,,,,,,,,,1,32,112,11,450.4175504579998,,,,,,,,,,,,,,,,,,,,,,,,,,,,,,,,,,,,,,,,,,,,,450.3961199999994,450.4175504579998,450.4175504579998,450.4175504579998,450.4175504579998,450.4121154166662,450.4175504579998,450.4175504579998,451.72365058299965,Correct! صحیح است,1,1.2944431250007256,None,0,113,451.7279328329996,451.73891083299986,453.74439641699973,453.7229196669996,453.72292837500027,0.0,False,453.72310816699974,201888,001,2024-07-01_11h45.26.659,5-25,2024.1.4,None,2024-07-01 11h45.32.596912 +0900,
Images/Speaker1.jpg,Images/Speaker2.jpg,Images/Speaker3.jpg,Images/Speaker4.jpg,Audio/Speaker4_En/P4-13-En.wav,Speaker4,گوینده۴,,,,,,,,,1,33,113,72,453.74439641699973,,,,,,,,,,,,,,,,,,,,,,,,,,,,,,,,,,,,,,,,,,,,,453.7232739579995,453.74439641699973,453.74439641699973,453.74439641699973,453.74439641699973,453.73937833366676,453.74439641699973,453.74439641699973,455.70593499999995,Correct! صحیح است,4,1.9504530000003797,None,0,114,455.70988820799994,455.72136150000006,457.7270862079995,457.7065264169996,457.7065339999999,0.0,False,457.7066848329996,201888,001,2024-07-01_11h45.26.659,5-25,2024.1.4,None,2024-07-01 11h45.32.596912 +0900,
Images/Speaker1.jpg,Images/Speaker2.jpg,Images/Speaker3.jpg,Images/Speaker4.jpg,Audio/Speaker2_En/P2-7-En.wav,Speaker2,گوینده۲,,,,,,,,,1,34,114,26,457.7270862079995,,,,,,,,,,,,,,,,,,,,,,,,,,,,,,,,,,,,,,,,,,,,,457.7068951250003,457.7270862079995,457.7270862079995,457.7270862079995,457.7270862079995,457.7229800836669,457.7270862079995,457.7270862079995,459.32325491699976,Correct! صحیح است,2,1.5842678749995684,None,0,115,459.3273403329995,459.3384134580001,,461.3322091250002,461.3322657079998,0.0,False,461.3331654169997,201888,001,2024-07-01_11h45.26.659,5-25,2024.1.4,None,2024-07-01 11h45.32.596912 +0900,
Images/Speaker1.jpg,Images/Speaker2.jpg,Images/Speaker3.jpg,Images/Speaker4.jpg,Audio/Speaker2_En/P2-3-En.wav,Speaker2,گوینده۲,,,,,,,,,1,35,115,22,461.35528174999945,,,,,,,,,,,,,,,,,,,,,,,,,,,,,,,,,,,,,,,,,,,,,461.3339944999998,461.35528174999945,461.35528174999945,461.35528174999945,461.35528174999945,461.36537845833345,461.35528174999945,461.35528174999945,462.7747873749995,Correct! صحیح است,2,1.4134447500000533,None,0,116,462.77860545800013,462.7901332499996,,464.781524,464.7815315830003,0.0,False,464.7817170420003,201888,001,2024-07-01_11h45.26.659,5-25,2024.1.4,None,2024-07-01 11h45.32.596912 +0900,
Images/Speaker1.jpg,Images/Speaker2.jpg,Images/Speaker3.jpg,Images/Speaker4.jpg,Audio/Speaker1_En/P1-8-En.wav,Speaker1,گوینده ۱,,,,,,,,,1,36,116,7,464.80362333299945,,,,,,,,,,,,,,,,,,,,,,,,,,,,,,,,,,,,,,,,,,,,,464.7819002919996,464.80362333299945,464.80362333299945,464.80362333299945,464.80362333299945,464.79815708366664,464.80362333299945,464.80362333299945,466.0374443749997,Correct! صحیح است,1,1.2264420829997107,None,0,117,466.0418889579996,466.0508331250003,468.0635884579997,468.04125441699944,468.04128454199963,0.0,False,468.0416337500001,201888,001,2024-07-01_11h45.26.659,5-25,2024.1.4,None,2024-07-01 11h45.32.596912 +0900,
Images/Speaker1.jpg,Images/Speaker2.jpg,Images/Speaker3.jpg,Images/Speaker4.jpg,Audio/Speaker4_En/P4-20-En.wav,Speaker4,گوینده۴,,,,,,,,,1,37,117,79,468.0635884579997,,,,,,,,,,,,,,,,,,,,,,,,,,,,,,,,,,,,,,,,,,,,,468.0424241669998,468.0635884579997,468.0635884579997,468.0635884579997,468.0635884579997,468.0734926253331,468.0635884579997,468.0635884579997,469.8700805419994,Correct! صحیح است,4,1.805476749999798,None,0,118,469.87394533299994,469.8851526669996,471.8915510420002,471.8689492499998,471.86895708300017,0.0,False,471.8691408750001,201888,001,2024-07-01_11h45.26.659,5-25,2024.1.4,None,2024-07-01 11h45.32.596912 +0900,
Images/Speaker1.jpg,Images/Speaker2.jpg,Images/Speaker3.jpg,Images/Speaker4.jpg,Audio/Speaker3_En/P3-2-En.wav,Speaker3,گوینده۳,,,,,,,,,1,38,118,41,471.8915510420002,,,,,,,,,,,,,,,,,,,,,,,,,,,,,,,,,,,,,,,,,,,,,471.869327292,471.8915510420002,471.8915510420002,471.8915510420002,471.8915510420002,471.8853981666664,471.8915510420002,471.8915510420002,473.1188563750002,Correct! صحیح است,3,1.2191374999993059,None,0,119,473.122719125,473.1318544579999,,475.12295345799976,475.12299325000004,0.0,False,475.12382270800026,201888,001,2024-07-01_11h45.26.659,5-25,2024.1.4,None,2024-07-01 11h45.32.596912 +0900,
Images/Speaker1.jpg,Images/Speaker2.jpg,Images/Speaker3.jpg,Images/Speaker4.jpg,Audio/Speaker3_En/P3-4-En.wav,Speaker3,گوینده۳,,,,,,,,,1,39,119,43,475.1485408749995,,,,,,,,,,,,,,,,,,,,,,,,,,,,,,,,,,,,,,,,,,,,,475.1248261669998,475.1485408749995,475.1485408749995,475.1485408749995,475.1485408749995,475.1561077083329,475.1485408749995,475.1485408749995,476.3229894169999,Correct! صحیح است,3,1.1634975830002077,None,0,120,476.3280966249995,476.3408387919999,,478.3312558329999,478.33128470799966,0.0,False,478.33208741699946,201888,001,2024-07-01_11h45.26.659,5-25,2024.1.4,None,2024-07-01 11h45.32.596912 +0900,
Images/Speaker1.jpg,Images/Speaker2.jpg,Images/Speaker3.jpg,Images/Speaker4.jpg,Audio/Speaker1_En/P1-5-En.wav,Speaker1,گوینده ۱,,,,,,,,,1,40,120,4,478.3538358750002,,,,,,,,,,,,,,,,,,,,,,,,,,,,,,,,,,,,,,,,,,,,,478.3325968749996,478.3538358750002,478.3538358750002,478.3538358750002,478.3538358750002,478.3477769996664,478.3538358750002,478.3538358750002,479.5780568330001,Correct! صحیح است,1,1.216022042000077,None,0,121,479.5824549580002,479.5915227919995,,481.5833688749999,481.58337974999995,0.0,False,481.58358404199953,201888,001,2024-07-01_11h45.26.659,5-25,2024.1.4,None,2024-07-01 11h45.32.596912 +0900,
Images/Speaker1.jpg,Images/Speaker2.jpg,Images/Speaker3.jpg,Images/Speaker4.jpg,Audio/Speaker2_En/P2-8-En.wav,Speaker2,گوینده۲,,,,,,,,,1,41,121,27,481.60430991700014,,,,,,,,,,,,,,,,,,,,,,,,,,,,,,,,,,,,,,,,,,,,,481.5837619169997,481.60430991700014,481.60430991700014,481.60430991700014,481.60430991700014,481.59999087466645,481.60430991700014,481.60430991700014,482.7755304169996,Correct! صحیح است,2,1.1623072920001505,None,0,122,482.7796451670001,482.7911579169995,,484.78592791699975,484.7859534999998,0.0,False,484.7867065829996,201888,001,2024-07-01_11h45.26.659,5-25,2024.1.4,None,2024-07-01 11h45.32.596912 +0900,
Images/Speaker1.jpg,Images/Speaker2.jpg,Images/Speaker3.jpg,Images/Speaker4.jpg,Audio/Speaker1_En/P1-2-En.wav,Speaker1,گوینده ۱,,,,,,,,,1,42,122,1,484.8083135830002,,,,,,,,,,,,,,,,,,,,,,,,,,,,,,,,,,,,,,,,,,,,,484.78764133299956,484.8083135830002,484.8083135830002,484.8083135830002,484.8083135830002,484.80240741666626,484.8083135830002,484.8083135830002,485.59870349999983,Correct! صحیح است,1,0.7784473749998142,None,0,123,485.6024572079996,485.6134074169995,487.6231285829999,487.6012823330002,487.60130754199963,0.0,False,487.60185912499946,201888,001,2024-07-01_11h45.26.659,5-25,2024.1.4,None,2024-07-01 11h45.32.596912 +0900,
Images/Speaker1.jpg,Images/Speaker2.jpg,Images/Speaker3.jpg,Images/Speaker4.jpg,Audio/Speaker3_En/P3-5-En.wav,Speaker3,گوینده۳,,,,,,,,,1,43,123,44,487.6231285829999,,,,,,,,,,,,,,,,,,,,,,,,,,,,,,,,,,,,,,,,,,,,,487.60271074999946,487.6231285829999,487.6231285829999,487.6231285829999,487.6231285829999,487.6336597913328,487.6231285829999,487.6231285829999,488.9453124169995,Correct! صحیح است,3,1.3197347499999523,None,0,124,488.94964654199975,488.960651333,490.97164345799956,490.9488094170001,490.9488212079996,0.0,False,490.9490152919998,201888,001,2024-07-01_11h45.26.659,5-25,2024.1.4,None,2024-07-01 11h45.32.596912 +0900,
Images/Speaker1.jpg,Images/Speaker2.jpg,Images/Speaker3.jpg,Images/Speaker4.jpg,Audio/Speaker4_En/P4-14-En.wav,Speaker4,گوینده۴,,,,,,,,,1,44,124,73,490.97164345799956,,,,,,,,,,,,,,,,,,,,,,,,,,,,,,,,,,,,,,,,,,,,,490.94918795800004,490.97164345799956,490.97164345799956,490.97164345799956,490.97164345799956,490.98190404133356,490.97164345799956,490.97164345799956,492.3406012079995,Correct! صحیح است,4,1.3634318750000602,None,0,125,492.3443924579997,492.3571888329998,494.3647372919995,494.3423162500003,494.34232537499975,0.0,False,494.3425093329997,201888,001,2024-07-01_11h45.26.659,5-25,2024.1.4,None,2024-07-01 11h45.32.596912 +0900,
Images/Speaker1.jpg,Images/Speaker2.jpg,Images/Speaker3.jpg,Images/Speaker4.jpg,Audio/Speaker4_En/P4-15-En.wav,Speaker4,گوینده۴,,,,,,,,,1,45,125,74,494.3647372919995,,,,,,,,,,,,,,,,,,,,,,,,,,,,,,,,,,,,,,,,,,,,,494.3426751249999,494.3647372919995,494.3647372919995,494.3647372919995,494.3647372919995,494.3587597086664,494.3647372919995,494.3647372919995,495.6610824999998,Correct! صحیح است,4,1.2865801250000004,None,0,126,495.6650084169996,495.67365954199977,497.6815440419996,497.658109125,497.6581338750002,0.0,False,497.6584727919999,201888,001,2024-07-01_11h45.26.659,5-25,2024.1.4,None,2024-07-01 11h45.32.596912 +0900,
Images/Speaker1.jpg,Images/Speaker2.jpg,Images/Speaker3.jpg,Images/Speaker4.jpg,Audio/Speaker1_En/P1-20-En.wav,Speaker1,گوینده ۱,,,,,,,,,1,46,126,19,497.6815440419996,,,,,,,,,,,,,,,,,,,,,,,,,,,,,,,,,,,,,,,,,,,,,497.6594287079997,497.6815440419996,497.6815440419996,497.6815440419996,497.6815440419996,497.69049075033354,497.6815440419996,497.6815440419996,498.9368830000003,Correct! صحیح است,1,1.2475844159998815,None,0,127,498.9408880000001,498.952640042,500.9601216250003,500.9378084580003,500.93781729199964,0.0,False,500.93800866699985,201888,001,2024-07-01_11h45.26.659,5-25,2024.1.4,None,2024-07-01 11h45.32.596912 +0900,
Images/Speaker1.jpg,Images/Speaker2.jpg,Images/Speaker3.jpg,Images/Speaker4.jpg,Audio/Speaker3_En/P3-13-En.wav,Speaker3,گوینده۳,,,,,,,,,1,47,127,52,500.9601216250003,,,,,,,,,,,,,,,,,,,,,,,,,,,,,,,,,,,,,,,,,,,,,500.9381909579997,500.9601216250003,500.9601216250003,500.9601216250003,500.9601216250003,500.95423874966696,500.9601216250003,500.9601216250003,502.30326312499983,Correct! صحیح است,3,1.3404053750000458,None,0,128,502.30721766700026,502.3184344579995,,504.30728654199993,504.3072959579995,0.0,False,504.30754504200013,201888,001,2024-07-01_11h45.26.659,5-25,2024.1.4,None,2024-07-01 11h45.32.596912 +0900,
Images/Speaker1.jpg,Images/Speaker2.jpg,Images/Speaker3.jpg,Images/Speaker4.jpg,Audio/Speaker4_En/P4-8-En.wav,Speaker4,گوینده۴,,,,,,,,,1,48,128,67,504.3286925829998,,,,,,,,,,,,,,,,,,,,,,,,,,,,,,,,,,,,,,,,,,,,,504.3077509579998,504.3286925829998,504.3286925829998,504.3286925829998,504.3286925829998,504.3239142916666,504.3286925829998,504.3286925829998,505.7090913330003,Correct! صحیح است,4,1.3760552499998084,None,0,129,505.71422724999957,505.72697020800024,,507.7234964170002,507.72352783299993,0.0,False,507.72439470799964,201888,001,2024-07-01_11h45.26.659,5-25,2024.1.4,None,2024-07-01 11h45.32.596912 +0900,
Images/Speaker1.jpg,Images/Speaker2.jpg,Images/Speaker3.jpg,Images/Speaker4.jpg,Audio/Speaker1_En/P1-4-En.wav,Speaker1,گوینده ۱,,,,,,,,,1,49,129,3,507.74926066700027,,,,,,,,,,,,,,,,,,,,,,,,,,,,,,,,,,,,,,,,,,,,,507.72499833300026,507.74926066700027,507.74926066700027,507.74926066700027,507.74926066700027,507.7566493333329,507.74926066700027,507.74926066700027,508.7877584580001,Correct! صحیح است,1,1.0373138329996436,None,0,130,508.7919973329999,508.80349637499967,510.81533899999977,510.79295116699996,510.79297979199964,0.0,False,510.793479125,201888,001,2024-07-01_11h45.26.659,5-25,2024.1.4,None,2024-07-01 11h45.32.596912 +0900,
Images/Speaker1.jpg,Images/Speaker2.jpg,Images/Speaker3.jpg,Images/Speaker4.jpg,Audio/Speaker2_En/P2-5-En.wav,Speaker2,گوینده۲,,,,,,,,,1,50,130,24,510.81533899999977,,,,,,,,,,,,,,,,,,,,,,,,,,,,,,,,,,,,,,,,,,,,,510.7938507079998,510.81533899999977,510.81533899999977,510.81533899999977,510.81533899999977,510.82523725033343,510.81533899999977,510.81533899999977,512.4059381249999,Correct! صحیح است,2,1.5875088749999122,None,0,131,512.4100021670001,512.4213897499994,514.4328115420003,514.4096638749998,514.4097074579995,0.0,False,514.4101581249997,201888,001,2024-07-01_11h45.26.659,5-25,2024.1.4,None,2024-07-01 11h45.32.596912 +0900,
Images/Speaker1.jpg,Images/Speaker2.jpg,Images/Speaker3.jpg,Images/Speaker4.jpg,Audio/Speaker2_En/P2-19-En.wav,Speaker2,گوینده۲,,,,,,,,,1,51,131,38,514.4328115420003,,,,,,,,,,,,,,,,,,,,,,,,,,,,,,,,,,,,,,,,,,,,,514.4107701249995,514.4328115420003,514.4328115420003,514.4328115420003,514.4328115420003,514.4418140003331,514.4328115420003,514.4328115420003,515.8409797080003,Correct! صحیح است,2,1.4013412499998594,None,0,132,515.8454329169999,515.8570707919998,,517.8502238749998,517.8502358329997,0.0,False,517.8504601670002,201888,001,2024-07-01_11h45.26.659,5-25,2024.1.4,None,2024-07-01 11h45.32.596912 +0900,
Images/Speaker1.jpg,Images/Speaker2.jpg,Images/Speaker3.jpg,Images/Speaker4.jpg,Audio/Speaker3_En/P3-11-En.wav,Speaker3,گوینده۳,,,,,,,,,1,52,132,50,517.8725225420003,,,,,,,,,,,,,,,,,,,,,,,,,,,,,,,,,,,,,,,,,,,,,517.8506332079996,517.8725225420003,517.8725225420003,517.8725225420003,517.8725225420003,517.8668555416664,517.8725225420003,517.8725225420003,519.3645579169997,Correct! صحیح است,3,1.4888967919996503,None,0,133,519.368526708,519.3796082919998,,521.3727573750002,521.372764875,0.0,False,521.37293675,201888,001,2024-07-01_11h45.26.659,5-25,2024.1.4,None,2024-07-01 11h45.32.596912 +0900,
Images/Speaker1.jpg,Images/Speaker2.jpg,Images/Speaker3.jpg,Images/Speaker4.jpg,Audio/Speaker3_En/P3-3-En.wav,Speaker3,گوینده۳,,,,,,,,,1,53,133,42,521.3937527079997,,,,,,,,,,,,,,,,,,,,,,,,,,,,,,,,,,,,,,,,,,,,,521.3731147919998,521.3937527079997,521.3937527079997,521.3937527079997,521.3937527079997,521.3893924166662,521.3937527079997,521.3937527079997,522.8311815420002,Correct! صحیح است,3,1.4250142079999932,None,0,134,522.835476708,522.8450743329995,524.8616986669995,524.8355886250001,524.8356469579994,0.0,False,524.8362149579998,201888,001,2024-07-01_11h45.26.659,5-25,2024.1.4,None,2024-07-01 11h45.32.596912 +0900,
Images/Speaker1.jpg,Images/Speaker2.jpg,Images/Speaker3.jpg,Images/Speaker4.jpg,Audio/Speaker3_En/P3-15-En.wav,Speaker3,گوینده۳,,,,,,,,,1,54,134,54,524.8616986669995,,,,,,,,,,,,,,,,,,,,,,,,,,,,,,,,,,,,,,,,,,,,,524.8371363329998,524.8616986669995,524.8616986669995,524.8616986669995,524.8616986669995,524.8677381253333,524.8616986669995,524.8616986669995,526.3498159579995,Correct! صحیح است,3,1.474461999999221,None,0,135,526.3539204580002,526.3653318750003,528.3705853749998,528.3496842919994,528.3496928750001,0.0,False,528.3498556249997,201888,001,2024-07-01_11h45.26.659,5-25,2024.1.4,None,2024-07-01 11h45.32.596912 +0900,
Images/Speaker1.jpg,Images/Speaker2.jpg,Images/Speaker3.jpg,Images/Speaker4.jpg,Audio/Speaker2_En/P2-12-En.wav,Speaker2,گوینده۲,,,,,,,,,1,55,135,31,528.3705853749998,,,,,,,,,,,,,,,,,,,,,,,,,,,,,,,,,,,,,,,,,,,,,528.3500287079996,528.3705853749998,528.3705853749998,528.3705853749998,528.3705853749998,528.366086166667,528.3705853749998,528.3705853749998,529.8864581669995,Correct! صحیح است,2,1.5144037500003833,None,0,136,529.8907739169999,529.9019987499996,,531.89129125,531.8913537079998,0.0,False,531.8920917079995,201888,001,2024-07-01_11h45.26.659,5-25,2024.1.4,None,2024-07-01 11h45.32.596912 +0900,
Images/Speaker1.jpg,Images/Speaker2.jpg,Images/Speaker3.jpg,Images/Speaker4.jpg,Audio/Speaker1_En/P1-19-En.wav,Speaker1,گوینده ۱,,,,,,,,,1,56,136,18,531.9161547499998,,,,,,,,,,,,,,,,,,,,,,,,,,,,,,,,,,,,,,,,,,,,,531.8930267079995,531.9161547499998,531.9161547499998,531.9161547499998,531.9161547499998,531.9244574163336,531.9161547499998,531.9161547499998,533.2220518329996,Correct! صحیح است,1,1.3018143749995943,None,0,137,533.2257762079998,533.2372689579997,535.2430032920001,535.2213835829998,535.2213927499997,0.0,False,535.2215878329998,201888,001,2024-07-01_11h45.26.659,5-25,2024.1.4,None,2024-07-01 11h45.32.596912 +0900,
Images/Speaker1.jpg,Images/Speaker2.jpg,Images/Speaker3.jpg,Images/Speaker4.jpg,Audio/Speaker2_En/P2-13-En.wav,Speaker2,گوینده۲,,,,,,,,,1,57,137,32,535.2430032920001,,,,,,,,,,,,,,,,,,,,,,,,,,,,,,,,,,,,,,,,,,,,,535.2217799580003,535.2430032920001,535.2430032920001,535.2430032920001,535.2430032920001,535.2377652496664,535.2430032920001,535.2430032920001,537.0200718750002,Correct! صحیح است,2,1.7692156249995605,None,0,138,537.0239554999998,537.0347328749995,539.0444822079999,539.0241054580001,539.024113042,0.0,False,539.0242707919997,201888,001,2024-07-01_11h45.26.659,5-25,2024.1.4,None,2024-07-01 11h45.32.596912 +0900,
Images/Speaker1.jpg,Images/Speaker2.jpg,Images/Speaker3.jpg,Images/Speaker4.jpg,Audio/Speaker4_En/P4-9-En.wav,Speaker4,گوینده۴,,,,,,,,,1,58,138,68,539.0444822079999,,,,,,,,,,,,,,,,,,,,,,,,,,,,,,,,,,,,,,,,,,,,,539.0244530419995,539.0444822079999,539.0444822079999,539.0444822079999,539.0444822079999,539.0405505416668,539.0444822079999,539.0444822079999,541.4333261669999,Correct! صحیح است,4,2.37815533399953,None,0,139,541.4370957499996,541.4462976670002,543.4591410419998,543.4343528749996,543.4343818329999,0.0,False,543.4348755829997,201888,001,2024-07-01_11h45.26.659,5-25,2024.1.4,None,2024-07-01 11h45.32.596912 +0900,
Images/Speaker1.jpg,Images/Speaker2.jpg,Images/Speaker3.jpg,Images/Speaker4.jpg,Audio/Speaker3_En/P3-20-En.wav,Speaker3,گوینده۳,,,,,,,,,1,59,139,59,543.4591410419998,,,,,,,,,,,,,,,,,,,,,,,,,,,,,,,,,,,,,,,,,,,,,543.4358174170002,543.4591410419998,543.4591410419998,543.4591410419998,543.4591410419998,543.4666312083332,543.4591410419998,543.4591410419998,545.1784803749997,Correct! صحیح است,3,1.7097254169993903,None,0,140,545.1824570829995,545.1939359170001,547.200122708,547.1791496249998,547.1791572080001,0.0,False,547.1793396249996,201888,001,2024-07-01_11h45.26.659,5-25,2024.1.4,None,2024-07-01 11h45.32.596912 +0900,
Images/Speaker1.jpg,Images/Speaker2.jpg,Images/Speaker3.jpg,Images/Speaker4.jpg,Audio/Speaker4_En/P4-12-En.wav,Speaker4,گوینده۴,,,,,,,,,1,60,140,71,547.200122708,,,,,,,,,,,,,,,,,,,,,,,,,,,,,,,,,,,,,,,,,,,,,547.1795156669996,547.200122708,547.200122708,547.200122708,547.200122708,547.1955733746665,547.200122708,547.200122708,549.1373547499998,Correct! صحیح است,4,1.9352557500005787,None,0,141,549.1411950419997,549.1516167919999,551.1595789169996,551.1377632080003,551.137770583,0.0,False,551.1379501669999,201888,001,2024-07-01_11h45.26.659,5-25,2024.1.4,None,2024-07-01 11h45.32.596912 +0900,
Images/Speaker1.jpg,Images/Speaker2.jpg,Images/Speaker3.jpg,Images/Speaker4.jpg,Audio/Speaker2_En/P2-6-En.wav,Speaker2,گوینده۲,,,,,,,,,1,61,141,25,551.1595789169996,,,,,,,,,,,,,,,,,,,,,,,,,,,,,,,,,,,,,,,,,,,,,551.1381549999996,551.1595789169996,551.1595789169996,551.1595789169996,551.1595789169996,551.1541407496663,551.1595789169996,551.1595789169996,552.3924242920002,Correct! صحیح است,2,1.2276469170001292,None,0,142,552.396230458,552.407717,554.4184315419998,554.3961760829998,554.3961846669999,0.0,False,554.396392875,201888,001,2024-07-01_11h45.26.659,5-25,2024.1.4,None,2024-07-01 11h45.32.596912 +0900,
Images/Speaker1.jpg,Images/Speaker2.jpg,Images/Speaker3.jpg,Images/Speaker4.jpg,Audio/Speaker2_En/P2-2-En.wav,Speaker2,گوینده۲,,,,,,,,,1,62,142,21,554.4184315419998,,,,,,,,,,,,,,,,,,,,,,,,,,,,,,,,,,,,,,,,,,,,,554.3965982079999,554.4184315419998,554.4184315419998,554.4184315419998,554.4184315419998,554.4125077916663,554.4184315419998,554.4184315419998,555.646317875,Correct! صحیح است,2,1.2163558749998629,None,0,143,555.6502615419995,555.6589800000002,557.6672603329998,557.6431902499999,557.6432251249998,0.0,False,557.6436529169996,201888,001,2024-07-01_11h45.26.659,5-25,2024.1.4,None,2024-07-01 11h45.32.596912 +0900,
Images/Speaker1.jpg,Images/Speaker2.jpg,Images/Speaker3.jpg,Images/Speaker4.jpg,Audio/Speaker3_En/P3-6-En.wav,Speaker3,گوینده۳,,,,,,,,,1,63,143,45,557.6672603329998,,,,,,,,,,,,,,,,,,,,,,,,,,,,,,,,,,,,,,,,,,,,,557.6446324999997,557.6672603329998,557.6672603329998,557.6672603329998,557.6672603329998,557.6755335833327,557.6672603329998,557.6672603329998,559.3310669169996,Correct! صحیح است,3,1.6577092499992432,None,0,144,559.3349975419997,559.3465234169998,561.3527126669997,561.3313639580001,561.3313727919995,0.0,False,561.3315414999997,201888,001,2024-07-01_11h45.26.659,5-25,2024.1.4,None,2024-07-01 11h45.32.596912 +0900,
Images/Speaker1.jpg,Images/Speaker2.jpg,Images/Speaker3.jpg,Images/Speaker4.jpg,Audio/Speaker3_En/P3-8-En.wav,Speaker3,گوینده۳,,,,,,,,,1,64,144,47,561.3527126669997,,,,,,,,,,,,,,,,,,,,,,,,,,,,,,,,,,,,,,,,,,,,,561.33173575,561.3527126669997,561.3527126669997,561.3527126669997,561.3527126669997,561.3477317496665,561.3527126669997,561.3527126669997,562.8700194579997,Correct! صحیح است,3,1.5161816249992626,None,0,145,562.8740573750001,562.8854954999997,564.890263542,564.8685204169997,564.868529458,0.0,False,564.8687003329997,201888,001,2024-07-01_11h45.26.659,5-25,2024.1.4,None,2024-07-01 11h45.32.596912 +0900,
Images/Speaker1.jpg,Images/Speaker2.jpg,Images/Speaker3.jpg,Images/Speaker4.jpg,Audio/Speaker1_En/P1-1-En.wav,Speaker1,گوینده ۱,,,,,,,,,1,65,145,0,564.890263542,,,,,,,,,,,,,,,,,,,,,,,,,,,,,,,,,,,,,,,,,,,,,564.8688712499998,564.890263542,564.890263542,564.890263542,564.890263542,564.8849102496663,564.890263542,564.890263542,566.1540708749999,Correct! صحیح است,1,1.25709254100002,None,0,146,566.1580079999994,566.1695864169997,568.1823467919994,568.1574233749998,568.1574571669998,0.0,False,568.1578435000001,201888,001,2024-07-01_11h45.26.659,5-25,2024.1.4,None,2024-07-01 11h45.32.596912 +0900,
Images/Speaker1.jpg,Images/Speaker2.jpg,Images/Speaker3.jpg,Images/Speaker4.jpg,Audio/Speaker3_En/P3-18-En.wav,Speaker3,گوینده۳,,,,,,,,,1,66,146,57,568.1823467919994,,,,,,,,,,,,,,,,,,,,,,,,,,,,,,,,,,,,,,,,,,,,,568.1584609169995,568.1823467919994,568.1823467919994,568.1823467919994,568.1823467919994,568.1897516253334,568.1823467919994,568.1823467919994,569.7120094169995,Correct! صحیح است,3,1.526895500000137,None,0,147,569.7159647919998,569.7272147920003,571.7399186249995,571.7161082080002,571.716140167,0.0,False,571.7164822919995,201888,001,2024-07-01_11h45.26.659,5-25,2024.1.4,None,2024-07-01 11h45.32.596912 +0900,
Images/Speaker1.jpg,Images/Speaker2.jpg,Images/Speaker3.jpg,Images/Speaker4.jpg,Audio/Speaker4_En/P4-7-En.wav,Speaker4,گوینده۴,,,,,,,,,1,67,147,66,571.7399186249995,,,,,,,,,,,,,,,,,,,,,,,,,,,,,,,,,,,,,,,,,,,,,571.7170254579996,571.7399186249995,571.7399186249995,571.7399186249995,571.7399186249995,571.7484371663336,571.7399186249995,571.7399186249995,573.9437393329999,Correct! صحیح است,4,2.188644416999523,None,0,148,573.9489799579997,573.9626563749998,,575.9553539999997,575.955361667,0.0,False,575.9555908329994,201888,001,2024-07-01_11h45.26.659,5-25,2024.1.4,None,2024-07-01 11h45.32.596912 +0900,
Images/Speaker1.jpg,Images/Speaker2.jpg,Images/Speaker3.jpg,Images/Speaker4.jpg,Audio/Speaker4_En/P4-3-En.wav,Speaker4,گوینده۴,,,,,,,,,1,68,148,62,575.9772560000001,,,,,,,,,,,,,,,,,,,,,,,,,,,,,,,,,,,,,,,,,,,,,575.9557806249995,575.9772560000001,575.9772560000001,575.9772560000001,575.9772560000001,575.9719830836668,575.9772560000001,575.9772560000001,577.6637371249999,Correct! صحیح است,4,1.682299791999867,None,0,149,577.6682855829995,577.680919292,579.6907960419994,579.6672349579994,579.667270125,0.0,False,579.6676722920001,201888,001,2024-07-01_11h45.26.659,5-25,2024.1.4,None,2024-07-01 11h45.32.596912 +0900,
Images/Speaker1.jpg,Images/Speaker2.jpg,Images/Speaker3.jpg,Images/Speaker4.jpg,Audio/Speaker4_En/P4-5-En.wav,Speaker4,گوینده۴,,,,,,,,,1,69,149,64,579.6907960419994,,,,,,,,,,,,,,,,,,,,,,,,,,,,,,,,,,,,,,,,,,,,,579.6687510000002,579.6907960419994,579.6907960419994,579.6907960419994,579.6907960419994,579.6993880413333,579.6907960419994,579.6907960419994,581.1065040419999,Correct! صحیح است,4,1.412865208999392,None,0,150,581.1107381249994,581.1220606669995,583.127297,583.1054462920001,583.1054549169994,0.0,False,583.1056480830002,201888,001,2024-07-01_11h45.26.659,5-25,2024.1.4,None,2024-07-01 11h45.32.596912 +0900,
Images/Speaker1.jpg,Images/Speaker2.jpg,Images/Speaker3.jpg,Images/Speaker4.jpg,Audio/Speaker1_En/P1-6-En.wav,Speaker1,گوینده ۱,,,,,,,,,1,70,150,5,583.127297,,,,,,,,,,,,,,,,,,,,,,,,,,,,,,,,,,,,,,,,,,,,,583.1058693750001,583.127297,583.127297,583.127297,583.127297,583.1218922916662,583.127297,583.127297,584.7452092920003,Correct! صحیح است,1,1.6151660410005206,None,0,151,584.7494501669998,584.7608826249998,586.7659098329996,586.7440080420001,586.744015708,0.0,False,586.7441802920002,201888,001,2024-07-01_11h45.26.659,5-25,2024.1.4,None,2024-07-01 11h45.32.596912 +0900,
Images/Speaker1.jpg,Images/Speaker2.jpg,Images/Speaker3.jpg,Images/Speaker4.jpg,Audio/Speaker2_En/P2-9-En.wav,Speaker2,گوینده۲,,,,,,,,,1,71,151,28,586.7659098329996,,,,,,,,,,,,,,,,,,,,,,,,,,,,,,,,,,,,,,,,,,,,,586.744391792,586.7659098329996,586.7659098329996,586.7659098329996,586.7659098329996,586.7603430836664,586.7659098329996,586.7659098329996,587.8974632079999,Correct! صحیح است,2,1.1204744999995455,None,0,152,587.9017128329997,587.9124819170002,589.919790125,589.8982610829999,589.8982699170001,0.0,False,589.8984592079996,201888,001,2024-07-01_11h45.26.659,5-25,2024.1.4,None,2024-07-01 11h45.32.596912 +0900,
Images/Speaker1.jpg,Images/Speaker2.jpg,Images/Speaker3.jpg,Images/Speaker4.jpg,Audio/Speaker2_En/P2-4-En.wav,Speaker2,گوینده۲,,,,,,,,,1,72,152,23,589.919790125,,,,,,,,,,,,,,,,,,,,,,,,,,,,,,,,,,,,,,,,,,,,,589.8986380420001,589.919790125,589.919790125,589.919790125,589.919790125,589.9146614166668,589.919790125,589.919790125,591.7206659579997,Incorrect! The correct answer is Speaker2. نادرست! پاسخ صحیح گوینده۲ است,3,1.7954485000000204,None,0,153,591.7249382079999,591.7379965,593.749805083,593.7255600419994,593.7255829169999,0.0,False,593.7261006250001,201888,001,2024-07-01_11h45.26.659,5-25,2024.1.4,None,2024-07-01 11h45.32.596912 +0900,
Images/Speaker1.jpg,Images/Speaker2.jpg,Images/Speaker3.jpg,Images/Speaker4.jpg,Audio/Speaker3_En/P3-14-En.wav,Speaker3,گوینده۳,,,,,,,,,1,73,153,53,593.749805083,,,,,,,,,,,,,,,,,,,,,,,,,,,,,,,,,,,,,,,,,,,,,593.7270877499996,593.749805083,593.749805083,593.749805083,593.749805083,593.7578870003331,593.749805083,593.749805083,595.3726342499995,Correct! صحیح است,3,1.6122733749998588,None,0,154,595.3767138329995,595.3900646249995,597.3968447919997,597.3754349999999,597.3754435419996,0.0,False,597.3756284169995,201888,001,2024-07-01_11h45.26.659,5-25,2024.1.4,None,2024-07-01 11h45.32.596912 +0900,
,,,,,,,,,,,,,,,,,,,597.3968447919997,,,,,,,,,,,,,,,,,,,,,,,,,,,,,,,,,,,,,,,,,,,,,597.3758118329997,597.3968447919997,597.3968447919997,597.3968447919997,597.3968447919997,597.3918589166663,597.3968447919997,597.3968447919997,,,,,,,,,,,,,,,,,,,,,,,
