SpeakerImage1,SpeakerImage2,SpeakerImage3,SpeakerImage4,TrainingSound,EnglishCorrectAnswer,PersianCorrectAnswer,repeated_TrainingLoopGroup1.thisRepN,repeated_TrainingLoopGroup1.thisTrialN,repeated_TrainingLoopGroup1.thisN,repeated_TrainingLoopGroup1.thisIndex,TrainingLoopGroup1.thisRepN,TrainingLoopGroup1.thisTrialN,TrainingLoopGroup1.thisN,TrainingLoopGroup1.thisIndex,thisRow.t,notes,trial.started,trial.stopped,GroupSelection.started,GroupInstructions.started,key_resp.started,GroupSelection.stopped,key_resp.keys,Introduction.started,text_2.started,image.started,sound_7.started,text_4.started,text_2.stopped,sound_8.started,image.stopped,text_4.stopped,image_7.started,sound_9.started,text_5.started,sound_10.started,image_7.stopped,text_5.stopped,image_8.started,sound_11.started,text_6.started,sound_12.started,image_9.started,sound_13.started,text_7.started,image_8.stopped,text_6.stopped,sound_14.started,image_9.stopped,text_7.stopped,Introduction.stopped,Instructions.started,InstructionText.started,InstructionText.stopped,Instructions.stopped,InitializeExperiment.started,InitializeExperiment.stopped,TrainingGroup1.started,image_1.started,image_2.started,image_3.started,image_4.started,sound1.started,Instruction.started,ResponseKey.started,TrainingGroup1.stopped,feedbackText,correct_responses_group1,total_trials_group1,ResponseKey.keys,ResponseKey.rt,ResponseKey.duration,FeedbackRoutine1.started,FeedbackText.started,FeedbackRoutine1.stopped,FeedbackText.stopped,CheckAccuracy1.started,accuracy_group1,proceed_to_test,CheckAccuracy1.stopped,participant,session,date,expName,psychopyVersion,frameRate,expStart,
,,,,,,,,,,,,,,,,,0.008677708006871399,0.008985125001345295,,,,,,,,,,,,,,,,,,,,,,,,,,,,,,,,,,,,,,,,,,,,,,,,,,,,,,,,,,,,,,,217941,001,2024-07-02_14h29.10.851,5-33,2024.1.4,None,2024-07-02 14h29.15.081022 +0900,
,,,,,,,,,,,,,,,,,,,0.009001792001072317,0.013198500004364178,0.013198500004364178,1.261124208002002,None,,,,,,,,,,,,,,,,,,,,,,,,,,,,,,,,,,,,,,,,,,,,,,,,,,,,,,,,,,217941,001,2024-07-02_14h29.10.851,5-33,2024.1.4,None,2024-07-02 14h29.15.081022 +0900,
,,,,,,,,,,,,,,,,,,,,,,,,1.261155875006807,1.3135010830010287,6.25139591700281,6.261460916666935,6.25139591700281,6.312698708003154,11.266075291667464,16.253667208002298,16.253667208002298,16.253667208002298,16.265198791672688,16.253667208002298,21.260837083671746,26.241374708006333,26.241374708006333,26.266800708006485,26.274021208668515,26.266800708006485,31.269955958672895,36.24989762500627,36.26066029166783,36.24989762500627,36.260418333004054,36.260418333004054,41.26396929166755,46.2426342079998,46.2426342079998,46.23841495800298,,,,,,,,,,,,,,,,,,,,,,,,,,,,,,217941,001,2024-07-02_14h29.10.851,5-33,2024.1.4,None,2024-07-02 14h29.15.081022 +0900,
,,,,,,,,,,,,,,,,,,,,,,,,,,,,,,,,,,,,,,,,,,,,,,,,,,,,46.238474375000806,46.26220891700359,47.326981875005,47.24666879200231,,,,,,,,,,,,,,,,,,,,,,,,,,217941,001,2024-07-02_14h29.10.851,5-33,2024.1.4,None,2024-07-02 14h29.15.081022 +0900,
,,,,,,,,,,,,,,,,,,,,,,,,,,,,,,,,,,,,,,,,,,,,,,,,,,,,,,,,47.24669745800202,47.24699941700237,,,,,,,,,,,,,,,,,,,,,,,,217941,001,2024-07-02_14h29.10.851,5-33,2024.1.4,None,2024-07-02 14h29.15.081022 +0900,
Images/Speaker1.jpg,Images/Speaker2.jpg,Images/Speaker3.jpg,Images/Speaker4.jpg,Audio/Speaker2_Per/P2-1-Per.wav,Speaker2,گوینده۲,0,0,0,3,0,0,0,20,47.326981875005,,,,,,,,,,,,,,,,,,,,,,,,,,,,,,,,,,,,,,,,,,,47.29898500000127,47.326981875005,47.326981875005,47.326981875005,47.326981875005,47.32927250033875,47.326981875005,47.326981875005,50.288797667002655,Incorrect! The correct answer is Speaker2. نادرست! پاسخ صحیح گوینده۲ است,0,1,1,2.9486840419995133,None,50.28925883299962,50.29981929200585,52.290806500001054,,,,,,217941,001,2024-07-02_14h29.10.851,5-33,2024.1.4,None,2024-07-02 14h29.15.081022 +0900,
Images/Speaker1.jpg,Images/Speaker2.jpg,Images/Speaker3.jpg,Images/Speaker4.jpg,Audio/Speaker4_Per/P4-19-Per.wav,Speaker4,گوینده۴,0,0,0,3,0,1,1,78,52.3172514580001,,,,,,,,,,,,,,,,,,,,,,,,,,,,,,,,,,,,,,,,,,,52.29140350000671,52.3172514580001,52.3172514580001,52.3172514580001,52.3172514580001,52.32396575033684,52.3172514580001,52.3172514580001,55.21776370800217,Correct! صحیح است,1,2,4,2.8980742919957265,None,55.22183854200557,55.234475583005405,57.222188958003244,57.248141916999884,,,,,217941,001,2024-07-02_14h29.10.851,5-33,2024.1.4,None,2024-07-02 14h29.15.081022 +0900,
Images/Speaker1.jpg,Images/Speaker2.jpg,Images/Speaker3.jpg,Images/Speaker4.jpg,Audio/Speaker2_Per/P2-5-Per.wav,Speaker2,گوینده۲,0,0,0,3,0,2,2,24,57.248141916999884,,,,,,,,,,,,,,,,,,,,,,,,,,,,,,,,,,,,,,,,,,,57.223133708001114,57.248141916999884,57.248141916999884,57.248141916999884,57.248141916999884,57.25465233333719,57.248141916999884,57.248141916999884,60.09793658300623,Incorrect! The correct answer is Speaker2. نادرست! پاسخ صحیح گوینده۲ است,1,3,1,2.8436800419949577,None,60.09812337500625,60.11124508300418,62.1069751670002,,,,,,217941,001,2024-07-02_14h29.10.851,5-33,2024.1.4,None,2024-07-02 14h29.15.081022 +0900,
Images/Speaker1.jpg,Images/Speaker2.jpg,Images/Speaker3.jpg,Images/Speaker4.jpg,Audio/Speaker3_Per/P3-20-Per.wav,Speaker3,گوینده۳,0,0,0,3,0,3,3,59,62.133560958005546,,,,,,,,,,,,,,,,,,,,,,,,,,,,,,,,,,,,,,,,,,,62.10767150000174,62.133560958005546,62.133560958005546,62.133560958005546,62.133560958005546,62.14016670833419,62.133560958005546,62.133560958005546,62.29747279200092,Incorrect! The correct answer is Speaker3. نادرست! پاسخ صحیح گوینده۳ است,1,4,1,0.15906874999927823,None,62.301200208006776,62.313618958003644,64.30440358300257,,,,,,217941,001,2024-07-02_14h29.10.851,5-33,2024.1.4,None,2024-07-02 14h29.15.081022 +0900,
Images/Speaker1.jpg,Images/Speaker2.jpg,Images/Speaker3.jpg,Images/Speaker4.jpg,Audio/Speaker3_Per/P3-13-Per.wav,Speaker3,گوینده۳,0,0,0,3,0,4,4,52,64.3287516670025,,,,,,,,,,,,,,,,,,,,,,,,,,,,,,,,,,,,,,,,,,,64.30455504200654,64.3287516670025,64.3287516670025,64.3287516670025,64.3287516670025,64.33769654133405,64.3287516670025,64.3287516670025,64.61585500000365,Incorrect! The correct answer is Speaker3. نادرست! پاسخ صحیح گوینده۳ است,1,5,1,0.2807694170041941,None,64.61966966700129,64.6325366670062,66.62112550000165,,,,,,217941,001,2024-07-02_14h29.10.851,5-33,2024.1.4,None,2024-07-02 14h29.15.081022 +0900,
Images/Speaker1.jpg,Images/Speaker2.jpg,Images/Speaker3.jpg,Images/Speaker4.jpg,Audio/Speaker2_Per/P2-8-Per.wav,Speaker2,گوینده۲,0,0,0,3,0,5,5,27,66.6448097080065,,,,,,,,,,,,,,,,,,,,,,,,,,,,,,,,,,,,,,,,,,,66.62129304200062,66.6448097080065,66.6448097080065,66.6448097080065,66.6448097080065,66.6544195413376,66.6448097080065,66.6448097080065,66.9295501670058,Incorrect! The correct answer is Speaker2. نادرست! پاسخ صحیح گوینده۲ است,1,6,1,0.2747765409949352,None,66.93486366700381,66.94979025000066,68.94121166700643,,,,,,217941,001,2024-07-02_14h29.10.851,5-33,2024.1.4,None,2024-07-02 14h29.15.081022 +0900,
Images/Speaker1.jpg,Images/Speaker2.jpg,Images/Speaker3.jpg,Images/Speaker4.jpg,Audio/Speaker4_Per/P4-5-Per.wav,Speaker4,گوینده۴,0,0,0,3,0,6,6,64,68.96862570800295,,,,,,,,,,,,,,,,,,,,,,,,,,,,,,,,,,,,,,,,,,,68.94185724999988,68.96862570800295,68.96862570800295,68.96862570800295,68.96862570800295,68.97438925033978,68.96862570800295,68.96862570800295,69.2137080829998,Incorrect! The correct answer is Speaker4. نادرست! پاسخ صحیح گوینده۴ است,1,7,1,0.24344533300609328,None,69.21767070799979,69.23213454200595,71.21661566700641,71.2403228750045,,,,,217941,001,2024-07-02_14h29.10.851,5-33,2024.1.4,None,2024-07-02 14h29.15.081022 +0900,
Images/Speaker1.jpg,Images/Speaker2.jpg,Images/Speaker3.jpg,Images/Speaker4.jpg,Audio/Speaker1_Per/P1-2-Per.wav,Speaker1,گوینده ۱,0,0,0,3,0,7,7,1,71.2403228750045,,,,,,,,,,,,,,,,,,,,,,,,,,,,,,,,,,,,,,,,,,,71.21680183300487,71.2403228750045,71.2403228750045,71.2403228750045,71.2403228750045,71.24973904133415,71.2403228750045,71.2403228750045,71.27243954200094,Correct! صحیح است,2,8,1,0.0274028330022702,None,71.2765490830061,71.28745583300042,73.27084387500508,73.29514129200106,,,,,217941,001,2024-07-02_14h29.10.851,5-33,2024.1.4,None,2024-07-02 14h29.15.081022 +0900,
Images/Speaker1.jpg,Images/Speaker2.jpg,Images/Speaker3.jpg,Images/Speaker4.jpg,Audio/Speaker3_Per/P3-4-Per.wav,Speaker3,گوینده۳,0,0,0,3,0,8,8,43,73.29514129200106,,,,,,,,,,,,,,,,,,,,,,,,,,,,,,,,,,,,,,,,,,,73.27103683300084,73.29514129200106,73.29514129200106,73.29514129200106,73.29514129200106,73.30388291633474,73.29514129200106,73.29514129200106,73.47376154200174,Incorrect! The correct answer is Speaker3. نادرست! پاسخ صحیح گوینده۳ است,2,9,1,0.17091537499800324,None,73.47750975000235,73.49014237500523,75.47522500000196,75.49812045800354,,,,,217941,001,2024-07-02_14h29.10.851,5-33,2024.1.4,None,2024-07-02 14h29.15.081022 +0900,
Images/Speaker1.jpg,Images/Speaker2.jpg,Images/Speaker3.jpg,Images/Speaker4.jpg,Audio/Speaker2_Per/P2-4-Per.wav,Speaker2,گوینده۲,0,0,0,3,0,9,9,23,75.49812045800354,,,,,,,,,,,,,,,,,,,,,,,,,,,,,,,,,,,,,,,,,,,75.47538670799986,75.49812045800354,75.49812045800354,75.49812045800354,75.49812045800354,75.49168899967141,75.49812045800354,75.49812045800354,75.62706891700509,Incorrect! The correct answer is Speaker2. نادرست! پاسخ صحیح گوینده۲ است,2,10,1,0.12171045900322497,None,75.63129104200198,75.64327466700342,77.62803095800336,77.65349141700426,,,,,217941,001,2024-07-02_14h29.10.851,5-33,2024.1.4,None,2024-07-02 14h29.15.081022 +0900,
Images/Speaker1.jpg,Images/Speaker2.jpg,Images/Speaker3.jpg,Images/Speaker4.jpg,Audio/Speaker2_Per/P2-10-Per.wav,Speaker2,گوینده۲,0,0,0,3,0,10,10,29,77.65349141700426,,,,,,,,,,,,,,,,,,,,,,,,,,,,,,,,,,,,,,,,,,,77.62881470800494,77.65349141700426,77.65349141700426,77.65349141700426,77.65349141700426,77.66055604133774,77.65349141700426,77.65349141700426,77.65408004200435,Incorrect! The correct answer is Speaker2. نادرست! پاسخ صحیح گوینده۲ است,2,11,1,2.101272334002715,None,77.6543708330064,77.66425158300262,79.65180875000078,79.67372666700248,,,,,217941,001,2024-07-02_14h29.10.851,5-33,2024.1.4,None,2024-07-02 14h29.15.081022 +0900,
Images/Speaker1.jpg,Images/Speaker2.jpg,Images/Speaker3.jpg,Images/Speaker4.jpg,Audio/Speaker2_Per/P2-3-Per.wav,Speaker2,گوینده۲,0,0,0,3,0,11,11,22,79.67372666700248,,,,,,,,,,,,,,,,,,,,,,,,,,,,,,,,,,,,,,,,,,,79.65198200000304,79.67372666700248,79.67372666700248,79.67372666700248,79.67372666700248,79.66828520867081,79.67372666700248,79.67372666700248,79.7051973330017,Incorrect! The correct answer is Speaker2. نادرست! پاسخ صحیح گوینده۲ است,2,12,1,0.025676458004454616,None,79.70939312500559,79.72155895800097,81.70604850000382,81.73084962500434,,,,,217941,001,2024-07-02_14h29.10.851,5-33,2024.1.4,None,2024-07-02 14h29.15.081022 +0900,
Images/Speaker1.jpg,Images/Speaker2.jpg,Images/Speaker3.jpg,Images/Speaker4.jpg,Audio/Speaker2_Per/P2-14-Per.wav,Speaker2,گوینده۲,0,0,0,3,0,12,12,33,81.73084962500434,,,,,,,,,,,,,,,,,,,,,,,,,,,,,,,,,,,,,,,,,,,81.70665437500429,81.73084962500434,81.73084962500434,81.73084962500434,81.73084962500434,81.72180545866674,81.73084962500434,81.73084962500434,81.73139366700343,Incorrect! The correct answer is Speaker2. نادرست! پاسخ صحیح گوینده۲ است,2,13,1,2.0384027500040247,None,81.7356512500046,81.7451518750022,83.7389467920002,,,,,,217941,001,2024-07-02_14h29.10.851,5-33,2024.1.4,None,2024-07-02 14h29.15.081022 +0900,
Images/Speaker1.jpg,Images/Speaker2.jpg,Images/Speaker3.jpg,Images/Speaker4.jpg,Audio/Speaker4_Per/P4-3-Per.wav,Speaker4,گوینده۴,0,0,0,3,0,13,13,62,83.76408320799965,,,,,,,,,,,,,,,,,,,,,,,,,,,,,,,,,,,,,,,,,,,83.73969812500582,83.76408320799965,83.76408320799965,83.76408320799965,83.76408320799965,83.77212145833667,83.76408320799965,83.76408320799965,83.83414729200013,Incorrect! The correct answer is Speaker4. نادرست! پاسخ صحیح گوینده۴ است,2,14,1,0.05991612499929033,None,83.83816808300617,83.85061333300109,85.84328945800371,,,,,,217941,001,2024-07-02_14h29.10.851,5-33,2024.1.4,None,2024-07-02 14h29.15.081022 +0900,
Images/Speaker1.jpg,Images/Speaker2.jpg,Images/Speaker3.jpg,Images/Speaker4.jpg,Audio/Speaker4_Per/P4-20-Per.wav,Speaker4,گوینده۴,0,0,0,3,0,14,14,79,85.86438058299973,,,,,,,,,,,,,,,,,,,,,,,,,,,,,,,,,,,,,,,,,,,85.84349354200094,85.86438058299973,85.86438058299973,85.86438058299973,85.86438058299973,85.8598984166713,85.86438058299973,85.86438058299973,85.86499825000647,Incorrect! The correct answer is Speaker4. نادرست! پاسخ صحیح گوینده۴ است,2,15,1,2.063355833000969,None,85.86911037500249,85.87925037500099,87.86646862500493,87.89078154200251,,,,,217941,001,2024-07-02_14h29.10.851,5-33,2024.1.4,None,2024-07-02 14h29.15.081022 +0900,
Images/Speaker1.jpg,Images/Speaker2.jpg,Images/Speaker3.jpg,Images/Speaker4.jpg,Audio/Speaker4_Per/P4-2-Per.wav,Speaker4,گوینده۴,0,0,0,3,0,15,15,61,87.89078154200251,,,,,,,,,,,,,,,,,,,,,,,,,,,,,,,,,,,,,,,,,,,87.8666311670022,87.89078154200251,87.89078154200251,87.89078154200251,87.89078154200251,87.89952358333588,87.89078154200251,87.89078154200251,87.89134562500112,Incorrect! The correct answer is Speaker4. نادرست! پاسخ صحیح گوینده۴ است,2,16,1,1.9011794590041973,None,87.89158837500145,87.90181191700685,89.8878269170018,89.913067417001,,,,,217941,001,2024-07-02_14h29.10.851,5-33,2024.1.4,None,2024-07-02 14h29.15.081022 +0900,
Images/Speaker1.jpg,Images/Speaker2.jpg,Images/Speaker3.jpg,Images/Speaker4.jpg,Audio/Speaker4_Per/P4-4-Per.wav,Speaker4,گوینده۴,0,0,0,3,0,16,16,63,89.913067417001,,,,,,,,,,,,,,,,,,,,,,,,,,,,,,,,,,,,,,,,,,,89.88874291700631,89.913067417001,89.913067417001,89.913067417001,89.913067417001,89.92023108333572,89.913067417001,89.913067417001,89.9135896250009,Incorrect! The correct answer is Speaker4. نادرست! پاسخ صحیح گوینده۴ است,2,17,1,1.9456431250000605,None,89.91379416700511,89.9235520420043,91.90718095800548,91.92990779200045,,,,,217941,001,2024-07-02_14h29.10.851,5-33,2024.1.4,None,2024-07-02 14h29.15.081022 +0900,
Images/Speaker1.jpg,Images/Speaker2.jpg,Images/Speaker3.jpg,Images/Speaker4.jpg,Audio/Speaker4_Per/P4-6-Per.wav,Speaker4,گوینده۴,0,0,0,3,0,17,17,65,91.92990779200045,,,,,,,,,,,,,,,,,,,,,,,,,,,,,,,,,,,,,,,,,,,91.90733650000038,91.92990779200045,91.92990779200045,91.92990779200045,91.92990779200045,91.92358916667241,91.92990779200045,91.92990779200045,91.93050008300634,Incorrect! The correct answer is Speaker4. نادرست! پاسخ صحیح گوینده۴ است,2,18,1,1.8650647079994087,None,91.93474075000267,91.94488541700412,93.9283774170035,93.951038625004,,,,,217941,001,2024-07-02_14h29.10.851,5-33,2024.1.4,None,2024-07-02 14h29.15.081022 +0900,
Images/Speaker1.jpg,Images/Speaker2.jpg,Images/Speaker3.jpg,Images/Speaker4.jpg,Audio/Speaker2_Per/P2-20-Per.wav,Speaker2,گوینده۲,0,0,0,3,0,18,18,39,93.951038625004,,,,,,,,,,,,,,,,,,,,,,,,,,,,,,,,,,,,,,,,,,,93.92852683300589,93.951038625004,93.951038625004,93.951038625004,93.951038625004,93.9448092086716,93.951038625004,93.951038625004,94.30998858300154,Incorrect! The correct answer is Speaker2. نادرست! پاسخ صحیح گوینده۲ است,2,19,1,0.3466997089999495,None,94.31388258300285,94.32673866700497,96.30967504200089,96.33196529200359,,,,,217941,001,2024-07-02_14h29.10.851,5-33,2024.1.4,None,2024-07-02 14h29.15.081022 +0900,
Images/Speaker1.jpg,Images/Speaker2.jpg,Images/Speaker3.jpg,Images/Speaker4.jpg,Audio/Speaker1_Per/P1-18-Per.wav,Speaker1,گوینده ۱,0,0,0,3,0,19,19,17,96.33196529200359,,,,,,,,,,,,,,,,,,,,,,,,,,,,,,,,,,,,,,,,,,,96.30985675000557,96.33196529200359,96.33196529200359,96.33196529200359,96.33196529200359,96.3260761666718,96.33196529200359,96.33196529200359,96.38607500000217,Correct! صحیح است,3,20,1,0.05085824999696342,None,96.38978908300487,96.40043987500394,98.39516550000553,,,,,,217941,001,2024-07-02_14h29.10.851,5-33,2024.1.4,None,2024-07-02 14h29.15.081022 +0900,
Images/Speaker1.jpg,Images/Speaker2.jpg,Images/Speaker3.jpg,Images/Speaker4.jpg,Audio/Speaker1_Per/P1-6-Per.wav,Speaker1,گوینده ۱,0,0,0,3,0,20,20,5,98.41820733300119,,,,,,,,,,,,,,,,,,,,,,,,,,,,,,,,,,,,,,,,,,,98.39574879200518,98.41820733300119,98.41820733300119,98.41820733300119,98.41820733300119,98.42831362533664,98.41820733300119,98.41820733300119,98.41883775000315,Correct! صحیح است,4,21,1,1.9895772079980816,None,98.4191401670032,98.42820487500285,100.41691062500468,100.44184620800661,,,,,217941,001,2024-07-02_14h29.10.851,5-33,2024.1.4,None,2024-07-02 14h29.15.081022 +0900,
Images/Speaker1.jpg,Images/Speaker2.jpg,Images/Speaker3.jpg,Images/Speaker4.jpg,Audio/Speaker3_Per/P3-8-Per.wav,Speaker3,گوینده۳,0,0,0,3,0,21,21,47,100.44184620800661,,,,,,,,,,,,,,,,,,,,,,,,,,,,,,,,,,,,,,,,,,,100.41730820800149,100.44184620800661,100.44184620800661,100.44184620800661,100.44184620800661,100.44987241633547,100.44184620800661,100.44184620800661,100.44242370800202,Incorrect! The correct answer is Speaker3. نادرست! پاسخ صحیح گوینده۳ است,4,22,1,1.8747668329961016,None,100.44292525000492,100.45277441700455,102.44407879200298,,,,,,217941,001,2024-07-02_14h29.10.851,5-33,2024.1.4,None,2024-07-02 14h29.15.081022 +0900,
Images/Speaker1.jpg,Images/Speaker2.jpg,Images/Speaker3.jpg,Images/Speaker4.jpg,Audio/Speaker1_Per/P1-7-Per.wav,Speaker1,گوینده ۱,0,0,0,3,0,22,22,6,102.46960725000099,,,,,,,,,,,,,,,,,,,,,,,,,,,,,,,,,,,,,,,,,,,102.44473716700304,102.46960725000099,102.46960725000099,102.46960725000099,102.46960725000099,102.47724720833551,102.46960725000099,102.46960725000099,102.47015725000529,Correct! صحیح است,5,23,1,1.8834955419952166,None,102.47044370799995,102.47817945800489,104.47028633300215,104.4955410420007,,,,,217941,001,2024-07-02_14h29.10.851,5-33,2024.1.4,None,2024-07-02 14h29.15.081022 +0900,
Images/Speaker1.jpg,Images/Speaker2.jpg,Images/Speaker3.jpg,Images/Speaker4.jpg,Audio/Speaker3_Per/P3-18-Per.wav,Speaker3,گوینده۳,0,0,0,3,0,23,23,57,104.4955410420007,,,,,,,,,,,,,,,,,,,,,,,,,,,,,,,,,,,,,,,,,,,104.47118633300124,104.4955410420007,104.4955410420007,104.4955410420007,104.4955410420007,104.50266345833418,104.4955410420007,104.4955410420007,104.80894266700489,Incorrect! The correct answer is Speaker3. نادرست! پاسخ صحیح گوینده۳ است,5,24,1,0.31033724999724654,None,104.81297975000052,104.82557787500264,106.81836429200484,,,,,,217941,001,2024-07-02_14h29.10.851,5-33,2024.1.4,None,2024-07-02 14h29.15.081022 +0900,
Images/Speaker1.jpg,Images/Speaker2.jpg,Images/Speaker3.jpg,Images/Speaker4.jpg,Audio/Speaker3_Per/P3-10-Per.wav,Speaker3,گوینده۳,0,0,0,3,0,24,24,49,106.84413183300057,,,,,,,,,,,,,,,,,,,,,,,,,,,,,,,,,,,,,,,,,,,106.81902325000556,106.84413183300057,106.84413183300057,106.84413183300057,106.84413183300057,106.85150070833382,106.84413183300057,106.84413183300057,107.12430070800474,Incorrect! The correct answer is Speaker3. نادرست! پاسخ صحیح گوینده۳ است,5,25,1,0.27189570799964713,None,107.12860487500438,107.13922766700125,109.12820925000415,109.15335508300632,,,,,217941,001,2024-07-02_14h29.10.851,5-33,2024.1.4,None,2024-07-02 14h29.15.081022 +0900,
Images/Speaker1.jpg,Images/Speaker2.jpg,Images/Speaker3.jpg,Images/Speaker4.jpg,Audio/Speaker2_Per/P2-18-Per.wav,Speaker2,گوینده۲,0,0,0,3,0,25,25,37,109.15335508300632,,,,,,,,,,,,,,,,,,,,,,,,,,,,,,,,,,,,,,,,,,,109.1283749580034,109.15335508300632,109.15335508300632,109.15335508300632,109.15335508300632,109.14467370867011,109.15335508300632,109.15335508300632,109.15398408300098,Incorrect! The correct answer is Speaker2. نادرست! پاسخ صحیح گوینده۲ است,5,26,1,2.2887222499994095,None,109.15797541700158,109.16829204200621,111.15291975000582,111.1783732920012,,,,,217941,001,2024-07-02_14h29.10.851,5-33,2024.1.4,None,2024-07-02 14h29.15.081022 +0900,
Images/Speaker1.jpg,Images/Speaker2.jpg,Images/Speaker3.jpg,Images/Speaker4.jpg,Audio/Speaker2_Per/P2-6-Per.wav,Speaker2,گوینده۲,0,0,0,3,0,26,26,25,111.1783732920012,,,,,,,,,,,,,,,,,,,,,,,,,,,,,,,,,,,,,,,,,,,111.15361991700047,111.1783732920012,111.1783732920012,111.1783732920012,111.1783732920012,111.1854266253363,111.1783732920012,111.1783732920012,111.17892433300585,Incorrect! The correct answer is Speaker2. نادرست! پاسخ صحیح گوینده۲ است,5,27,1,1.970263667004474,None,111.17919841700495,111.18892333300028,113.1754787500031,113.2004174169997,,,,,217941,001,2024-07-02_14h29.10.851,5-33,2024.1.4,None,2024-07-02 14h29.15.081022 +0900,
Images/Speaker1.jpg,Images/Speaker2.jpg,Images/Speaker3.jpg,Images/Speaker4.jpg,Audio/Speaker1_Per/P1-15-Per.wav,Speaker1,گوینده ۱,0,0,0,3,0,27,27,14,113.2004174169997,,,,,,,,,,,,,,,,,,,,,,,,,,,,,,,,,,,,,,,,,,,113.17563825000252,113.2004174169997,113.2004174169997,113.2004174169997,113.2004174169997,113.19157016666965,113.2004174169997,113.2004174169997,113.20097820800584,Correct! صحیح است,6,28,1,1.9949275000035414,None,113.20141500000318,113.20903983300377,115.19263575000514,115.21586758299964,,,,,217941,001,2024-07-02_14h29.10.851,5-33,2024.1.4,None,2024-07-02 14h29.15.081022 +0900,
Images/Speaker1.jpg,Images/Speaker2.jpg,Images/Speaker3.jpg,Images/Speaker4.jpg,Audio/Speaker1_Per/P1-13-Per.wav,Speaker1,گوینده ۱,0,0,0,3,0,28,28,12,115.21586758299964,,,,,,,,,,,,,,,,,,,,,,,,,,,,,,,,,,,,,,,,,,,115.19280745800643,115.21586758299964,115.21586758299964,115.21586758299964,115.21586758299964,115.22573533333392,115.21586758299964,115.21586758299964,115.21645537500444,Correct! صحیح است,7,29,1,1.9783916669985047,None,115.21672558300634,115.22448645800614,117.21502745800535,117.23883133300114,,,,,217941,001,2024-07-02_14h29.10.851,5-33,2024.1.4,None,2024-07-02 14h29.15.081022 +0900,
Images/Speaker1.jpg,Images/Speaker2.jpg,Images/Speaker3.jpg,Images/Speaker4.jpg,Audio/Speaker1_Per/P1-3-Per.wav,Speaker1,گوینده ۱,0,0,0,3,0,29,29,2,117.23883133300114,,,,,,,,,,,,,,,,,,,,,,,,,,,,,,,,,,,,,,,,,,,117.21574779200455,117.23883133300114,117.23883133300114,117.23883133300114,117.23883133300114,117.24736150033326,117.23883133300114,117.23883133300114,117.29416454199963,Correct! صحیح است,8,30,1,0.05430674999661278,None,117.29801145800593,117.30864070800453,119.2925593750042,119.31553574999998,,,,,217941,001,2024-07-02_14h29.10.851,5-33,2024.1.4,None,2024-07-02 14h29.15.081022 +0900,
Images/Speaker1.jpg,Images/Speaker2.jpg,Images/Speaker3.jpg,Images/Speaker4.jpg,Audio/Speaker2_Per/P2-9-Per.wav,Speaker2,گوینده۲,0,0,0,3,0,30,30,28,119.31553574999998,,,,,,,,,,,,,,,,,,,,,,,,,,,,,,,,,,,,,,,,,,,119.29273716700118,119.31553574999998,119.31553574999998,119.31553574999998,119.31553574999998,119.32558358333384,119.31553574999998,119.31553574999998,119.4765532080055,Incorrect! The correct answer is Speaker2. نادرست! پاسخ صحیح گوینده۲ است,8,31,1,0.15972441700432682,None,119.48082554200664,119.49394966700493,121.48090558300464,,,,,,217941,001,2024-07-02_14h29.10.851,5-33,2024.1.4,None,2024-07-02 14h29.15.081022 +0900,
Images/Speaker1.jpg,Images/Speaker2.jpg,Images/Speaker3.jpg,Images/Speaker4.jpg,Audio/Speaker4_Per/P4-1-Per.wav,Speaker4,گوینده۴,0,0,0,3,0,31,31,60,121.5037336250025,,,,,,,,,,,,,,,,,,,,,,,,,,,,,,,,,,,,,,,,,,,121.48110720800469,121.5037336250025,121.5037336250025,121.5037336250025,121.5037336250025,121.49753099967008,121.5037336250025,121.5037336250025,121.54591733300185,Incorrect! The correct answer is Speaker4. نادرست! پاسخ صحیح گوینده۴ است,8,32,1,0.04110183299781056,None,121.54958450000413,121.56223808300274,123.54560162500275,123.5690039580004,,,,,217941,001,2024-07-02_14h29.10.851,5-33,2024.1.4,None,2024-07-02 14h29.15.081022 +0900,
Images/Speaker1.jpg,Images/Speaker2.jpg,Images/Speaker3.jpg,Images/Speaker4.jpg,Audio/Speaker1_Per/P1-4-Per.wav,Speaker1,گوینده ۱,0,0,0,3,0,32,32,13,123.5690039580004,,,,,,,,,,,,,,,,,,,,,,,,,,,,,,,,,,,,,,,,,,,123.54634462499962,123.5690039580004,123.5690039580004,123.5690039580004,123.5690039580004,123.57813483333351,123.5690039580004,123.5690039580004,123.73486962500465,Correct! صحیح است,9,33,1,0.1627092500057188,None,123.73869858300168,123.74986291700043,125.74119600000267,,,,,,217941,001,2024-07-02_14h29.10.851,5-33,2024.1.4,None,2024-07-02 14h29.15.081022 +0900,
Images/Speaker1.jpg,Images/Speaker2.jpg,Images/Speaker3.jpg,Images/Speaker4.jpg,Audio/Speaker3_Per/P3-19-Per.wav,Speaker3,گوینده۳,0,0,0,3,0,33,33,58,125.76970683300169,,,,,,,,,,,,,,,,,,,,,,,,,,,,,,,,,,,,,,,,,,,125.74190575000102,125.76970683300169,125.76970683300169,125.76970683300169,125.76970683300169,125.77435387533527,125.76970683300169,125.76970683300169,125.77029841700278,Incorrect! The correct answer is Speaker3. نادرست! پاسخ صحیح گوینده۳ است,9,34,1,2.101711584000441,None,125.77053258300293,125.78054816700023,127.77098837500671,,,,,,217941,001,2024-07-02_14h29.10.851,5-33,2024.1.4,None,2024-07-02 14h29.15.081022 +0900,
Images/Speaker1.jpg,Images/Speaker2.jpg,Images/Speaker3.jpg,Images/Speaker4.jpg,Audio/Speaker2_Per/P2-16-Per.wav,Speaker2,گوینده۲,0,0,0,3,0,34,34,35,127.79854233300284,,,,,,,,,,,,,,,,,,,,,,,,,,,,,,,,,,,,,,,,,,,127.77156983300665,127.79854233300284,127.79854233300284,127.79854233300284,127.79854233300284,127.8041662503388,127.79854233300284,127.79854233300284,127.86447770800442,Incorrect! The correct answer is Speaker2. نادرست! پاسخ صحیح گوینده۲ است,9,35,1,0.0631873749953229,None,127.86861870800203,127.88093841700174,129.86740287500288,129.8916842079998,,,,,217941,001,2024-07-02_14h29.10.851,5-33,2024.1.4,None,2024-07-02 14h29.15.081022 +0900,
Images/Speaker1.jpg,Images/Speaker2.jpg,Images/Speaker3.jpg,Images/Speaker4.jpg,Audio/Speaker1_Per/P1-11-Per.wav,Speaker1,گوینده ۱,0,0,0,3,0,35,35,10,129.8916842079998,,,,,,,,,,,,,,,,,,,,,,,,,,,,,,,,,,,,,,,,,,,129.8675609580023,129.8916842079998,129.8916842079998,129.8916842079998,129.8916842079998,129.88384912466816,129.8916842079998,129.8916842079998,129.8922474580031,Correct! صحیح است,10,36,1,2.0799947919949773,None,129.8965171670061,129.905123250006,131.8921459580015,131.91552962500282,,,,,217941,001,2024-07-02_14h29.10.851,5-33,2024.1.4,None,2024-07-02 14h29.15.081022 +0900,
Images/Speaker1.jpg,Images/Speaker2.jpg,Images/Speaker3.jpg,Images/Speaker4.jpg,Audio/Speaker3_Per/P3-9-Per.wav,Speaker3,گوینده۳,0,0,0,3,0,36,36,48,131.91552962500282,,,,,,,,,,,,,,,,,,,,,,,,,,,,,,,,,,,,,,,,,,,131.8923172499999,131.91552962500282,131.91552962500282,131.91552962500282,131.91552962500282,131.92521666633598,131.91552962500282,131.91552962500282,132.03233437500603,Incorrect! The correct answer is Speaker3. نادرست! پاسخ صحیح گوینده۳ است,10,37,1,0.10928029200294986,None,132.0363099580063,132.04628191700613,134.0308462920002,134.05337654200412,,,,,217941,001,2024-07-02_14h29.10.851,5-33,2024.1.4,None,2024-07-02 14h29.15.081022 +0900,
Images/Speaker1.jpg,Images/Speaker2.jpg,Images/Speaker3.jpg,Images/Speaker4.jpg,Audio/Speaker2_Per/P2-19-Per.wav,Speaker2,گوینده۲,0,0,0,3,0,37,37,38,134.05337654200412,,,,,,,,,,,,,,,,,,,,,,,,,,,,,,,,,,,,,,,,,,,134.0310434580024,134.05337654200412,134.05337654200412,134.05337654200412,134.05337654200412,134.04728045867185,134.05337654200412,134.05337654200412,134.09109529200214,Incorrect! The correct answer is Speaker2. نادرست! پاسخ صحیح گوینده۲ است,10,38,1,0.03380858399759745,None,134.09497254200687,134.10734383300587,136.10110470800282,,,,,,217941,001,2024-07-02_14h29.10.851,5-33,2024.1.4,None,2024-07-02 14h29.15.081022 +0900,
Images/Speaker1.jpg,Images/Speaker2.jpg,Images/Speaker3.jpg,Images/Speaker4.jpg,Audio/Speaker4_Per/P4-12-Per.wav,Speaker4,گوینده۴,0,0,0,3,0,38,38,71,136.12253416699969,,,,,,,,,,,,,,,,,,,,,,,,,,,,,,,,,,,,,,,,,,,136.1013009580056,136.12253416699969,136.12253416699969,136.12253416699969,136.12253416699969,136.1177356246665,136.12253416699969,136.12253416699969,136.12315641700116,Incorrect! The correct answer is Speaker4. نادرست! پاسخ صحیح گوینده۴ است,10,39,1,1.9892638749952312,None,136.12684883300244,136.13700479200634,138.12403004200314,138.14707358300075,,,,,217941,001,2024-07-02_14h29.10.851,5-33,2024.1.4,None,2024-07-02 14h29.15.081022 +0900,
Images/Speaker1.jpg,Images/Speaker2.jpg,Images/Speaker3.jpg,Images/Speaker4.jpg,Audio/Speaker1_Per/P1-8-Per.wav,Speaker1,گوینده ۱,0,0,0,3,0,39,39,7,138.14707358300075,,,,,,,,,,,,,,,,,,,,,,,,,,,,,,,,,,,,,,,,,,,138.12421666700538,138.14707358300075,138.14707358300075,138.14707358300075,138.14707358300075,138.15715529133792,138.14707358300075,138.14707358300075,138.14765654200164,Correct! صحیح است,11,40,1,1.9667142079997575,None,138.14811279200512,138.15629295800318,140.13896750000276,140.1612148750064,,,,,217941,001,2024-07-02_14h29.10.851,5-33,2024.1.4,None,2024-07-02 14h29.15.081022 +0900,
Images/Speaker1.jpg,Images/Speaker2.jpg,Images/Speaker3.jpg,Images/Speaker4.jpg,Audio/Speaker1_Per/P1-5-Per.wav,Speaker1,گوینده ۱,0,0,0,3,0,40,40,4,140.1612148750064,,,,,,,,,,,,,,,,,,,,,,,,,,,,,,,,,,,,,,,,,,,140.1391361250062,140.1612148750064,140.1612148750064,140.1612148750064,140.1612148750064,140.15535187466983,140.1612148750064,140.1612148750064,140.2306523330044,Correct! صحیح است,12,41,1,0.06568500000139466,None,140.23468445800245,140.2458046669999,142.23872625000513,,,,,,217941,001,2024-07-02_14h29.10.851,5-33,2024.1.4,None,2024-07-02 14h29.15.081022 +0900,
Images/Speaker1.jpg,Images/Speaker2.jpg,Images/Speaker3.jpg,Images/Speaker4.jpg,Audio/Speaker3_Per/P3-15-Per.wav,Speaker3,گوینده۳,0,0,0,3,0,41,41,54,142.26383241700387,,,,,,,,,,,,,,,,,,,,,,,,,,,,,,,,,,,,,,,,,,,142.23940766700252,142.26383241700387,142.26383241700387,142.26383241700387,142.26383241700387,142.27187787533381,142.26383241700387,142.26383241700387,142.32394300000306,Incorrect! The correct answer is Speaker3. نادرست! پاسخ صحیح گوینده۳ است,12,42,1,0.05571362499904353,None,142.3281498330034,142.34084512499976,144.32595375000528,144.34599504200014,,,,,217941,001,2024-07-02_14h29.10.851,5-33,2024.1.4,None,2024-07-02 14h29.15.081022 +0900,
Images/Speaker1.jpg,Images/Speaker2.jpg,Images/Speaker3.jpg,Images/Speaker4.jpg,Audio/Speaker3_Per/P3-3-Per.wav,Speaker3,گوینده۳,0,0,0,3,0,42,42,42,144.34599504200014,,,,,,,,,,,,,,,,,,,,,,,,,,,,,,,,,,,,,,,,,,,144.32614808300423,144.34599504200014,144.34599504200014,144.34599504200014,144.34599504200014,144.34241983366908,144.34599504200014,144.34599504200014,144.43319516700285,Incorrect! The correct answer is Speaker3. نادرست! پاسخ صحیح گوینده۳ است,12,43,1,0.08257729199976893,None,144.43722395800432,144.44878279200202,146.43694083300215,146.4640663750033,,,,,217941,001,2024-07-02_14h29.10.851,5-33,2024.1.4,None,2024-07-02 14h29.15.081022 +0900,
Images/Speaker1.jpg,Images/Speaker2.jpg,Images/Speaker3.jpg,Images/Speaker4.jpg,Audio/Speaker3_Per/P3-14-Per.wav,Speaker3,گوینده۳,0,0,0,3,0,43,43,53,146.4640663750033,,,,,,,,,,,,,,,,,,,,,,,,,,,,,,,,,,,,,,,,,,,146.4377702080019,146.4640663750033,146.4640663750033,146.4640663750033,146.4640663750033,146.46940879133814,146.4640663750033,146.4640663750033,146.62393450000673,Incorrect! The correct answer is Speaker3. نادرست! پاسخ صحیح گوینده۳ است,12,44,1,0.14993191700341413,None,146.62817854199966,146.641087875003,148.62811675000557,148.6556000000055,,,,,217941,001,2024-07-02_14h29.10.851,5-33,2024.1.4,None,2024-07-02 14h29.15.081022 +0900,
Images/Speaker1.jpg,Images/Speaker2.jpg,Images/Speaker3.jpg,Images/Speaker4.jpg,Audio/Speaker1_Per/P1-10-Per.wav,Speaker1,گوینده ۱,0,0,0,3,0,44,44,9,148.6556000000055,,,,,,,,,,,,,,,,,,,,,,,,,,,,,,,,,,,,,,,,,,,148.6288072919997,148.6556000000055,148.6556000000055,148.6556000000055,148.6556000000055,148.6605847913384,148.6556000000055,148.6556000000055,148.76021470800333,Correct! صحیح است,13,45,1,0.10268050000013318,None,148.76442920800037,148.77526770800614,150.7598745830037,150.78646495800058,,,,,217941,001,2024-07-02_14h29.10.851,5-33,2024.1.4,None,2024-07-02 14h29.15.081022 +0900,
Images/Speaker1.jpg,Images/Speaker2.jpg,Images/Speaker3.jpg,Images/Speaker4.jpg,Audio/Speaker3_Per/P3-2-Per.wav,Speaker3,گوینده۳,0,0,0,3,0,45,45,41,150.78646495800058,,,,,,,,,,,,,,,,,,,,,,,,,,,,,,,,,,,,,,,,,,,150.76049254200188,150.78646495800058,150.78646495800058,150.78646495800058,150.78646495800058,150.7922477503385,150.78646495800058,150.78646495800058,150.9138211669997,Incorrect! The correct answer is Speaker3. نادرست! پاسخ صحیح گوینده۳ است,13,46,1,0.12597304199880455,None,150.91755787500006,150.93048716700287,152.91995387500356,,,,,,217941,001,2024-07-02_14h29.10.851,5-33,2024.1.4,None,2024-07-02 14h29.15.081022 +0900,
Images/Speaker1.jpg,Images/Speaker2.jpg,Images/Speaker3.jpg,Images/Speaker4.jpg,Audio/Speaker4_Per/P4-9-Per.wav,Speaker4,گوینده۴,0,0,0,3,0,46,46,68,152.94871033300296,,,,,,,,,,,,,,,,,,,,,,,,,,,,,,,,,,,,,,,,,,,152.92056758300168,152.94871033300296,152.94871033300296,152.94871033300296,152.94871033300296,152.95314333334005,152.94871033300296,152.94871033300296,152.94939341700228,Incorrect! The correct answer is Speaker4. نادرست! پاسخ صحیح گوینده۴ است,13,47,1,2.1251682920046733,None,152.9497396670049,152.96020116700674,154.9435658750008,154.9693655420051,,,,,217941,001,2024-07-02_14h29.10.851,5-33,2024.1.4,None,2024-07-02 14h29.15.081022 +0900,
Images/Speaker1.jpg,Images/Speaker2.jpg,Images/Speaker3.jpg,Images/Speaker4.jpg,Audio/Speaker1_Per/P1-12-Per.wav,Speaker1,گوینده ۱,0,0,0,3,0,47,47,11,154.9693655420051,,,,,,,,,,,,,,,,,,,,,,,,,,,,,,,,,,,,,,,,,,,154.94426733300497,154.9693655420051,154.9693655420051,154.9693655420051,154.9693655420051,154.97604925033426,154.9693655420051,154.9693655420051,155.05788733300142,Correct! صحیح است,14,48,1,0.08618537500296952,None,155.06169433300238,155.07265358300356,157.06548183300038,,,,,,217941,001,2024-07-02_14h29.10.851,5-33,2024.1.4,None,2024-07-02 14h29.15.081022 +0900,
Images/Speaker1.jpg,Images/Speaker2.jpg,Images/Speaker3.jpg,Images/Speaker4.jpg,Audio/Speaker4_Per/P4-11-Per.wav,Speaker4,گوینده۴,0,0,0,3,0,48,48,70,157.09290012500423,,,,,,,,,,,,,,,,,,,,,,,,,,,,,,,,,,,,,,,,,,,157.06622358300228,157.09290012500423,157.09290012500423,157.09290012500423,157.09290012500423,157.0986461253347,157.09290012500423,157.09290012500423,157.18091158300376,Incorrect! The correct answer is Speaker4. نادرست! پاسخ صحیح گوینده۴ است,14,49,1,0.08095662500272738,None,157.1851122500011,157.197839708002,159.18054404200666,159.2039554580042,,,,,217941,001,2024-07-02_14h29.10.851,5-33,2024.1.4,None,2024-07-02 14h29.15.081022 +0900,
Images/Speaker1.jpg,Images/Speaker2.jpg,Images/Speaker3.jpg,Images/Speaker4.jpg,Audio/Speaker2_Per/P2-2-Per.wav,Speaker2,گوینده۲,0,0,0,3,0,49,49,21,159.2039554580042,,,,,,,,,,,,,,,,,,,,,,,,,,,,,,,,,,,,,,,,,,,159.18070591700234,159.2039554580042,159.2039554580042,159.2039554580042,159.2039554580042,159.21361170833603,159.2039554580042,159.2039554580042,159.36262866700417,Incorrect! The correct answer is Speaker2. نادرست! پاسخ صحیح گوینده۲ است,14,50,1,0.14789845800260082,None,159.36665229200298,159.37919429199974,161.36679845800245,,,,,,217941,001,2024-07-02_14h29.10.851,5-33,2024.1.4,None,2024-07-02 14h29.15.081022 +0900,
Images/Speaker1.jpg,Images/Speaker2.jpg,Images/Speaker3.jpg,Images/Speaker4.jpg,Audio/Speaker3_Per/P3-5-Per.wav,Speaker3,گوینده۳,0,0,0,3,0,50,50,44,161.39419000000635,,,,,,,,,,,,,,,,,,,,,,,,,,,,,,,,,,,,,,,,,,,161.3674331250004,161.39419000000635,161.39419000000635,161.39419000000635,161.39419000000635,161.39998062533465,161.39419000000635,161.39419000000635,161.56326591700054,Incorrect! The correct answer is Speaker3. نادرست! پاسخ صحیح گوینده۳ است,14,51,1,0.16085554199526086,None,161.5673224170023,161.57840745800058,163.57165158300631,,,,,,217941,001,2024-07-02_14h29.10.851,5-33,2024.1.4,None,2024-07-02 14h29.15.081022 +0900,
Images/Speaker1.jpg,Images/Speaker2.jpg,Images/Speaker3.jpg,Images/Speaker4.jpg,Audio/Speaker4_Per/P4-16-Per.wav,Speaker4,گوینده۴,0,0,0,3,0,51,51,75,163.5939642500016,,,,,,,,,,,,,,,,,,,,,,,,,,,,,,,,,,,,,,,,,,,163.57180579200212,163.5939642500016,163.5939642500016,163.5939642500016,163.5939642500016,163.58828587466658,163.5939642500016,163.5939642500016,163.59453075000056,Incorrect! The correct answer is Speaker4. نادرست! پاسخ صحیح گوینده۴ است,14,52,1,2.107614458996977,None,163.5982282920013,163.6084506670013,165.59707270800573,165.6200955420063,,,,,217941,001,2024-07-02_14h29.10.851,5-33,2024.1.4,None,2024-07-02 14h29.15.081022 +0900,
Images/Speaker1.jpg,Images/Speaker2.jpg,Images/Speaker3.jpg,Images/Speaker4.jpg,Audio/Speaker4_Per/P4-15-Per.wav,Speaker4,گوینده۴,0,0,0,3,0,52,52,74,165.6200955420063,,,,,,,,,,,,,,,,,,,,,,,,,,,,,,,,,,,,,,,,,,,165.5972645830043,165.6200955420063,165.6200955420063,165.6200955420063,165.6200955420063,165.63018570833862,165.6200955420063,165.6200955420063,165.62066816700099,Incorrect! The correct answer is Speaker4. نادرست! پاسخ صحیح گوینده۴ است,14,53,1,1.9848073339962866,None,165.6210515000057,165.63112879200344,167.6158369170007,167.63897474999976,,,,,217941,001,2024-07-02_14h29.10.851,5-33,2024.1.4,None,2024-07-02 14h29.15.081022 +0900,
Images/Speaker1.jpg,Images/Speaker2.jpg,Images/Speaker3.jpg,Images/Speaker4.jpg,Audio/Speaker2_Per/P2-15-Per.wav,Speaker2,گوینده۲,0,0,0,3,0,53,53,34,167.63897474999976,,,,,,,,,,,,,,,,,,,,,,,,,,,,,,,,,,,,,,,,,,,167.6159913750016,167.63897474999976,167.63897474999976,167.63897474999976,167.63897474999976,167.648950833333,167.63897474999976,167.63897474999976,167.6710139170027,Incorrect! The correct answer is Speaker2. نادرست! پاسخ صحیح گوینده۲ است,14,54,1,0.023606041999300942,None,167.6748132080029,167.68743879200338,169.67307583300135,169.69522029200016,,,,,217941,001,2024-07-02_14h29.10.851,5-33,2024.1.4,None,2024-07-02 14h29.15.081022 +0900,
Images/Speaker1.jpg,Images/Speaker2.jpg,Images/Speaker3.jpg,Images/Speaker4.jpg,Audio/Speaker3_Per/P3-1-Per.wav,Speaker3,گوینده۳,0,0,0,3,0,54,54,40,169.69522029200016,,,,,,,,,,,,,,,,,,,,,,,,,,,,,,,,,,,,,,,,,,,169.6732415420047,169.69522029200016,169.69522029200016,169.69522029200016,169.69522029200016,169.68952649966766,169.69522029200016,169.69522029200016,169.69574845800526,Incorrect! The correct answer is Speaker3. نادرست! پاسخ صحیح گوینده۳ است,14,55,1,2.008685875000083,None,169.69979708300525,169.70962141700147,171.697270167002,171.71721716700267,,,,,217941,001,2024-07-02_14h29.10.851,5-33,2024.1.4,None,2024-07-02 14h29.15.081022 +0900,
Images/Speaker1.jpg,Images/Speaker2.jpg,Images/Speaker3.jpg,Images/Speaker4.jpg,Audio/Speaker4_Per/P4-18-Per.wav,Speaker4,گوینده۴,0,0,0,3,0,55,55,77,171.71721716700267,,,,,,,,,,,,,,,,,,,,,,,,,,,,,,,,,,,,,,,,,,,171.6974553330001,171.71721716700267,171.71721716700267,171.71721716700267,171.71721716700267,171.7136980836697,171.71721716700267,171.71721716700267,171.77130054200097,Incorrect! The correct answer is Speaker4. نادرست! پاسخ صحیح گوینده۴ است,14,56,1,0.053128917003050447,None,171.77514183300082,171.78738562500075,173.77046029200574,173.7901015000025,,,,,217941,001,2024-07-02_14h29.10.851,5-33,2024.1.4,None,2024-07-02 14h29.15.081022 +0900,
Images/Speaker1.jpg,Images/Speaker2.jpg,Images/Speaker3.jpg,Images/Speaker4.jpg,Audio/Speaker4_Per/P4-17-Per.wav,Speaker4,گوینده۴,0,0,0,3,0,56,56,76,173.7901015000025,,,,,,,,,,,,,,,,,,,,,,,,,,,,,,,,,,,,,,,,,,,173.77064454200445,173.7901015000025,173.7901015000025,173.7901015000025,173.7901015000025,173.78686620867327,173.7901015000025,173.7901015000025,173.82172462500603,Incorrect! The correct answer is Speaker4. نادرست! پاسخ صحیح گوینده۴ است,14,57,1,0.02335545800451655,None,173.82547895800235,173.83783687500545,175.82158312500542,175.84442020800634,,,,,217941,001,2024-07-02_14h29.10.851,5-33,2024.1.4,None,2024-07-02 14h29.15.081022 +0900,
Images/Speaker1.jpg,Images/Speaker2.jpg,Images/Speaker3.jpg,Images/Speaker4.jpg,Audio/Speaker4_Per/P4-10-Per.wav,Speaker4,گوینده۴,0,0,0,3,0,57,57,69,175.84442020800634,,,,,,,,,,,,,,,,,,,,,,,,,,,,,,,,,,,,,,,,,,,175.82174766700336,175.84442020800634,175.84442020800634,175.84442020800634,175.84442020800634,175.8380282496694,175.84442020800634,175.84442020800634,175.8450622080054,Incorrect! The correct answer is Speaker4. نادرست! پاسخ صحیح گوینده۴ است,14,58,1,1.9692932500038296,None,175.84890708300372,175.85953320800036,177.84558929200284,177.86671250000654,,,,,217941,001,2024-07-02_14h29.10.851,5-33,2024.1.4,None,2024-07-02 14h29.15.081022 +0900,
Images/Speaker1.jpg,Images/Speaker2.jpg,Images/Speaker3.jpg,Images/Speaker4.jpg,Audio/Speaker1_Per/P1-4-Per.wav,Speaker1,گوینده ۱,0,0,0,3,0,58,58,3,177.86671250000654,,,,,,,,,,,,,,,,,,,,,,,,,,,,,,,,,,,,,,,,,,,177.84575483300432,177.86671250000654,177.86671250000654,177.86671250000654,177.86671250000654,177.86194524966803,177.86671250000654,177.86671250000654,177.8673822500059,Correct! صحیح است,15,59,1,1.9874589169994579,None,177.87141158300074,177.8799070830064,179.87440170800255,,,,,,217941,001,2024-07-02_14h29.10.851,5-33,2024.1.4,None,2024-07-02 14h29.15.081022 +0900,
Images/Speaker1.jpg,Images/Speaker2.jpg,Images/Speaker3.jpg,Images/Speaker4.jpg,Audio/Speaker3_Per/P3-11-Per.wav,Speaker3,گوینده۳,0,0,0,3,0,59,59,50,179.89818216700223,,,,,,,,,,,,,,,,,,,,,,,,,,,,,,,,,,,,,,,,,,,179.87457658300264,179.89818216700223,179.89818216700223,179.89818216700223,179.89818216700223,179.90770400033995,179.89818216700223,179.89818216700223,179.89883750000445,Incorrect! The correct answer is Speaker3. نادرست! پاسخ صحیح گوینده۳ است,15,60,1,1.950617083995894,None,179.8992200000066,179.9085550420059,181.89770725000562,181.92379733300186,,,,,217941,001,2024-07-02_14h29.10.851,5-33,2024.1.4,None,2024-07-02 14h29.15.081022 +0900,
Images/Speaker1.jpg,Images/Speaker2.jpg,Images/Speaker3.jpg,Images/Speaker4.jpg,Audio/Speaker4_Per/P4-8-Per.wav,Speaker4,گوینده۴,0,0,0,3,0,60,60,67,181.92379733300186,,,,,,,,,,,,,,,,,,,,,,,,,,,,,,,,,,,,,,,,,,,181.89830350000557,181.92379733300186,181.92379733300186,181.92379733300186,181.92379733300186,181.9300141253339,181.92379733300186,181.92379733300186,182.08479529200122,Incorrect! The correct answer is Speaker4. نادرست! پاسخ صحیح گوینده۴ است,15,61,1,0.15671554100117646,None,182.08864562500094,182.10115245800262,184.0867606669999,184.10923079200438,,,,,217941,001,2024-07-02_14h29.10.851,5-33,2024.1.4,None,2024-07-02 14h29.15.081022 +0900,
Images/Speaker1.jpg,Images/Speaker2.jpg,Images/Speaker3.jpg,Images/Speaker4.jpg,Audio/Speaker1_Per/P1-17-Per.wav,Speaker1,گوینده ۱,0,0,0,3,0,61,61,16,184.10923079200438,,,,,,,,,,,,,,,,,,,,,,,,,,,,,,,,,,,,,,,,,,,184.08694166700298,184.10923079200438,184.10923079200438,184.10923079200438,184.10923079200438,184.10312620867288,184.10923079200438,184.10923079200438,184.3705970420051,Correct! صحیح است,16,62,1,0.2588545000035083,None,184.37442187499983,184.38522612500674,186.36859129200457,186.39185725000425,,,,,217941,001,2024-07-02_14h29.10.851,5-33,2024.1.4,None,2024-07-02 14h29.15.081022 +0900,
Images/Speaker1.jpg,Images/Speaker2.jpg,Images/Speaker3.jpg,Images/Speaker4.jpg,Audio/Speaker3_Per/P3-6-Per.wav,Speaker3,گوینده۳,0,0,0,3,0,62,62,45,186.39185725000425,,,,,,,,,,,,,,,,,,,,,,,,,,,,,,,,,,,,,,,,,,,186.36874495800294,186.39185725000425,186.39185725000425,186.39185725000425,186.39185725000425,186.40169629133794,186.39185725000425,186.39185725000425,186.72169408300397,Incorrect! The correct answer is Speaker3. نادرست! پاسخ صحیح گوینده۳ است,16,63,1,0.3182463330012979,None,186.72586870800296,186.73886725000193,188.72612204200414,,,,,,217941,001,2024-07-02_14h29.10.851,5-33,2024.1.4,None,2024-07-02 14h29.15.081022 +0900,
Images/Speaker1.jpg,Images/Speaker2.jpg,Images/Speaker3.jpg,Images/Speaker4.jpg,Audio/Speaker3_Per/P3-7-Per.wav,Speaker3,گوینده۳,0,0,0,3,0,63,63,46,188.74867200000153,,,,,,,,,,,,,,,,,,,,,,,,,,,,,,,,,,,,,,,,,,,188.72627875000035,188.74867200000153,188.74867200000153,188.74867200000153,188.74867200000153,188.74274745866958,188.74867200000153,188.74867200000153,189.01466816700122,Incorrect! The correct answer is Speaker3. نادرست! پاسخ صحیح گوینده۳ است,16,64,1,0.2558077499998035,None,189.0187184170063,189.02929858300195,191.02372679200198,,,,,,217941,001,2024-07-02_14h29.10.851,5-33,2024.1.4,None,2024-07-02 14h29.15.081022 +0900,
Images/Speaker1.jpg,Images/Speaker2.jpg,Images/Speaker3.jpg,Images/Speaker4.jpg,Audio/Speaker2_Per/P2-17-Per.wav,Speaker2,گوینده۲,0,0,0,3,0,64,64,36,191.04745695800375,,,,,,,,,,,,,,,,,,,,,,,,,,,,,,,,,,,,,,,,,,,191.02390712500346,191.04745695800375,191.04745695800375,191.04745695800375,191.04745695800375,191.0570170833385,191.04745695800375,191.04745695800375,191.321046750003,Incorrect! The correct answer is Speaker2. نادرست! پاسخ صحیح گوینده۲ است,16,65,1,0.27174158400157467,None,191.3255457080013,191.33938804200443,193.33272291700268,,,,,,217941,001,2024-07-02_14h29.10.851,5-33,2024.1.4,None,2024-07-02 14h29.15.081022 +0900,
Images/Speaker1.jpg,Images/Speaker2.jpg,Images/Speaker3.jpg,Images/Speaker4.jpg,Audio/Speaker1_Per/P1-19-Per.wav,Speaker1,گوینده ۱,0,0,0,3,0,65,65,18,193.3560096670044,,,,,,,,,,,,,,,,,,,,,,,,,,,,,,,,,,,,,,,,,,,193.33289229200454,193.3560096670044,193.3560096670044,193.3560096670044,193.3560096670044,193.36601783333805,193.3560096670044,193.3560096670044,193.51928208300524,Correct! صحیح است,17,66,1,0.16111258399905637,None,193.52308191700286,193.53428320800595,195.52112812500127,195.54461362500297,,,,,217941,001,2024-07-02_14h29.10.851,5-33,2024.1.4,None,2024-07-02 14h29.15.081022 +0900,
Images/Speaker1.jpg,Images/Speaker2.jpg,Images/Speaker3.jpg,Images/Speaker4.jpg,Audio/Speaker2_Per/P2-13-Per.wav,Speaker2,گوینده۲,0,0,0,3,0,66,66,32,195.54461362500297,,,,,,,,,,,,,,,,,,,,,,,,,,,,,,,,,,,,,,,,,,,195.52130179200321,195.54461362500297,195.54461362500297,195.54461362500297,195.54461362500297,195.55418112533567,195.54461362500297,195.54461362500297,195.62392916700628,Incorrect! The correct answer is Speaker2. نادرست! پاسخ صحیح گوینده۲ است,17,67,1,0.0713054590014508,None,195.6277826670048,195.63792479200492,197.62621791700076,197.64950433299964,,,,,217941,001,2024-07-02_14h29.10.851,5-33,2024.1.4,None,2024-07-02 14h29.15.081022 +0900,
Images/Speaker1.jpg,Images/Speaker2.jpg,Images/Speaker3.jpg,Images/Speaker4.jpg,Audio/Speaker4_Per/P4-7-Per.wav,Speaker4,گوینده۴,0,0,0,3,0,67,67,66,197.64950433299964,,,,,,,,,,,,,,,,,,,,,,,,,,,,,,,,,,,,,,,,,,,197.6263959170028,197.64950433299964,197.64950433299964,197.64950433299964,197.64950433299964,197.65928925034,197.64950433299964,197.64950433299964,197.70977300000231,Incorrect! The correct answer is Speaker4. نادرست! پاسخ صحیح گوینده۴ است,17,68,1,0.055944790998182725,None,197.71402695800498,197.72749079200003,199.71205054200254,199.7341237080036,,,,,217941,001,2024-07-02_14h29.10.851,5-33,2024.1.4,None,2024-07-02 14h29.15.081022 +0900,
Images/Speaker1.jpg,Images/Speaker2.jpg,Images/Speaker3.jpg,Images/Speaker4.jpg,Audio/Speaker2_Per/P2-7-Per.wav,Speaker2,گوینده۲,0,0,0,3,0,68,68,26,199.7341237080036,,,,,,,,,,,,,,,,,,,,,,,,,,,,,,,,,,,,,,,,,,,199.71221108300233,199.7341237080036,199.7341237080036,199.7341237080036,199.7341237080036,199.7284585836717,199.7341237080036,199.7341237080036,199.77056608300336,Incorrect! The correct answer is Speaker2. نادرست! پاسخ صحیح گوینده۲ است,17,69,1,0.025727499996719416,None,199.7743300420043,199.78594858300494,201.77116816700436,201.79849962500157,,,,,217941,001,2024-07-02_14h29.10.851,5-33,2024.1.4,None,2024-07-02 14h29.15.081022 +0900,
Images/Speaker1.jpg,Images/Speaker2.jpg,Images/Speaker3.jpg,Images/Speaker4.jpg,Audio/Speaker4_Per/P4-14-Per.wav,Speaker4,گوینده۴,0,0,0,3,0,69,69,73,201.79849962500157,,,,,,,,,,,,,,,,,,,,,,,,,,,,,,,,,,,,,,,,,,,201.77133325000614,201.79849962500157,201.79849962500157,201.79849962500157,201.79849962500157,201.8043019583352,201.79849962500157,201.79849962500157,201.79914562500198,Incorrect! The correct answer is Speaker4. نادرست! پاسخ صحیح گوینده۴ است,17,70,1,2.0391955000013695,None,201.7996549580057,201.80972412499978,203.80657254200196,,,,,,217941,001,2024-07-02_14h29.10.851,5-33,2024.1.4,None,2024-07-02 14h29.15.081022 +0900,
Images/Speaker1.jpg,Images/Speaker2.jpg,Images/Speaker3.jpg,Images/Speaker4.jpg,Audio/Speaker3_Per/P3-12-Per.wav,Speaker3,گوینده۳,0,0,0,3,0,70,70,51,203.8310405420052,,,,,,,,,,,,,,,,,,,,,,,,,,,,,,,,,,,,,,,,,,,203.80715187500027,203.8310405420052,203.8310405420052,203.8310405420052,203.8310405420052,203.83969666633544,203.8310405420052,203.8310405420052,203.83158858300158,Incorrect! The correct answer is Speaker3. نادرست! پاسخ صحیح گوینده۳ است,17,71,1,1.9705130829970585,None,203.83183412500512,203.8415880829998,205.8305640000035,205.85149737500615,,,,,217941,001,2024-07-02_14h29.10.851,5-33,2024.1.4,None,2024-07-02 14h29.15.081022 +0900,
Images/Speaker1.jpg,Images/Speaker2.jpg,Images/Speaker3.jpg,Images/Speaker4.jpg,Audio/Speaker1_Per/P1-1-Per.wav,Speaker1,گوینده ۱,0,0,0,3,0,71,71,0,205.85149737500615,,,,,,,,,,,,,,,,,,,,,,,,,,,,,,,,,,,,,,,,,,,205.83072233300481,205.85149737500615,205.85149737500615,205.85149737500615,205.85149737500615,205.84698499967297,205.85149737500615,205.85149737500615,205.97470754200185,Correct! صحیح است,18,72,1,0.11902087500493508,None,205.97844754200196,205.98936141700688,207.98078712500137,,,,,,217941,001,2024-07-02_14h29.10.851,5-33,2024.1.4,None,2024-07-02 14h29.15.081022 +0900,
Images/Speaker1.jpg,Images/Speaker2.jpg,Images/Speaker3.jpg,Images/Speaker4.jpg,Audio/Speaker3_Per/P3-17-Per.wav,Speaker3,گوینده۳,0,0,0,3,0,72,72,56,208.00142079200305,,,,,,,,,,,,,,,,,,,,,,,,,,,,,,,,,,,,,,,,,,,207.98097504200268,208.00142079200305,208.00142079200305,208.00142079200305,208.00142079200305,207.99740191667323,208.00142079200305,208.00142079200305,208.00208445800672,Incorrect! The correct answer is Speaker3. نادرست! پاسخ صحیح گوینده۳ است,18,73,1,2.095238458001404,None,208.006267458004,208.01615533300355,210.00521983300132,210.02740250000352,,,,,217941,001,2024-07-02_14h29.10.851,5-33,2024.1.4,None,2024-07-02 14h29.15.081022 +0900,
Images/Speaker1.jpg,Images/Speaker2.jpg,Images/Speaker3.jpg,Images/Speaker4.jpg,Audio/Speaker1_Per/P1-20-Per.wav,Speaker1,گوینده ۱,0,0,0,3,0,73,73,19,210.02740250000352,,,,,,,,,,,,,,,,,,,,,,,,,,,,,,,,,,,,,,,,,,,210.005383583004,210.02740250000352,210.02740250000352,210.02740250000352,210.02740250000352,210.02167212467273,210.02740250000352,210.02740250000352,210.02803983299964,Correct! صحیح است,19,74,1,1.972320499997295,None,210.03190570800507,210.03980916700675,212.0243337080028,212.05055270800221,,,,,217941,001,2024-07-02_14h29.10.851,5-33,2024.1.4,None,2024-07-02 14h29.15.081022 +0900,
Images/Speaker1.jpg,Images/Speaker2.jpg,Images/Speaker3.jpg,Images/Speaker4.jpg,Audio/Speaker3_Per/P3-16-Per.wav,Speaker3,گوینده۳,0,0,0,3,0,74,74,55,212.05055270800221,,,,,,,,,,,,,,,,,,,,,,,,,,,,,,,,,,,,,,,,,,,212.02529312499973,212.05055270800221,212.05055270800221,212.05055270800221,212.05055270800221,212.05659841633366,212.05055270800221,212.05055270800221,212.10460975000024,Incorrect! The correct answer is Speaker3. نادرست! پاسخ صحیح گوینده۳ است,19,75,1,0.046503042001859285,None,212.10882554200361,212.12120766700536,214.10815533300047,214.13203662500018,,,,,217941,001,2024-07-02_14h29.10.851,5-33,2024.1.4,None,2024-07-02 14h29.15.081022 +0900,
Images/Speaker1.jpg,Images/Speaker2.jpg,Images/Speaker3.jpg,Images/Speaker4.jpg,Audio/Speaker1_Per/P1-9-Per.wav,Speaker1,گوینده ۱,0,0,0,3,0,75,75,8,214.13203662500018,,,,,,,,,,,,,,,,,,,,,,,,,,,,,,,,,,,,,,,,,,,214.10834662500565,214.13203662500018,214.13203662500018,214.13203662500018,214.13203662500018,214.14117458333982,214.13203662500018,214.13203662500018,214.15271808300167,Correct! صحیح است,20,76,1,0.016983665998850483,None,214.15697079200618,214.1679314580033,216.15623083300306,216.1811143330051,,,,,217941,001,2024-07-02_14h29.10.851,5-33,2024.1.4,None,2024-07-02 14h29.15.081022 +0900,
Images/Speaker1.jpg,Images/Speaker2.jpg,Images/Speaker3.jpg,Images/Speaker4.jpg,Audio/Speaker2_Per/P2-12-Per.wav,Speaker2,گوینده۲,0,0,0,3,0,76,76,31,216.1811143330051,,,,,,,,,,,,,,,,,,,,,,,,,,,,,,,,,,,,,,,,,,,216.15641245800362,216.1811143330051,216.1811143330051,216.1811143330051,216.1811143330051,216.18922325033833,216.1811143330051,216.1811143330051,216.36988179200125,Incorrect! The correct answer is Speaker2. نادرست! پاسخ صحیح گوینده۲ است,20,77,1,0.1822846249997383,None,216.3742701250012,216.38601220800047,218.37179216700315,218.39693400000397,,,,,217941,001,2024-07-02_14h29.10.851,5-33,2024.1.4,None,2024-07-02 14h29.15.081022 +0900,
Images/Speaker1.jpg,Images/Speaker2.jpg,Images/Speaker3.jpg,Images/Speaker4.jpg,Audio/Speaker2_Per/P2-11-Per.wav,Speaker2,گوینده۲,0,0,0,3,0,77,77,30,218.39693400000397,,,,,,,,,,,,,,,,,,,,,,,,,,,,,,,,,,,,,,,,,,,218.3719612920031,218.39693400000397,218.39693400000397,218.39693400000397,218.39693400000397,218.40492562533524,218.39693400000397,218.39693400000397,218.5483566250041,Incorrect! The correct answer is Speaker2. نادرست! پاسخ صحیح گوینده۲ است,20,78,1,0.1496244169975398,None,218.55252633300552,218.56531795800402,220.55785312500666,,,,,,217941,001,2024-07-02_14h29.10.851,5-33,2024.1.4,None,2024-07-02 14h29.15.081022 +0900,
Images/Speaker1.jpg,Images/Speaker2.jpg,Images/Speaker3.jpg,Images/Speaker4.jpg,Audio/Speaker1_Per/P1-16-Per.wav,Speaker1,گوینده ۱,0,0,0,3,0,78,78,15,220.58389720800187,,,,,,,,,,,,,,,,,,,,,,,,,,,,,,,,,,,,,,,,,,,220.55839587500668,220.58389720800187,220.58389720800187,220.58389720800187,220.58389720800187,220.59103225033374,220.58389720800187,220.58389720800187,220.72648670800118,Correct! صحیح است,21,79,1,0.1396453749985085,None,220.73039400000562,220.74086508300388,222.73239020800247,,,,,,217941,001,2024-07-02_14h29.10.851,5-33,2024.1.4,None,2024-07-02 14h29.15.081022 +0900,
Images/Speaker1.jpg,Images/Speaker2.jpg,Images/Speaker3.jpg,Images/Speaker4.jpg,Audio/Speaker4_Per/P4-13-Per.wav,Speaker4,گوینده۴,0,0,0,3,0,79,79,72,222.75890962500125,,,,,,,,,,,,,,,,,,,,,,,,,,,,,,,,,,,,,,,,,,,222.73299837500235,222.75890962500125,222.75890962500125,222.75890962500125,222.75890962500125,222.76555441633587,222.75890962500125,222.75890962500125,223.07951987500564,Incorrect! The correct answer is Speaker4. نادرست! پاسخ صحیح گوینده۴ است,21,80,1,0.31938754199654795,None,223.0832709170063,223.0963340830058,225.0899261250015,,,,,,217941,001,2024-07-02_14h29.10.851,5-33,2024.1.4,None,2024-07-02 14h29.15.081022 +0900,
Images/Speaker1.jpg,Images/Speaker2.jpg,Images/Speaker3.jpg,Images/Speaker4.jpg,Audio/Speaker1_Per/P1-4-Per.wav,Speaker1,گوینده ۱,0,0,0,3,,,,,,,,,,,,,,,,,,,,,,,,,,,,,,,,,,,,,,,,,,,,,,,,,,,,,,,,,,,,,,,,,,,225.09022437500244,0.0,False,225.09112241700495,217941,001,2024-07-02_14h29.10.851,5-33,2024.1.4,None,2024-07-02 14h29.15.081022 +0900,
Images/Speaker1.jpg,Images/Speaker2.jpg,Images/Speaker3.jpg,Images/Speaker4.jpg,Audio/Speaker2_Per/P2-6-Per.wav,Speaker2,گوینده۲,0,1,1,53,0,0,0,25,225.134983750002,,,,,,,,,,,,,,,,,,,,,,,,,,,,,,,,,,,,,,,,,,,225.11404445800144,225.134983750002,225.134983750002,225.134983750002,225.134983750002,225.1397232500065,225.134983750002,225.134983750002,228.40871362500184,Correct! صحیح است,22,81,2,3.2658205420011654,None,228.4090677080021,228.4180095000047,230.40329787500377,230.42454241700034,,,,,217941,001,2024-07-02_14h29.10.851,5-33,2024.1.4,None,2024-07-02 14h29.15.081022 +0900,
Images/Speaker1.jpg,Images/Speaker2.jpg,Images/Speaker3.jpg,Images/Speaker4.jpg,Audio/Speaker4_Per/P4-3-Per.wav,Speaker4,گوینده۴,0,1,1,53,0,1,1,62,230.42454241700034,,,,,,,,,,,,,,,,,,,,,,,,,,,,,,,,,,,,,,,,,,,230.4036621250052,230.42454241700034,230.42454241700034,230.42454241700034,230.42454241700034,230.4190830416667,230.42454241700034,230.42454241700034,232.23467941700073,Correct! صحیح است,23,82,4,1.8089089170025545,None,232.23890933300572,232.24986779200117,234.23441295800149,234.25472479200107,,,,,217941,001,2024-07-02_14h29.10.851,5-33,2024.1.4,None,2024-07-02 14h29.15.081022 +0900,
Images/Speaker1.jpg,Images/Speaker2.jpg,Images/Speaker3.jpg,Images/Speaker4.jpg,Audio/Speaker2_Per/P2-12-Per.wav,Speaker2,گوینده۲,0,1,1,53,0,2,2,31,234.25472479200107,,,,,,,,,,,,,,,,,,,,,,,,,,,,,,,,,,,,,,,,,,,234.23457733300165,234.25472479200107,234.25472479200107,234.25472479200107,234.25472479200107,234.25086466667224,234.25472479200107,234.25472479200107,235.52193662500213,Correct! صحیح است,24,83,2,1.2662460420033312,None,235.52582970799995,235.5376677920067,237.5287612500033,,,,,,217941,001,2024-07-02_14h29.10.851,5-33,2024.1.4,None,2024-07-02 14h29.15.081022 +0900,
Images/Speaker1.jpg,Images/Speaker2.jpg,Images/Speaker3.jpg,Images/Speaker4.jpg,Audio/Speaker4_Per/P4-20-Per.wav,Speaker4,گوینده۴,0,1,1,53,0,3,3,79,237.54931266700441,,,,,,,,,,,,,,,,,,,,,,,,,,,,,,,,,,,,,,,,,,,237.52893308300554,237.54931266700441,237.54931266700441,237.54931266700441,237.54931266700441,237.54539441666955,237.54931266700441,237.54931266700441,239.21078237500478,Correct! صحیح است,25,84,4,1.6598011660025804,None,239.21491308300028,239.2261533750061,241.216147500003,,,,,,217941,001,2024-07-02_14h29.10.851,5-33,2024.1.4,None,2024-07-02 14h29.15.081022 +0900,
Images/Speaker1.jpg,Images/Speaker2.jpg,Images/Speaker3.jpg,Images/Speaker4.jpg,Audio/Speaker1_Per/P1-5-Per.wav,Speaker1,گوینده ۱,0,1,1,53,0,4,4,4,241.23795775000326,,,,,,,,,,,,,,,,,,,,,,,,,,,,,,,,,,,,,,,,,,,241.21635050000623,241.23795775000326,241.23795775000326,241.23795775000326,241.23795775000326,241.23273420866852,241.23795775000326,241.23795775000326,242.48516641700553,Correct! صحیح است,26,85,1,1.2440064160036854,None,242.4889590830062,242.50016062500072,244.48945579200517,244.51114070800395,,,,,217941,001,2024-07-02_14h29.10.851,5-33,2024.1.4,None,2024-07-02 14h29.15.081022 +0900,
Images/Speaker1.jpg,Images/Speaker2.jpg,Images/Speaker3.jpg,Images/Speaker4.jpg,Audio/Speaker2_Per/P2-17-Per.wav,Speaker2,گوینده۲,0,1,1,53,0,5,5,36,244.51114070800395,,,,,,,,,,,,,,,,,,,,,,,,,,,,,,,,,,,,,,,,,,,244.49000454199995,244.51114070800395,244.51114070800395,244.51114070800395,244.51114070800395,244.50520712467213,244.51114070800395,244.51114070800395,245.53403204200004,Correct! صحیح است,27,86,2,1.0129995000024792,None,245.53804708300595,245.54998216700187,247.53417170800094,247.55514420800318,,,,,217941,001,2024-07-02_14h29.10.851,5-33,2024.1.4,None,2024-07-02 14h29.15.081022 +0900,
Images/Speaker1.jpg,Images/Speaker2.jpg,Images/Speaker3.jpg,Images/Speaker4.jpg,Audio/Speaker4_Per/P4-17-Per.wav,Speaker4,گوینده۴,0,1,1,53,0,6,6,76,247.55514420800318,,,,,,,,,,,,,,,,,,,,,,,,,,,,,,,,,,,,,,,,,,,247.53434512500098,247.55514420800318,247.55514420800318,247.55514420800318,247.55514420800318,247.55060674967197,247.55514420800318,247.55514420800318,248.81952787500632,Correct! صحیح است,28,87,4,1.2609053339983802,None,248.82346920800046,248.83485841700167,250.82418433300336,250.84812416700152,,,,,217941,001,2024-07-02_14h29.10.851,5-33,2024.1.4,None,2024-07-02 14h29.15.081022 +0900,
Images/Speaker1.jpg,Images/Speaker2.jpg,Images/Speaker3.jpg,Images/Speaker4.jpg,Audio/Speaker2_Per/P2-9-Per.wav,Speaker2,گوینده۲,0,1,1,53,0,7,7,28,250.84812416700152,,,,,,,,,,,,,,,,,,,,,,,,,,,,,,,,,,,,,,,,,,,250.82493079200503,250.84812416700152,250.84812416700152,250.84812416700152,250.84812416700152,250.85664454133854,250.84812416700152,250.84812416700152,252.20090529200388,Correct! صحیح است,29,88,2,1.3376757910009474,None,252.20497870800318,252.2181870830027,254.2052089170029,,,,,,217941,001,2024-07-02_14h29.10.851,5-33,2024.1.4,None,2024-07-02 14h29.15.081022 +0900,
Images/Speaker1.jpg,Images/Speaker2.jpg,Images/Speaker3.jpg,Images/Speaker4.jpg,Audio/Speaker4_Per/P4-5-Per.wav,Speaker4,گوینده۴,0,1,1,53,0,8,8,64,254.22909341700142,,,,,,,,,,,,,,,,,,,,,,,,,,,,,,,,,,,,,,,,,,,254.20588962500187,254.22909341700142,254.22909341700142,254.22909341700142,254.22909341700142,254.23837295833852,254.22909341700142,254.22909341700142,255.73213129200303,Correct! صحیح است,30,89,4,1.4998185000004014,None,255.73622529200657,255.7477507500007,257.73503291700035,257.75621000000683,,,,,217941,001,2024-07-02_14h29.10.851,5-33,2024.1.4,None,2024-07-02 14h29.15.081022 +0900,
Images/Speaker1.jpg,Images/Speaker2.jpg,Images/Speaker3.jpg,Images/Speaker4.jpg,Audio/Speaker4_Per/P4-15-Per.wav,Speaker4,گوینده۴,0,1,1,53,0,9,9,74,257.75621000000683,,,,,,,,,,,,,,,,,,,,,,,,,,,,,,,,,,,,,,,,,,,257.73519687500084,257.75621000000683,257.75621000000683,257.75621000000683,257.75621000000683,257.7514412496714,257.75621000000683,257.75621000000683,258.955762125006,Correct! صحیح است,31,90,4,1.190496916999109,None,258.959985583002,258.97227087500505,260.96489912499965,,,,,,217941,001,2024-07-02_14h29.10.851,5-33,2024.1.4,None,2024-07-02 14h29.15.081022 +0900,
Images/Speaker1.jpg,Images/Speaker2.jpg,Images/Speaker3.jpg,Images/Speaker4.jpg,Audio/Speaker3_Per/P3-19-Per.wav,Speaker3,گوینده۳,0,1,1,53,0,10,10,58,260.98595229200146,,,,,,,,,,,,,,,,,,,,,,,,,,,,,,,,,,,,,,,,,,,260.9650837080044,260.98595229200146,260.98595229200146,260.98595229200146,260.98595229200146,260.98152974967184,260.98595229200146,260.98595229200146,262.38970645800146,Correct! صحیح است,32,91,3,1.4026468329975614,None,262.3946379170011,262.4069954170045,264.3914889170046,264.4122695000042,,,,,217941,001,2024-07-02_14h29.10.851,5-33,2024.1.4,None,2024-07-02 14h29.15.081022 +0900,
Images/Speaker1.jpg,Images/Speaker2.jpg,Images/Speaker3.jpg,Images/Speaker4.jpg,Audio/Speaker4_Per/P4-10-Per.wav,Speaker4,گوینده۴,0,1,1,53,0,11,11,69,264.4122695000042,,,,,,,,,,,,,,,,,,,,,,,,,,,,,,,,,,,,,,,,,,,264.3916665420038,264.4122695000042,264.4122695000042,264.4122695000042,264.4122695000042,264.4079213746702,264.4122695000042,264.4122695000042,265.8473672079999,Correct! صحیح است,33,92,4,1.4294762089994038,None,265.8515900420025,265.863124042,267.8462822080037,267.8676544170012,,,,,217941,001,2024-07-02_14h29.10.851,5-33,2024.1.4,None,2024-07-02 14h29.15.081022 +0900,
Images/Speaker1.jpg,Images/Speaker2.jpg,Images/Speaker3.jpg,Images/Speaker4.jpg,Audio/Speaker2_Per/P2-8-Per.wav,Speaker2,گوینده۲,0,1,1,53,0,12,12,27,267.8676544170012,,,,,,,,,,,,,,,,,,,,,,,,,,,,,,,,,,,,,,,,,,,267.8464932920033,267.8676544170012,267.8676544170012,267.8676544170012,267.8676544170012,267.86266137467123,267.8676544170012,267.8676544170012,269.06929029200546,Correct! صحیح است,34,93,2,1.1945436250025523,None,269.07333454200125,269.085077542004,271.07981716700306,,,,,,217941,001,2024-07-02_14h29.10.851,5-33,2024.1.4,None,2024-07-02 14h29.15.081022 +0900,
Images/Speaker1.jpg,Images/Speaker2.jpg,Images/Speaker3.jpg,Images/Speaker4.jpg,Audio/Speaker3_Per/P3-16-Per.wav,Speaker3,گوینده۳,0,1,1,53,0,13,13,55,271.100321542006,,,,,,,,,,,,,,,,,,,,,,,,,,,,,,,,,,,,,,,,,,,271.07997866700316,271.100321542006,271.100321542006,271.100321542006,271.100321542006,271.09644754167334,271.100321542006,271.100321542006,273.09967183300614,Correct! صحیح است,35,94,3,1.997103417001199,None,273.10351900000387,273.11509125000157,275.1072535830026,,,,,,217941,001,2024-07-02_14h29.10.851,5-33,2024.1.4,None,2024-07-02 14h29.15.081022 +0900,
Images/Speaker1.jpg,Images/Speaker2.jpg,Images/Speaker3.jpg,Images/Speaker4.jpg,Audio/Speaker1_Per/P1-8-Per.wav,Speaker1,گوینده ۱,0,1,1,53,0,14,14,7,275.13170925000304,,,,,,,,,,,,,,,,,,,,,,,,,,,,,,,,,,,,,,,,,,,275.10781666700495,275.13170925000304,275.13170925000304,275.13170925000304,275.13170925000304,275.14042808333807,275.13170925000304,275.13170925000304,276.2928002080007,Incorrect! The correct answer is Speaker1. نادرست! پاسخ صحیح گوینده ۱ است,35,95,3,1.1597725000028731,None,276.2969548330002,276.3115472500067,278.29724575,278.32017841700144,,,,,217941,001,2024-07-02_14h29.10.851,5-33,2024.1.4,None,2024-07-02 14h29.15.081022 +0900,
Images/Speaker1.jpg,Images/Speaker2.jpg,Images/Speaker3.jpg,Images/Speaker4.jpg,Audio/Speaker3_Per/P3-20-Per.wav,Speaker3,گوینده۳,0,1,1,53,0,15,15,59,278.32017841700144,,,,,,,,,,,,,,,,,,,,,,,,,,,,,,,,,,,,,,,,,,,278.2977432080006,278.32017841700144,278.32017841700144,278.32017841700144,278.32017841700144,278.33010704133676,278.32017841700144,278.32017841700144,280.10645420800574,Correct! صحیح است,36,96,3,1.7815249159975792,None,280.1110697080003,280.12419545800367,282.11151841700485,,,,,,217941,001,2024-07-02_14h29.10.851,5-33,2024.1.4,None,2024-07-02 14h29.15.081022 +0900,
Images/Speaker1.jpg,Images/Speaker2.jpg,Images/Speaker3.jpg,Images/Speaker4.jpg,Audio/Speaker1_Per/P1-11-Per.wav,Speaker1,گوینده ۱,0,1,1,53,0,16,16,10,282.13357529200584,,,,,,,,,,,,,,,,,,,,,,,,,,,,,,,,,,,,,,,,,,,282.1117164170064,282.13357529200584,282.13357529200584,282.13357529200584,282.13357529200584,282.12813058367124,282.13357529200584,282.13357529200584,283.3078784580066,Correct! صحیح است,37,97,1,1.1634462910005823,None,283.3116766670064,283.3229922080063,285.313440542006,,,,,,217941,001,2024-07-02_14h29.10.851,5-33,2024.1.4,None,2024-07-02 14h29.15.081022 +0900,
Images/Speaker1.jpg,Images/Speaker2.jpg,Images/Speaker3.jpg,Images/Speaker4.jpg,Audio/Speaker1_Per/P1-16-Per.wav,Speaker1,گوینده ۱,0,1,1,53,0,17,17,15,285.3355241669997,,,,,,,,,,,,,,,,,,,,,,,,,,,,,,,,,,,,,,,,,,,285.31360304200643,285.3355241669997,285.3355241669997,285.3355241669997,285.3355241669997,285.33007195867344,285.3355241669997,285.3355241669997,287.12125629200455,Correct! صحیح است,38,98,1,1.784538749998319,None,287.1251352920008,287.137092500001,289.12439987499965,289.14776329200686,,,,,217941,001,2024-07-02_14h29.10.851,5-33,2024.1.4,None,2024-07-02 14h29.15.081022 +0900,
Images/Speaker1.jpg,Images/Speaker2.jpg,Images/Speaker3.jpg,Images/Speaker4.jpg,Audio/Speaker1_Per/P1-12-Per.wav,Speaker1,گوینده ۱,0,1,1,53,0,18,18,11,289.14776329200686,,,,,,,,,,,,,,,,,,,,,,,,,,,,,,,,,,,,,,,,,,,289.1252170420048,289.14776329200686,289.14776329200686,289.14776329200686,289.14776329200686,289.156822583333,289.14776329200686,289.14776329200686,290.3574628330025,Correct! صحیح است,39,99,1,1.2024390829974436,None,290.3617045420033,290.370115083002,292.35814937500254,292.378589042004,,,,,217941,001,2024-07-02_14h29.10.851,5-33,2024.1.4,None,2024-07-02 14h29.15.081022 +0900,
Images/Speaker1.jpg,Images/Speaker2.jpg,Images/Speaker3.jpg,Images/Speaker4.jpg,Audio/Speaker2_Per/P2-10-Per.wav,Speaker2,گوینده۲,0,1,1,53,0,19,19,29,292.378589042004,,,,,,,,,,,,,,,,,,,,,,,,,,,,,,,,,,,,,,,,,,,292.35831433300336,292.378589042004,292.378589042004,292.378589042004,292.378589042004,292.37448587466884,292.378589042004,292.378589042004,293.3423546670019,Correct! صحیح است,40,100,2,0.9529364589980105,None,293.3460921670048,293.35704695800086,295.3427828330023,295.36480320800183,,,,,217941,001,2024-07-02_14h29.10.851,5-33,2024.1.4,None,2024-07-02 14h29.15.081022 +0900,
Images/Speaker1.jpg,Images/Speaker2.jpg,Images/Speaker3.jpg,Images/Speaker4.jpg,Audio/Speaker2_Per/P2-18-Per.wav,Speaker2,گوینده۲,0,1,1,53,0,20,20,37,295.36480320800183,,,,,,,,,,,,,,,,,,,,,,,,,,,,,,,,,,,,,,,,,,,295.3429748330018,295.36480320800183,295.36480320800183,295.36480320800183,295.36480320800183,295.35920341666883,295.36480320800183,295.36480320800183,297.58488591700007,Correct! صحیح است,41,101,2,2.218691916001262,None,297.58923504200357,297.60053658300603,299.58518825000647,299.6077540000042,,,,,217941,001,2024-07-02_14h29.10.851,5-33,2024.1.4,None,2024-07-02 14h29.15.081022 +0900,
Images/Speaker1.jpg,Images/Speaker2.jpg,Images/Speaker3.jpg,Images/Speaker4.jpg,Audio/Speaker1_Per/P1-17-Per.wav,Speaker1,گوینده ۱,0,1,1,53,0,21,21,16,299.6077540000042,,,,,,,,,,,,,,,,,,,,,,,,,,,,,,,,,,,,,,,,,,,299.5853902500021,299.6077540000042,299.6077540000042,299.6077540000042,299.6077540000042,299.6016048746717,299.6077540000042,299.6077540000042,300.64665262500057,Correct! صحیح است,42,102,1,1.0307417500007432,None,300.6514412080069,300.6647090000042,302.649735125,302.6713638750007,,,,,217941,001,2024-07-02_14h29.10.851,5-33,2024.1.4,None,2024-07-02 14h29.15.081022 +0900,
Images/Speaker1.jpg,Images/Speaker2.jpg,Images/Speaker3.jpg,Images/Speaker4.jpg,Audio/Speaker4_Per/P4-11-Per.wav,Speaker4,گوینده۴,0,1,1,53,0,22,22,70,302.6713638750007,,,,,,,,,,,,,,,,,,,,,,,,,,,,,,,,,,,,,,,,,,,302.64990716700413,302.6713638750007,302.6713638750007,302.6713638750007,302.6713638750007,302.6661565836732,302.6713638750007,302.6713638750007,304.1746972500041,Correct! صحیح است,43,103,4,1.4936915830039652,None,304.17869479200453,304.18831875000615,306.1795280830047,,,,,,217941,001,2024-07-02_14h29.10.851,5-33,2024.1.4,None,2024-07-02 14h29.15.081022 +0900,
Images/Speaker1.jpg,Images/Speaker2.jpg,Images/Speaker3.jpg,Images/Speaker4.jpg,Audio/Speaker4_Per/P4-14-Per.wav,Speaker4,گوینده۴,0,1,1,53,0,23,23,73,306.20144695800263,,,,,,,,,,,,,,,,,,,,,,,,,,,,,,,,,,,,,,,,,,,306.17972362500586,306.20144695800263,306.20144695800263,306.20144695800263,306.20144695800263,306.19616291667285,306.20144695800263,306.20144695800263,307.70664266700624,Correct! صحیح است,44,104,4,1.4969343749980908,None,307.71055508300196,307.72193533300015,309.71306933300366,,,,,,217941,001,2024-07-02_14h29.10.851,5-33,2024.1.4,None,2024-07-02 14h29.15.081022 +0900,
Images/Speaker1.jpg,Images/Speaker2.jpg,Images/Speaker3.jpg,Images/Speaker4.jpg,Audio/Speaker1_Per/P1-7-Per.wav,Speaker1,گوینده ۱,0,1,1,53,0,24,24,6,309.73374554200564,,,,,,,,,,,,,,,,,,,,,,,,,,,,,,,,,,,,,,,,,,,309.71324783300224,309.73374554200564,309.73374554200564,309.73374554200564,309.73374554200564,309.72969920866694,309.73374554200564,309.73374554200564,310.95169287500175,Correct! صحیح است,45,105,1,1.2166519590027747,None,310.9558542500017,310.9670912920046,312.95610250000027,312.981456542002,,,,,217941,001,2024-07-02_14h29.10.851,5-33,2024.1.4,None,2024-07-02 14h29.15.081022 +0900,
Images/Speaker1.jpg,Images/Speaker2.jpg,Images/Speaker3.jpg,Images/Speaker4.jpg,Audio/Speaker1_Per/P1-1-Per.wav,Speaker1,گوینده ۱,0,1,1,53,0,25,25,0,312.981456542002,,,,,,,,,,,,,,,,,,,,,,,,,,,,,,,,,,,,,,,,,,,312.95673908300523,312.981456542002,312.981456542002,312.981456542002,312.981456542002,312.98844195834,312.981456542002,312.981456542002,314.21817762499995,Correct! صحیح است,46,106,1,1.231736459005333,None,314.222451833004,314.23365387500235,316.21693537500687,316.23916345800535,,,,,217941,001,2024-07-02_14h29.10.851,5-33,2024.1.4,None,2024-07-02 14h29.15.081022 +0900,
Images/Speaker1.jpg,Images/Speaker2.jpg,Images/Speaker3.jpg,Images/Speaker4.jpg,Audio/Speaker3_Per/P3-14-Per.wav,Speaker3,گوینده۳,0,1,1,53,0,26,26,53,316.23916345800535,,,,,,,,,,,,,,,,,,,,,,,,,,,,,,,,,,,,,,,,,,,316.2170909580018,316.23916345800535,316.23916345800535,316.23916345800535,316.23916345800535,316.233390666672,316.23916345800535,316.23916345800535,318.8138080420031,Correct! صحیح است,47,107,3,2.567868375001126,None,318.81778316700365,318.8288942500003,320.8234811670045,,,,,,217941,001,2024-07-02_14h29.10.851,5-33,2024.1.4,None,2024-07-02 14h29.15.081022 +0900,
Images/Speaker1.jpg,Images/Speaker2.jpg,Images/Speaker3.jpg,Images/Speaker4.jpg,Audio/Speaker3_Per/P3-18-Per.wav,Speaker3,گوینده۳,0,1,1,53,0,27,27,57,320.84484329200495,,,,,,,,,,,,,,,,,,,,,,,,,,,,,,,,,,,,,,,,,,,320.82409716700204,320.84484329200495,320.84484329200495,320.84484329200495,320.84484329200495,320.8399416246723,320.84484329200495,320.84484329200495,323.07912437500636,Correct! صحیح است,48,108,3,2.224945249996381,None,323.08338675000414,323.0962586670066,325.0841564170041,,,,,,217941,001,2024-07-02_14h29.10.851,5-33,2024.1.4,None,2024-07-02 14h29.15.081022 +0900,
Images/Speaker1.jpg,Images/Speaker2.jpg,Images/Speaker3.jpg,Images/Speaker4.jpg,Audio/Speaker4_Per/P4-9-Per.wav,Speaker4,گوینده۴,0,1,1,53,0,28,28,68,325.10902983300184,,,,,,,,,,,,,,,,,,,,,,,,,,,,,,,,,,,,,,,,,,,325.08484725000017,325.10902983300184,325.10902983300184,325.10902983300184,325.10902983300184,325.11733308333396,325.10902983300184,325.10902983300184,326.3937035420022,Correct! صحیح است,49,109,4,1.2814287500004866,None,326.39750595800433,326.40876529200614,328.3947668750043,328.41994700000214,,,,,217941,001,2024-07-02_14h29.10.851,5-33,2024.1.4,None,2024-07-02 14h29.15.081022 +0900,
Images/Speaker1.jpg,Images/Speaker2.jpg,Images/Speaker3.jpg,Images/Speaker4.jpg,Audio/Speaker1_Per/P1-4-Per.wav,Speaker1,گوینده ۱,0,1,1,53,0,29,29,3,328.41994700000214,,,,,,,,,,,,,,,,,,,,,,,,,,,,,,,,,,,,,,,,,,,328.3956887920067,328.41994700000214,328.41994700000214,328.41994700000214,328.41994700000214,328.4269223333399,328.41994700000214,328.41994700000214,329.9553530830017,Correct! صحیح است,50,110,1,1.5341622919950169,None,329.95913075000135,329.97056091700506,331.9647751250013,,,,,,217941,001,2024-07-02_14h29.10.851,5-33,2024.1.4,None,2024-07-02 14h29.15.081022 +0900,
Images/Speaker1.jpg,Images/Speaker2.jpg,Images/Speaker3.jpg,Images/Speaker4.jpg,Audio/Speaker3_Per/P3-7-Per.wav,Speaker3,گوینده۳,0,1,1,53,0,30,30,46,331.9883275000029,,,,,,,,,,,,,,,,,,,,,,,,,,,,,,,,,,,,,,,,,,,331.965410542005,331.9883275000029,331.9883275000029,331.9883275000029,331.9883275000029,331.99790287533733,331.9883275000029,331.9883275000029,333.61587775000226,Correct! صحیح است,51,111,3,1.620671124997898,None,333.619760667003,333.63118820800446,335.6172752920029,335.6380216250036,,,,,217941,001,2024-07-02_14h29.10.851,5-33,2024.1.4,None,2024-07-02 14h29.15.081022 +0900,
Images/Speaker1.jpg,Images/Speaker2.jpg,Images/Speaker3.jpg,Images/Speaker4.jpg,Audio/Speaker2_Per/P2-7-Per.wav,Speaker2,گوینده۲,0,1,1,53,0,31,31,26,335.6380216250036,,,,,,,,,,,,,,,,,,,,,,,,,,,,,,,,,,,,,,,,,,,335.6174602080064,335.6380216250036,335.6380216250036,335.6380216250036,335.6380216250036,335.6337171246671,335.6380216250036,335.6380216250036,337.020906167003,Correct! صحیح است,52,112,2,1.378682916998514,None,337.02497500000027,337.0372215830066,339.03310020800564,,,,,,217941,001,2024-07-02_14h29.10.851,5-33,2024.1.4,None,2024-07-02 14h29.15.081022 +0900,
Images/Speaker1.jpg,Images/Speaker2.jpg,Images/Speaker3.jpg,Images/Speaker4.jpg,Audio/Speaker2_Per/P2-14-Per.wav,Speaker2,گوینده۲,0,1,1,53,0,32,32,33,339.0584170000002,,,,,,,,,,,,,,,,,,,,,,,,,,,,,,,,,,,,,,,,,,,339.03366795800684,339.0584170000002,339.0584170000002,339.0584170000002,339.0584170000002,339.06627595833606,339.0584170000002,339.0584170000002,340.71889000000374,Correct! صحیح است,53,113,2,1.6554023330027121,None,340.72318745800294,340.7350047920045,342.7181356250003,342.7400014580053,,,,,217941,001,2024-07-02_14h29.10.851,5-33,2024.1.4,None,2024-07-02 14h29.15.081022 +0900,
Images/Speaker1.jpg,Images/Speaker2.jpg,Images/Speaker3.jpg,Images/Speaker4.jpg,Audio/Speaker1_Per/P1-6-Per.wav,Speaker1,گوینده ۱,0,1,1,53,0,33,33,5,342.7400014580053,,,,,,,,,,,,,,,,,,,,,,,,,,,,,,,,,,,,,,,,,,,342.71833325000625,342.7400014580053,342.7400014580053,342.7400014580053,342.7400014580053,342.7344478746711,342.7400014580053,342.7400014580053,343.88891766700544,Correct! صحیح است,54,114,1,1.1476871670020046,None,343.89291075000074,343.90435887500644,345.89709500000026,,,,,,217941,001,2024-07-02_14h29.10.851,5-33,2024.1.4,None,2024-07-02 14h29.15.081022 +0900,
Images/Speaker1.jpg,Images/Speaker2.jpg,Images/Speaker3.jpg,Images/Speaker4.jpg,Audio/Speaker4_Per/P4-16-Per.wav,Speaker4,گوینده۴,0,1,1,53,0,34,34,75,345.9182764580037,,,,,,,,,,,,,,,,,,,,,,,,,,,,,,,,,,,,,,,,,,,345.89727495800616,345.9182764580037,345.9182764580037,345.9182764580037,345.9182764580037,345.9137277086668,345.9182764580037,345.9182764580037,347.62186195800314,Correct! صحیح است,55,115,4,1.694206000000122,None,347.62605304200406,347.6372372920014,349.629913458004,,,,,,217941,001,2024-07-02_14h29.10.851,5-33,2024.1.4,None,2024-07-02 14h29.15.081022 +0900,
Images/Speaker1.jpg,Images/Speaker2.jpg,Images/Speaker3.jpg,Images/Speaker4.jpg,Audio/Speaker4_Per/P4-19-Per.wav,Speaker4,گوینده۴,0,1,1,53,0,35,35,78,349.651583208004,,,,,,,,,,,,,,,,,,,,,,,,,,,,,,,,,,,,,,,,,,,349.6300822080011,349.651583208004,349.651583208004,349.651583208004,349.651583208004,349.64654349966827,349.651583208004,349.651583208004,351.04774583300605,Correct! صحیح است,56,116,4,1.393000749994826,None,351.05166820800514,351.0642337080062,353.056996875006,,,,,,217941,001,2024-07-02_14h29.10.851,5-33,2024.1.4,None,2024-07-02 14h29.15.081022 +0900,
Images/Speaker1.jpg,Images/Speaker2.jpg,Images/Speaker3.jpg,Images/Speaker4.jpg,Audio/Speaker1_Per/P1-3-Per.wav,Speaker1,گوینده ۱,0,1,1,53,0,36,36,2,353.0801800420013,,,,,,,,,,,,,,,,,,,,,,,,,,,,,,,,,,,,,,,,,,,353.0576327920062,353.0801800420013,353.0801800420013,353.0801800420013,353.0801800420013,353.0901147503396,353.0801800420013,353.0801800420013,354.62344600000506,Correct! صحیح است,57,117,1,1.5332188329994096,None,354.6273471670065,354.6384799580046,356.63265825000417,,,,,,217941,001,2024-07-02_14h29.10.851,5-33,2024.1.4,None,2024-07-02 14h29.15.081022 +0900,
Images/Speaker1.jpg,Images/Speaker2.jpg,Images/Speaker3.jpg,Images/Speaker4.jpg,Audio/Speaker1_Per/P1-19-Per.wav,Speaker1,گوینده ۱,0,1,1,53,0,37,37,18,356.6575690000027,,,,,,,,,,,,,,,,,,,,,,,,,,,,,,,,,,,,,,,,,,,356.6332485830062,356.6575690000027,356.6575690000027,356.6575690000027,356.6575690000027,356.6658207913356,356.6575690000027,356.6575690000027,357.9248542080022,Correct! صحیح است,58,118,1,1.2575568329993985,None,357.92862766700273,357.93838808300643,359.9271444170008,359.951434583003,,,,,217941,001,2024-07-02_14h29.10.851,5-33,2024.1.4,None,2024-07-02 14h29.15.081022 +0900,
Images/Speaker1.jpg,Images/Speaker2.jpg,Images/Speaker3.jpg,Images/Speaker4.jpg,Audio/Speaker3_Per/P3-3-Per.wav,Speaker3,گوینده۳,0,1,1,53,0,38,38,42,359.951434583003,,,,,,,,,,,,,,,,,,,,,,,,,,,,,,,,,,,,,,,,,,,359.92816595800105,359.951434583003,359.951434583003,359.951434583003,359.951434583003,359.9592400003389,359.951434583003,359.951434583003,361.65428500000417,Correct! صحیح است,59,119,3,1.7002125419967342,None,361.6585779580055,361.67008012500446,363.66237020800327,,,,,,217941,001,2024-07-02_14h29.10.851,5-33,2024.1.4,None,2024-07-02 14h29.15.081022 +0900,
Images/Speaker1.jpg,Images/Speaker2.jpg,Images/Speaker3.jpg,Images/Speaker4.jpg,Audio/Speaker3_Per/P3-1-Per.wav,Speaker3,گوینده۳,0,1,1,53,0,39,39,40,363.6837587500049,,,,,,,,,,,,,,,,,,,,,,,,,,,,,,,,,,,,,,,,,,,363.6625320000021,363.6837587500049,363.6837587500049,363.6837587500049,363.6837587500049,363.67900579166985,363.6837587500049,363.6837587500049,365.2311518750066,Correct! صحیح است,60,120,3,1.5380392919978476,None,365.23567891700077,365.24890316700476,367.24093237500347,,,,,,217941,001,2024-07-02_14h29.10.851,5-33,2024.1.4,None,2024-07-02 14h29.15.081022 +0900,
Images/Speaker1.jpg,Images/Speaker2.jpg,Images/Speaker3.jpg,Images/Speaker4.jpg,Audio/Speaker2_Per/P2-3-Per.wav,Speaker2,گوینده۲,0,1,1,53,0,40,40,22,367.26186425000196,,,,,,,,,,,,,,,,,,,,,,,,,,,,,,,,,,,,,,,,,,,367.2410973750011,367.26186425000196,367.26186425000196,367.26186425000196,367.26186425000196,367.25755683367265,367.26186425000196,367.26186425000196,370.1849947080045,Correct! صحیح است,61,121,2,2.920880790996307,None,370.1852087080042,370.1963756250043,372.18219595800474,372.2028009170026,,,,,217941,001,2024-07-02_14h29.10.851,5-33,2024.1.4,None,2024-07-02 14h29.15.081022 +0900,
Images/Speaker1.jpg,Images/Speaker2.jpg,Images/Speaker3.jpg,Images/Speaker4.jpg,Audio/Speaker1_Per/P1-18-Per.wav,Speaker1,گوینده ۱,0,1,1,53,0,41,41,17,372.2028009170026,,,,,,,,,,,,,,,,,,,,,,,,,,,,,,,,,,,,,,,,,,,372.1823869170039,372.2028009170026,372.2028009170026,372.2028009170026,372.2028009170026,372.19852883366934,372.2028009170026,372.2028009170026,373.4313176249998,Correct! صحیح است,62,122,1,1.2156002919946332,None,373.4362280830028,373.4489255830049,375.4333802500041,375.4556990830024,,,,,217941,001,2024-07-02_14h29.10.851,5-33,2024.1.4,None,2024-07-02 14h29.15.081022 +0900,
Images/Speaker1.jpg,Images/Speaker2.jpg,Images/Speaker3.jpg,Images/Speaker4.jpg,Audio/Speaker1_Per/P1-20-Per.wav,Speaker1,گوینده ۱,0,1,1,53,0,42,42,19,375.4556990830024,,,,,,,,,,,,,,,,,,,,,,,,,,,,,,,,,,,,,,,,,,,375.4343020830056,375.4556990830024,375.4556990830024,375.4556990830024,375.4556990830024,375.46579333333693,375.4556990830024,375.4556990830024,376.94609525000124,Correct! صحیح است,63,123,1,1.4821790420028265,None,376.95031287500024,376.96187083300174,378.9471595000068,378.9668615000046,,,,,217941,001,2024-07-02_14h29.10.851,5-33,2024.1.4,None,2024-07-02 14h29.15.081022 +0900,
Images/Speaker1.jpg,Images/Speaker2.jpg,Images/Speaker3.jpg,Images/Speaker4.jpg,Audio/Speaker3_Per/P3-17-Per.wav,Speaker3,گوینده۳,0,1,1,53,0,43,43,56,378.9668615000046,,,,,,,,,,,,,,,,,,,,,,,,,,,,,,,,,,,,,,,,,,,378.9473277920042,378.9668615000046,378.9668615000046,378.9668615000046,378.9668615000046,378.9635604996695,378.9668615000046,378.9668615000046,380.8878379170055,Correct! صحیح است,64,124,3,1.919255708999117,None,380.8928265830036,380.9039987080032,382.88935325000057,382.9120400419997,,,,,217941,001,2024-07-02_14h29.10.851,5-33,2024.1.4,None,2024-07-02 14h29.15.081022 +0900,
Images/Speaker1.jpg,Images/Speaker2.jpg,Images/Speaker3.jpg,Images/Speaker4.jpg,Audio/Speaker4_Per/P4-13-Per.wav,Speaker4,گوینده۴,0,1,1,53,0,44,44,72,382.9120400419997,,,,,,,,,,,,,,,,,,,,,,,,,,,,,,,,,,,,,,,,,,,382.890018625003,382.9120400419997,382.9120400419997,382.9120400419997,382.9120400419997,382.921635208339,382.9120400419997,382.9120400419997,384.5537353330001,Correct! صحیح است,65,125,4,1.6368010000005597,None,384.55793000000267,384.56970308300515,386.566490833,,,,,,217941,001,2024-07-02_14h29.10.851,5-33,2024.1.4,None,2024-07-02 14h29.15.081022 +0900,
Images/Speaker1.jpg,Images/Speaker2.jpg,Images/Speaker3.jpg,Images/Speaker4.jpg,Audio/Speaker4_Per/P4-7-Per.wav,Speaker4,گوینده۴,0,1,1,53,0,45,45,66,386.59118091700657,,,,,,,,,,,,,,,,,,,,,,,,,,,,,,,,,,,,,,,,,,,386.56713508300163,386.59118091700657,386.59118091700657,386.59118091700657,386.59118091700657,386.5996495833392,386.59118091700657,386.59118091700657,388.055014125006,Correct! صحیح است,66,126,4,1.456260040999041,None,388.0590672920007,388.0679201250023,390.05053025000234,390.0720604580056,,,,,217941,001,2024-07-02_14h29.10.851,5-33,2024.1.4,None,2024-07-02 14h29.15.081022 +0900,
Images/Speaker1.jpg,Images/Speaker2.jpg,Images/Speaker3.jpg,Images/Speaker4.jpg,Audio/Speaker3_Per/P3-5-Per.wav,Speaker3,گوینده۳,0,1,1,53,0,46,46,44,390.0720604580056,,,,,,,,,,,,,,,,,,,,,,,,,,,,,,,,,,,,,,,,,,,390.0507014579998,390.0720604580056,390.0720604580056,390.0720604580056,390.0720604580056,390.0669694996725,390.0720604580056,390.0720604580056,392.14683504200366,Correct! صحیح است,67,127,3,2.0693408750012168,None,392.15099162499973,392.1632300830024,394.14723895800125,394.170553750002,,,,,217941,001,2024-07-02_14h29.10.851,5-33,2024.1.4,None,2024-07-02 14h29.15.081022 +0900,
Images/Speaker1.jpg,Images/Speaker2.jpg,Images/Speaker3.jpg,Images/Speaker4.jpg,Audio/Speaker3_Per/P3-15-Per.wav,Speaker3,گوینده۳,0,1,1,53,0,47,47,54,394.170553750002,,,,,,,,,,,,,,,,,,,,,,,,,,,,,,,,,,,,,,,,,,,394.14818787500553,394.170553750002,394.170553750002,394.170553750002,394.170553750002,394.1797422083332,394.170553750002,394.170553750002,395.6636955000067,Correct! صحیح است,68,128,3,1.486164624999219,None,395.6678696250019,395.6797167920013,397.67415950000577,,,,,,217941,001,2024-07-02_14h29.10.851,5-33,2024.1.4,None,2024-07-02 14h29.15.081022 +0900,
Images/Speaker1.jpg,Images/Speaker2.jpg,Images/Speaker3.jpg,Images/Speaker4.jpg,Audio/Speaker2_Per/P2-1-Per.wav,Speaker2,گوینده۲,0,1,1,53,0,48,48,20,397.70015324999986,,,,,,,,,,,,,,,,,,,,,,,,,,,,,,,,,,,,,,,,,,,397.67482154200115,397.70015324999986,397.70015324999986,397.70015324999986,397.70015324999986,397.707304583339,397.70015324999986,397.70015324999986,399.7883408750058,Correct! صحیح است,69,129,2,2.0794171250017826,None,399.7931439170061,399.8061980000057,401.79797641700134,,,,,,217941,001,2024-07-02_14h29.10.851,5-33,2024.1.4,None,2024-07-02 14h29.15.081022 +0900,
Images/Speaker1.jpg,Images/Speaker2.jpg,Images/Speaker3.jpg,Images/Speaker4.jpg,Audio/Speaker1_Per/P1-10-Per.wav,Speaker1,گوینده ۱,0,1,1,53,0,49,49,9,401.8214377500044,,,,,,,,,,,,,,,,,,,,,,,,,,,,,,,,,,,,,,,,,,,401.7986729580007,401.8214377500044,401.8214377500044,401.8214377500044,401.8214377500044,401.83112325033335,401.8214377500044,401.8214377500044,403.08368625,Correct! صحیح است,70,130,1,1.2572493749976275,None,403.0878781250067,403.098696167006,405.0844846250038,405.10639366700343,,,,,217941,001,2024-07-02_14h29.10.851,5-33,2024.1.4,None,2024-07-02 14h29.15.081022 +0900,
Images/Speaker1.jpg,Images/Speaker2.jpg,Images/Speaker3.jpg,Images/Speaker4.jpg,Audio/Speaker4_Per/P4-4-Per.wav,Speaker4,گوینده۴,0,1,1,53,0,50,50,63,405.10639366700343,,,,,,,,,,,,,,,,,,,,,,,,,,,,,,,,,,,,,,,,,,,405.0846867080036,405.10639366700343,405.10639366700343,405.10639366700343,405.10639366700343,405.10085279166765,405.10639366700343,405.10639366700343,407.0512705000001,Correct! صحیح است,71,131,4,1.933200957995723,None,407.0551198750036,407.0683485000045,409.06193904200336,,,,,,217941,001,2024-07-02_14h29.10.851,5-33,2024.1.4,None,2024-07-02 14h29.15.081022 +0900,
Images/Speaker1.jpg,Images/Speaker2.jpg,Images/Speaker3.jpg,Images/Speaker4.jpg,Audio/Speaker2_Per/P2-4-Per.wav,Speaker2,گوینده۲,0,1,1,53,0,51,51,23,409.0827167500029,,,,,,,,,,,,,,,,,,,,,,,,,,,,,,,,,,,,,,,,,,,409.0620987920047,409.0827167500029,409.0827167500029,409.0827167500029,409.0827167500029,409.0785700416711,409.0827167500029,409.0827167500029,410.2290565420044,Correct! صحیح است,72,132,2,1.1447531250014435,None,410.2329260830011,410.2438922500005,412.2379625419999,,,,,,217941,001,2024-07-02_14h29.10.851,5-33,2024.1.4,None,2024-07-02 14h29.15.081022 +0900,
Images/Speaker1.jpg,Images/Speaker2.jpg,Images/Speaker3.jpg,Images/Speaker4.jpg,Audio/Speaker3_Per/P3-4-Per.wav,Speaker3,گوینده۳,0,1,1,53,0,52,52,43,412.2621309580063,,,,,,,,,,,,,,,,,,,,,,,,,,,,,,,,,,,,,,,,,,,412.2385375830054,412.2621309580063,412.2621309580063,412.2621309580063,412.2621309580063,412.2711269163342,412.2621309580063,412.2621309580063,413.79572537500644,Correct! صحیح است,73,133,3,1.5287552919980953,None,413.79964250000194,413.8106154170018,415.79977604200394,415.8236390420061,,,,,217941,001,2024-07-02_14h29.10.851,5-33,2024.1.4,None,2024-07-02 14h29.15.081022 +0900,
Images/Speaker1.jpg,Images/Speaker2.jpg,Images/Speaker3.jpg,Images/Speaker4.jpg,Audio/Speaker3_Per/P3-11-Per.wav,Speaker3,گوینده۳,0,1,1,53,0,53,53,50,415.8236390420061,,,,,,,,,,,,,,,,,,,,,,,,,,,,,,,,,,,,,,,,,,,415.8006774170062,415.8236390420061,415.8236390420061,415.8236390420061,415.8236390420061,415.8321410003341,415.8236390420061,415.8236390420061,417.8262173330004,Correct! صحیح است,74,134,3,1.9976157499986584,None,417.8304615830057,417.8416169580014,419.8307877920015,,,,,,217941,001,2024-07-02_14h29.10.851,5-33,2024.1.4,None,2024-07-02 14h29.15.081022 +0900,
Images/Speaker1.jpg,Images/Speaker2.jpg,Images/Speaker3.jpg,Images/Speaker4.jpg,Audio/Speaker2_Per/P2-16-Per.wav,Speaker2,گوینده۲,0,1,1,53,0,54,54,35,419.8529243330049,,,,,,,,,,,,,,,,,,,,,,,,,,,,,,,,,,,,,,,,,,,419.8314032920025,419.8529243330049,419.8529243330049,419.8529243330049,419.8529243330049,419.84728137466686,419.8529243330049,419.8529243330049,421.185002875005,Correct! صحیح است,75,135,2,1.3233872089986107,None,421.1892238750006,421.19755004200124,423.19089212499966,,,,,,217941,001,2024-07-02_14h29.10.851,5-33,2024.1.4,None,2024-07-02 14h29.15.081022 +0900,
Images/Speaker1.jpg,Images/Speaker2.jpg,Images/Speaker3.jpg,Images/Speaker4.jpg,Audio/Speaker4_Per/P4-8-Per.wav,Speaker4,گوینده۴,0,1,1,53,0,55,55,67,423.21574483300355,,,,,,,,,,,,,,,,,,,,,,,,,,,,,,,,,,,,,,,,,,,423.1915095830045,423.21574483300355,423.21574483300355,423.21574483300355,423.21574483300355,423.2240584163378,423.21574483300355,423.21574483300355,424.6713330420025,Correct! صحیح است,76,136,4,1.447083457998815,None,424.67549183300434,424.68638720800664,426.681608333005,,,,,,217941,001,2024-07-02_14h29.10.851,5-33,2024.1.4,None,2024-07-02 14h29.15.081022 +0900,
Images/Speaker1.jpg,Images/Speaker2.jpg,Images/Speaker3.jpg,Images/Speaker4.jpg,Audio/Speaker3_Per/P3-10-Per.wav,Speaker3,گوینده۳,0,1,1,53,0,56,56,49,426.70461537500523,,,,,,,,,,,,,,,,,,,,,,,,,,,,,,,,,,,,,,,,,,,426.6822565420007,426.70461537500523,426.70461537500523,426.70461537500523,426.70461537500523,426.71474029134015,426.70461537500523,426.70461537500523,428.50931400000263,Correct! صحیح است,77,137,3,1.802930040998035,None,428.5136519170046,428.5250042500047,430.5089134580048,430.5304897080059,,,,,217941,001,2024-07-02_14h29.10.851,5-33,2024.1.4,None,2024-07-02 14h29.15.081022 +0900,
Images/Speaker1.jpg,Images/Speaker2.jpg,Images/Speaker3.jpg,Images/Speaker4.jpg,Audio/Speaker2_Per/P2-11-Per.wav,Speaker2,گوینده۲,0,1,1,53,0,57,57,30,430.5304897080059,,,,,,,,,,,,,,,,,,,,,,,,,,,,,,,,,,,,,,,,,,,430.50907887500216,430.5304897080059,430.5304897080059,430.5304897080059,430.5304897080059,430.5253561246684,430.5304897080059,430.5304897080059,431.87150016700616,Correct! صحیح است,78,138,2,1.3307027499977266,None,431.8752290830016,431.8864812920001,433.8736549170062,433.89900425000087,,,,,217941,001,2024-07-02_14h29.10.851,5-33,2024.1.4,None,2024-07-02 14h29.15.081022 +0900,
Images/Speaker1.jpg,Images/Speaker2.jpg,Images/Speaker3.jpg,Images/Speaker4.jpg,Audio/Speaker3_Per/P3-6-Per.wav,Speaker3,گوینده۳,0,1,1,53,0,58,58,45,433.89900425000087,,,,,,,,,,,,,,,,,,,,,,,,,,,,,,,,,,,,,,,,,,,433.8746012920019,433.89900425000087,433.89900425000087,433.89900425000087,433.89900425000087,433.90594000033934,433.89900425000087,433.89900425000087,435.88002091700037,Correct! صحیح است,79,139,3,1.9763652090041433,None,435.88433204200555,435.8956011670016,437.8814831250056,437.9028755000036,,,,,217941,001,2024-07-02_14h29.10.851,5-33,2024.1.4,None,2024-07-02 14h29.15.081022 +0900,
Images/Speaker1.jpg,Images/Speaker2.jpg,Images/Speaker3.jpg,Images/Speaker4.jpg,Audio/Speaker1_Per/P1-4-Per.wav,Speaker1,گوینده ۱,0,1,1,53,0,59,59,13,437.9028755000036,,,,,,,,,,,,,,,,,,,,,,,,,,,,,,,,,,,,,,,,,,,437.8816825000031,437.9028755000036,437.9028755000036,437.9028755000036,437.9028755000036,437.8978369586732,437.9028755000036,437.9028755000036,439.35184104200016,Correct! صحیح است,80,140,1,1.4455429579975316,None,439.355568125,439.36780200000067,441.35514066700125,441.3753737080042,,,,,217941,001,2024-07-02_14h29.10.851,5-33,2024.1.4,None,2024-07-02 14h29.15.081022 +0900,
Images/Speaker1.jpg,Images/Speaker2.jpg,Images/Speaker3.jpg,Images/Speaker4.jpg,Audio/Speaker2_Per/P2-20-Per.wav,Speaker2,گوینده۲,0,1,1,53,0,60,60,39,441.3753737080042,,,,,,,,,,,,,,,,,,,,,,,,,,,,,,,,,,,,,,,,,,,441.35529875000066,441.3753737080042,441.3753737080042,441.3753737080042,441.3753737080042,441.37152999967316,441.3753737080042,441.3753737080042,442.984266792002,Correct! صحیح است,81,141,2,1.6034970420005266,None,442.98838600000454,442.999128250005,444.9909497080007,,,,,,217941,001,2024-07-02_14h29.10.851,5-33,2024.1.4,None,2024-07-02 14h29.15.081022 +0900,
Images/Speaker1.jpg,Images/Speaker2.jpg,Images/Speaker3.jpg,Images/Speaker4.jpg,Audio/Speaker1_Per/P1-15-Per.wav,Speaker1,گوینده ۱,0,1,1,53,0,61,61,14,445.0162409580007,,,,,,,,,,,,,,,,,,,,,,,,,,,,,,,,,,,,,,,,,,,444.9915090830036,445.0162409580007,445.0162409580007,445.0162409580007,445.0162409580007,445.02410850033675,445.0162409580007,445.0162409580007,446.2467577080024,Correct! صحیح است,82,142,1,1.228088249998109,None,446.25096520800435,446.26232000000164,448.2462484170028,448.26757437500055,,,,,217941,001,2024-07-02_14h29.10.851,5-33,2024.1.4,None,2024-07-02 14h29.15.081022 +0900,
Images/Speaker1.jpg,Images/Speaker2.jpg,Images/Speaker3.jpg,Images/Speaker4.jpg,Audio/Speaker2_Per/P2-13-Per.wav,Speaker2,گوینده۲,0,1,1,53,0,62,62,32,448.26757437500055,,,,,,,,,,,,,,,,,,,,,,,,,,,,,,,,,,,,,,,,,,,448.24642637500074,448.26757437500055,448.26757437500055,448.26757437500055,448.26757437500055,448.26256208366635,448.26757437500055,448.26757437500055,449.9550074580038,Correct! صحیح است,83,143,2,1.6782397920032963,None,449.96002487500664,449.9733277500054,451.9628303749996,,,,,,217941,001,2024-07-02_14h29.10.851,5-33,2024.1.4,None,2024-07-02 14h29.15.081022 +0900,
Images/Speaker1.jpg,Images/Speaker2.jpg,Images/Speaker3.jpg,Images/Speaker4.jpg,Audio/Speaker3_Per/P3-9-Per.wav,Speaker3,گوینده۳,0,1,1,53,0,63,63,48,451.98426145800477,,,,,,,,,,,,,,,,,,,,,,,,,,,,,,,,,,,,,,,,,,,451.96300650000194,451.98426145800477,451.98426145800477,451.98426145800477,451.98426145800477,451.9794596666727,451.98426145800477,451.98426145800477,453.9779731250019,Correct! صحیح است,84,144,3,1.986564458005887,None,453.98222983300366,453.99355208300403,455.9805950000009,456.00218795800174,,,,,217941,001,2024-07-02_14h29.10.851,5-33,2024.1.4,None,2024-07-02 14h29.15.081022 +0900,
Images/Speaker1.jpg,Images/Speaker2.jpg,Images/Speaker3.jpg,Images/Speaker4.jpg,Audio/Speaker3_Per/P3-2-Per.wav,Speaker3,گوینده۳,0,1,1,53,0,64,64,41,456.00218795800174,,,,,,,,,,,,,,,,,,,,,,,,,,,,,,,,,,,,,,,,,,,455.9807660420047,456.00218795800174,456.00218795800174,456.00218795800174,456.00218795800174,455.99697670866976,456.00218795800174,456.00218795800174,457.9921745419997,Correct! صحیح است,85,145,3,1.9777352499950211,None,457.9963007920014,458.00895675000356,459.99682562500675,460.0201524580043,,,,,217941,001,2024-07-02_14h29.10.851,5-33,2024.1.4,None,2024-07-02 14h29.15.081022 +0900,
Images/Speaker1.jpg,Images/Speaker2.jpg,Images/Speaker3.jpg,Images/Speaker4.jpg,Audio/Speaker4_Per/P4-12-Per.wav,Speaker4,گوینده۴,0,1,1,53,0,65,65,71,460.0201524580043,,,,,,,,,,,,,,,,,,,,,,,,,,,,,,,,,,,,,,,,,,,459.9978391670011,460.0201524580043,460.0201524580043,460.0201524580043,460.0201524580043,460.0290515413367,460.0201524580043,460.0201524580043,461.5733756670015,Correct! صحیح است,86,146,4,1.5424547079965123,None,461.578510583,461.5915592920064,463.5794813750035,,,,,,217941,001,2024-07-02_14h29.10.851,5-33,2024.1.4,None,2024-07-02 14h29.15.081022 +0900,
Images/Speaker1.jpg,Images/Speaker2.jpg,Images/Speaker3.jpg,Images/Speaker4.jpg,Audio/Speaker2_Per/P2-19-Per.wav,Speaker2,گوینده۲,0,1,1,53,0,66,66,38,463.6007180000015,,,,,,,,,,,,,,,,,,,,,,,,,,,,,,,,,,,,,,,,,,,463.5796500420038,463.6007180000015,463.6007180000015,463.6007180000015,463.6007180000015,463.59611108366903,463.6007180000015,463.6007180000015,464.8050987500028,Correct! صحیح است,87,147,2,1.2030757079992327,None,464.8101204170016,464.8231574580059,466.81532895800046,,,,,,217941,001,2024-07-02_14h29.10.851,5-33,2024.1.4,None,2024-07-02 14h29.15.081022 +0900,
Images/Speaker1.jpg,Images/Speaker2.jpg,Images/Speaker3.jpg,Images/Speaker4.jpg,Audio/Speaker3_Per/P3-13-Per.wav,Speaker3,گوینده۳,0,1,1,53,0,67,67,52,466.8388283750028,,,,,,,,,,,,,,,,,,,,,,,,,,,,,,,,,,,,,,,,,,,466.81592554200324,466.8388283750028,466.8388283750028,466.8388283750028,466.8388283750028,466.84848304133675,466.8388283750028,466.8388283750028,469.82443654200324,Correct! صحیح است,88,148,3,2.976540000003297,None,469.8282244580041,469.83725383300043,471.8202839170044,471.84094566700514,,,,,217941,001,2024-07-02_14h29.10.851,5-33,2024.1.4,None,2024-07-02 14h29.15.081022 +0900,
Images/Speaker1.jpg,Images/Speaker2.jpg,Images/Speaker3.jpg,Images/Speaker4.jpg,Audio/Speaker4_Per/P4-2-Per.wav,Speaker4,گوینده۴,0,1,1,53,0,68,68,61,471.84094566700514,,,,,,,,,,,,,,,,,,,,,,,,,,,,,,,,,,,,,,,,,,,471.82045804200607,471.84094566700514,471.84094566700514,471.84094566700514,471.84094566700514,471.8366388336692,471.84094566700514,471.84094566700514,473.55851679199986,Correct! صحیح است,89,149,4,1.7114868749995367,None,473.5622949170065,473.57353383300506,475.56745562500146,,,,,,217941,001,2024-07-02_14h29.10.851,5-33,2024.1.4,None,2024-07-02 14h29.15.081022 +0900,
Images/Speaker1.jpg,Images/Speaker2.jpg,Images/Speaker3.jpg,Images/Speaker4.jpg,Audio/Speaker1_Per/P1-9-Per.wav,Speaker1,گوینده ۱,0,1,1,53,0,69,69,8,475.5917757500065,,,,,,,,,,,,,,,,,,,,,,,,,,,,,,,,,,,,,,,,,,,475.5676433330009,475.5917757500065,475.5917757500065,475.5917757500065,475.5917757500065,475.60074937533545,475.5917757500065,475.5917757500065,477.12687850000657,Correct! صحیح است,90,150,1,1.5331777079991298,None,477.1310580000063,477.1422817500061,479.13293983300537,,,,,,217941,001,2024-07-02_14h29.10.851,5-33,2024.1.4,None,2024-07-02 14h29.15.081022 +0900,
Images/Speaker1.jpg,Images/Speaker2.jpg,Images/Speaker3.jpg,Images/Speaker4.jpg,Audio/Speaker4_Per/P4-1-Per.wav,Speaker4,گوینده۴,0,1,1,53,0,70,70,60,479.1546003330004,,,,,,,,,,,,,,,,,,,,,,,,,,,,,,,,,,,,,,,,,,,479.13312537500315,479.1546003330004,479.1546003330004,479.1546003330004,479.1546003330004,479.14955904167095,479.1546003330004,479.1546003330004,480.8550438750026,Correct! صحیح است,91,151,4,1.694419375002326,None,480.8588596250047,480.8694444580033,482.8528153330044,482.87398383300024,,,,,217941,001,2024-07-02_14h29.10.851,5-33,2024.1.4,None,2024-07-02 14h29.15.081022 +0900,
Images/Speaker1.jpg,Images/Speaker2.jpg,Images/Speaker3.jpg,Images/Speaker4.jpg,Audio/Speaker3_Per/P3-8-Per.wav,Speaker3,گوینده۳,0,1,1,53,0,71,71,47,482.87398383300024,,,,,,,,,,,,,,,,,,,,,,,,,,,,,,,,,,,,,,,,,,,482.85301404200436,482.87398383300024,482.87398383300024,482.87398383300024,482.87398383300024,482.86919358367254,482.87398383300024,482.87398383300024,484.31498570800613,Correct! صحیح است,92,152,3,1.4382767920033075,None,484.31925391700497,484.3319225830055,486.3158978749998,486.3419208750056,,,,,217941,001,2024-07-02_14h29.10.851,5-33,2024.1.4,None,2024-07-02 14h29.15.081022 +0900,
Images/Speaker1.jpg,Images/Speaker2.jpg,Images/Speaker3.jpg,Images/Speaker4.jpg,Audio/Speaker1_Per/P1-2-Per.wav,Speaker1,گوینده ۱,0,1,1,53,0,72,72,1,486.3419208750056,,,,,,,,,,,,,,,,,,,,,,,,,,,,,,,,,,,,,,,,,,,486.31671708300564,486.3419208750056,486.3419208750056,486.3419208750056,486.3419208750056,486.34815758333616,486.3419208750056,486.3419208750056,487.62928483300493,Correct! صحیح است,93,153,1,1.2803074170005857,None,487.63326050000614,487.644891750002,489.63460204200237,,,,,,217941,001,2024-07-02_14h29.10.851,5-33,2024.1.4,None,2024-07-02 14h29.15.081022 +0900,
Images/Speaker1.jpg,Images/Speaker2.jpg,Images/Speaker3.jpg,Images/Speaker4.jpg,Audio/Speaker2_Per/P2-2-Per.wav,Speaker2,گوینده۲,0,1,1,53,0,73,73,21,489.6552317080059,,,,,,,,,,,,,,,,,,,,,,,,,,,,,,,,,,,,,,,,,,,489.6347702500061,489.6552317080059,489.6552317080059,489.6552317080059,489.6552317080059,489.65123554166735,489.6552317080059,489.6552317080059,490.87750733300345,Correct! صحیح است,94,154,2,1.2112792499974603,None,490.88175929200224,490.89023712500057,492.8791693750027,492.90032954200433,,,,,217941,001,2024-07-02_14h29.10.851,5-33,2024.1.4,None,2024-07-02 14h29.15.081022 +0900,
Images/Speaker1.jpg,Images/Speaker2.jpg,Images/Speaker3.jpg,Images/Speaker4.jpg,Audio/Speaker2_Per/P2-5-Per.wav,Speaker2,گوینده۲,0,1,1,53,0,74,74,24,492.90032954200433,,,,,,,,,,,,,,,,,,,,,,,,,,,,,,,,,,,,,,,,,,,492.87934083300206,492.90032954200433,492.90032954200433,492.90032954200433,492.90032954200433,492.89548787467015,492.90032954200433,492.90032954200433,494.2550398750027,Correct! صحیح است,95,155,2,1.3467375000036554,None,494.258973875003,494.2699015420003,496.25763933300186,496.2806550000023,,,,,217941,001,2024-07-02_14h29.10.851,5-33,2024.1.4,None,2024-07-02 14h29.15.081022 +0900,
Images/Speaker1.jpg,Images/Speaker2.jpg,Images/Speaker3.jpg,Images/Speaker4.jpg,Audio/Speaker2_Per/P2-15-Per.wav,Speaker2,گوینده۲,0,1,1,53,0,75,75,34,496.2806550000023,,,,,,,,,,,,,,,,,,,,,,,,,,,,,,,,,,,,,,,,,,,496.2584087080031,496.2806550000023,496.2806550000023,496.2806550000023,496.2806550000023,496.2899058753396,496.2806550000023,496.2806550000023,497.594192250006,Correct! صحیح است,96,156,2,1.310646791003819,None,497.59803741700307,497.60929804199986,499.59472541700234,499.6148052080025,,,,,217941,001,2024-07-02_14h29.10.851,5-33,2024.1.4,None,2024-07-02 14h29.15.081022 +0900,
Images/Speaker1.jpg,Images/Speaker2.jpg,Images/Speaker3.jpg,Images/Speaker4.jpg,Audio/Speaker3_Per/P3-12-Per.wav,Speaker3,گوینده۳,0,1,1,53,0,76,76,51,499.6148052080025,,,,,,,,,,,,,,,,,,,,,,,,,,,,,,,,,,,,,,,,,,,499.5948868750056,499.6148052080025,499.6148052080025,499.6148052080025,499.6148052080025,499.61115341666687,499.6148052080025,499.6148052080025,501.31951200000185,Correct! صحیح است,97,157,3,1.7032912920039962,None,501.3233608750015,501.33435708300385,503.31824783300544,503.33896200000163,,,,,217941,001,2024-07-02_14h29.10.851,5-33,2024.1.4,None,2024-07-02 14h29.15.081022 +0900,
Images/Speaker1.jpg,Images/Speaker2.jpg,Images/Speaker3.jpg,Images/Speaker4.jpg,Audio/Speaker1_Per/P1-13-Per.wav,Speaker1,گوینده ۱,0,1,1,53,0,77,77,12,503.33896200000163,,,,,,,,,,,,,,,,,,,,,,,,,,,,,,,,,,,,,,,,,,,503.3184212080014,503.33896200000163,503.33896200000163,503.33896200000163,503.33896200000163,503.33465412466853,503.33896200000163,503.33896200000163,505.17206141700444,Correct! صحیح است,98,158,1,1.8320567090049735,None,505.17591216700384,505.1878259170044,507.17120987500675,507.19334929199977,,,,,217941,001,2024-07-02_14h29.10.851,5-33,2024.1.4,None,2024-07-02 14h29.15.081022 +0900,
Images/Speaker1.jpg,Images/Speaker2.jpg,Images/Speaker3.jpg,Images/Speaker4.jpg,Audio/Speaker4_Per/P4-6-Per.wav,Speaker4,گوینده۴,0,1,1,53,0,78,78,65,507.19334929199977,,,,,,,,,,,,,,,,,,,,,,,,,,,,,,,,,,,,,,,,,,,507.171611167003,507.19334929199977,507.19334929199977,507.19334929199977,507.19334929199977,507.1873968336697,507.19334929199977,507.19334929199977,508.51993970800686,Correct! صحیح است,99,159,4,1.3224020409979858,None,508.52402012500534,508.53538675000163,510.53178762500465,,,,,,217941,001,2024-07-02_14h29.10.851,5-33,2024.1.4,None,2024-07-02 14h29.15.081022 +0900,
