SpeakerImage1,SpeakerImage2,SpeakerImage3,SpeakerImage4,TrainingSound,EnglishCorrectAnswer,PersianCorrectAnswer,repeated_TrainingLoopGroup1.thisRepN,repeated_TrainingLoopGroup1.thisTrialN,repeated_TrainingLoopGroup1.thisN,repeated_TrainingLoopGroup1.thisIndex,TrainingLoopGroup1.thisRepN,TrainingLoopGroup1.thisTrialN,TrainingLoopGroup1.thisN,TrainingLoopGroup1.thisIndex,thisRow.t,notes,trial.started,trial.stopped,GroupSelection.started,GroupInstructions.started,key_resp.started,GroupSelection.stopped,key_resp.keys,key_resp.rt,key_resp.duration,Introduction.started,text_2.started,image.started,sound_7.started,text_4.started,text_2.stopped,sound_8.started,image.stopped,text_4.stopped,image_7.started,sound_9.started,text_5.started,sound_10.started,image_7.stopped,text_5.stopped,image_8.started,sound_11.started,text_6.started,sound_12.started,image_8.stopped,text_6.stopped,image_9.started,sound_13.started,text_7.started,sound_14.started,image_9.stopped,text_7.stopped,Introduction.stopped,InitializeExperiment.started,InitializeExperiment.stopped,CheckAccuracy1.started,CheckAccuracy1.stopped,participant,session,date,expName,psychopyVersion,frameRate,expStart,
,,,,,,,,,,,,,,,,,0.009619917000236455,0.009916500002873363,,,,,,,,,,,,,,,,,,,,,,,,,,,,,,,,,,,,,,,,229079,001,2024-07-01_23h30.05.508,5-28,2024.1.4,None,2024-07-01 23h30.10.358661 +0900,
,,,,,,,,,,,,,,,,,,,0.009929875002853805,0.014579167000192683,0.014579167000192683,0.6478913750033826,3,0.5936601659996086,None,,,,,,,,,,,,,,,,,,,,,,,,,,,,,,,,,229079,001,2024-07-01_23h30.05.508,5-28,2024.1.4,None,2024-07-01 23h30.10.358661 +0900,
,,,,,,,,,,,,,,,,,,,,,,,,,,0.6479276670033869,0.6978155000033439,5.640940375000355,5.650530083669097,5.640940375000355,5.692041792000964,10.654272124669903,15.641885000000912,15.641885000000912,15.641885000000912,15.65376874966775,15.641885000000912,20.64882433366826,25.639583083000616,25.639583083000616,25.644714250000106,25.656249749667282,25.644714250000106,30.6552049996683,35.64423912500206,35.64423912500206,35.64423912500206,35.65593604166885,35.64423912500206,40.64721124966697,107.60147916700225,107.60147916700225,45.637621292000404,,,,,229079,001,2024-07-01_23h30.05.508,5-28,2024.1.4,None,2024-07-01 23h30.10.358661 +0900,
,,,,,,,,,,,,,,,,,,,,,,,,,,,,,,,,,,,,,,,,,,,,,,,,,,,,,,45.63764000000083,45.637772667003446,,,229079,001,2024-07-01_23h30.05.508,5-28,2024.1.4,None,2024-07-01 23h30.10.358661 +0900,
Images/Speaker1.jpg,Images/Speaker2.jpg,Images/Speaker3.jpg,Images/Speaker4.jpg,Audio/Speaker3_Per/P3-13-Per.wav,Speaker3,گوینده۳,0,0,0,52,,,,,107.60147916700225,,,,,,,,,,,,,,,,,,,,,,,,,,,,,,,,,,,,,,,,,45.68805254200197,45.68831787500312,229079,001,2024-07-01_23h30.05.508,5-28,2024.1.4,None,2024-07-01 23h30.10.358661 +0900,
Images/Speaker1.jpg,Images/Speaker2.jpg,Images/Speaker3.jpg,Images/Speaker4.jpg,Audio/Speaker3_Per/P3-4-Per.wav,Speaker3,گوینده۳,0,1,1,43,,,,,107.60147916700225,,,,,,,,,,,,,,,,,,,,,,,,,,,,,,,,,,,,,,,,,45.70645541700287,45.70670812500248,229079,001,2024-07-01_23h30.05.508,5-28,2024.1.4,None,2024-07-01 23h30.10.358661 +0900,
Images/Speaker1.jpg,Images/Speaker2.jpg,Images/Speaker3.jpg,Images/Speaker4.jpg,Audio/Speaker1_Per/P1-2-Per.wav,Speaker1,گوینده ۱,0,2,2,1,,,,,107.60147916700225,,,,,,,,,,,,,,,,,,,,,,,,,,,,,,,,,,,,,,,,,45.72422537500097,45.72441370800152,229079,001,2024-07-01_23h30.05.508,5-28,2024.1.4,None,2024-07-01 23h30.10.358661 +0900,
Images/Speaker1.jpg,Images/Speaker2.jpg,Images/Speaker3.jpg,Images/Speaker4.jpg,Audio/Speaker1_Per/P1-3-Per.wav,Speaker1,گوینده ۱,0,3,3,2,,,,,107.60147916700225,,,,,,,,,,,,,,,,,,,,,,,,,,,,,,,,,,,,,,,,,45.74155291700299,45.741748458000075,229079,001,2024-07-01_23h30.05.508,5-28,2024.1.4,None,2024-07-01 23h30.10.358661 +0900,
Images/Speaker1.jpg,Images/Speaker2.jpg,Images/Speaker3.jpg,Images/Speaker4.jpg,Audio/Speaker2_Per/P2-5-Per.wav,Speaker2,گوینده۲,0,4,4,24,,,,,107.60147916700225,,,,,,,,,,,,,,,,,,,,,,,,,,,,,,,,,,,,,,,,,45.7577702080016,45.75795154200023,229079,001,2024-07-01_23h30.05.508,5-28,2024.1.4,None,2024-07-01 23h30.10.358661 +0900,
Images/Speaker1.jpg,Images/Speaker2.jpg,Images/Speaker3.jpg,Images/Speaker4.jpg,Audio/Speaker1_Per/P1-11-Per.wav,Speaker1,گوینده ۱,0,5,5,10,,,,,107.60147916700225,,,,,,,,,,,,,,,,,,,,,,,,,,,,,,,,,,,,,,,,,45.77381737500036,45.77402916700157,229079,001,2024-07-01_23h30.05.508,5-28,2024.1.4,None,2024-07-01 23h30.10.358661 +0900,
Images/Speaker1.jpg,Images/Speaker2.jpg,Images/Speaker3.jpg,Images/Speaker4.jpg,Audio/Speaker3_Per/P3-19-Per.wav,Speaker3,گوینده۳,0,6,6,58,,,,,107.60147916700225,,,,,,,,,,,,,,,,,,,,,,,,,,,,,,,,,,,,,,,,,45.790178000002925,45.79036345800341,229079,001,2024-07-01_23h30.05.508,5-28,2024.1.4,None,2024-07-01 23h30.10.358661 +0900,
Images/Speaker1.jpg,Images/Speaker2.jpg,Images/Speaker3.jpg,Images/Speaker4.jpg,Audio/Speaker4_Per/P4-9-Per.wav,Speaker4,گوینده۴,0,7,7,68,,,,,107.60147916700225,,,,,,,,,,,,,,,,,,,,,,,,,,,,,,,,,,,,,,,,,45.80663183300203,45.806802458002494,229079,001,2024-07-01_23h30.05.508,5-28,2024.1.4,None,2024-07-01 23h30.10.358661 +0900,
Images/Speaker1.jpg,Images/Speaker2.jpg,Images/Speaker3.jpg,Images/Speaker4.jpg,Audio/Speaker4_Per/P4-14-Per.wav,Speaker4,گوینده۴,0,8,8,73,,,,,107.60147916700225,,,,,,,,,,,,,,,,,,,,,,,,,,,,,,,,,,,,,,,,,45.82269208300204,45.82285079200301,229079,001,2024-07-01_23h30.05.508,5-28,2024.1.4,None,2024-07-01 23h30.10.358661 +0900,
Images/Speaker1.jpg,Images/Speaker2.jpg,Images/Speaker3.jpg,Images/Speaker4.jpg,Audio/Speaker2_Per/P2-1-Per.wav,Speaker2,گوینده۲,0,9,9,20,,,,,107.60147916700225,,,,,,,,,,,,,,,,,,,,,,,,,,,,,,,,,,,,,,,,,45.83866683300221,45.83883645800233,229079,001,2024-07-01_23h30.05.508,5-28,2024.1.4,None,2024-07-01 23h30.10.358661 +0900,
Images/Speaker1.jpg,Images/Speaker2.jpg,Images/Speaker3.jpg,Images/Speaker4.jpg,Audio/Speaker2_Per/P2-2-Per.wav,Speaker2,گوینده۲,0,10,10,21,,,,,107.60147916700225,,,,,,,,,,,,,,,,,,,,,,,,,,,,,,,,,,,,,,,,,45.8545903330014,45.854750417001924,229079,001,2024-07-01_23h30.05.508,5-28,2024.1.4,None,2024-07-01 23h30.10.358661 +0900,
Images/Speaker1.jpg,Images/Speaker2.jpg,Images/Speaker3.jpg,Images/Speaker4.jpg,Audio/Speaker1_Per/P1-10-Per.wav,Speaker1,گوینده ۱,0,11,11,9,,,,,107.60147916700225,,,,,,,,,,,,,,,,,,,,,,,,,,,,,,,,,,,,,,,,,45.87115900000208,45.87134029200024,229079,001,2024-07-01_23h30.05.508,5-28,2024.1.4,None,2024-07-01 23h30.10.358661 +0900,
Images/Speaker1.jpg,Images/Speaker2.jpg,Images/Speaker3.jpg,Images/Speaker4.jpg,Audio/Speaker3_Per/P3-7-Per.wav,Speaker3,گوینده۳,0,12,12,46,,,,,107.60147916700225,,,,,,,,,,,,,,,,,,,,,,,,,,,,,,,,,,,,,,,,,45.8871382920006,45.887359083000774,229079,001,2024-07-01_23h30.05.508,5-28,2024.1.4,None,2024-07-01 23h30.10.358661 +0900,
Images/Speaker1.jpg,Images/Speaker2.jpg,Images/Speaker3.jpg,Images/Speaker4.jpg,Audio/Speaker2_Per/P2-4-Per.wav,Speaker2,گوینده۲,0,13,13,23,,,,,107.60147916700225,,,,,,,,,,,,,,,,,,,,,,,,,,,,,,,,,,,,,,,,,45.90310204200068,45.90326870800345,229079,001,2024-07-01_23h30.05.508,5-28,2024.1.4,None,2024-07-01 23h30.10.358661 +0900,
Images/Speaker1.jpg,Images/Speaker2.jpg,Images/Speaker3.jpg,Images/Speaker4.jpg,Audio/Speaker1_Per/P1-18-Per.wav,Speaker1,گوینده ۱,0,14,14,17,,,,,107.60147916700225,,,,,,,,,,,,,,,,,,,,,,,,,,,,,,,,,,,,,,,,,45.91908095800318,45.91932195800109,229079,001,2024-07-01_23h30.05.508,5-28,2024.1.4,None,2024-07-01 23h30.10.358661 +0900,
Images/Speaker1.jpg,Images/Speaker2.jpg,Images/Speaker3.jpg,Images/Speaker4.jpg,Audio/Speaker2_Per/P2-16-Per.wav,Speaker2,گوینده۲,0,15,15,35,,,,,107.60147916700225,,,,,,,,,,,,,,,,,,,,,,,,,,,,,,,,,,,,,,,,,45.93564312500166,45.935812958003226,229079,001,2024-07-01_23h30.05.508,5-28,2024.1.4,None,2024-07-01 23h30.10.358661 +0900,
Images/Speaker1.jpg,Images/Speaker2.jpg,Images/Speaker3.jpg,Images/Speaker4.jpg,Audio/Speaker1_Per/P1-19-Per.wav,Speaker1,گوینده ۱,0,16,16,18,,,,,107.60147916700225,,,,,,,,,,,,,,,,,,,,,,,,,,,,,,,,,,,,,,,,,45.95154545800324,45.9517342500003,229079,001,2024-07-01_23h30.05.508,5-28,2024.1.4,None,2024-07-01 23h30.10.358661 +0900,
Images/Speaker1.jpg,Images/Speaker2.jpg,Images/Speaker3.jpg,Images/Speaker4.jpg,Audio/Speaker3_Per/P3-11-Per.wav,Speaker3,گوینده۳,0,17,17,50,,,,,107.60147916700225,,,,,,,,,,,,,,,,,,,,,,,,,,,,,,,,,,,,,,,,,45.96741762500096,45.967649792000884,229079,001,2024-07-01_23h30.05.508,5-28,2024.1.4,None,2024-07-01 23h30.10.358661 +0900,
Images/Speaker1.jpg,Images/Speaker2.jpg,Images/Speaker3.jpg,Images/Speaker4.jpg,Audio/Speaker2_Per/P2-19-Per.wav,Speaker2,گوینده۲,0,18,18,38,,,,,107.60147916700225,,,,,,,,,,,,,,,,,,,,,,,,,,,,,,,,,,,,,,,,,45.983353333002015,45.98356933300238,229079,001,2024-07-01_23h30.05.508,5-28,2024.1.4,None,2024-07-01 23h30.10.358661 +0900,
Images/Speaker1.jpg,Images/Speaker2.jpg,Images/Speaker3.jpg,Images/Speaker4.jpg,Audio/Speaker2_Per/P2-7-Per.wav,Speaker2,گوینده۲,0,19,19,26,,,,,107.60147916700225,,,,,,,,,,,,,,,,,,,,,,,,,,,,,,,,,,,,,,,,,45.999944458002574,46.00013187500008,229079,001,2024-07-01_23h30.05.508,5-28,2024.1.4,None,2024-07-01 23h30.10.358661 +0900,
Images/Speaker1.jpg,Images/Speaker2.jpg,Images/Speaker3.jpg,Images/Speaker4.jpg,Audio/Speaker3_Per/P3-17-Per.wav,Speaker3,گوینده۳,0,20,20,56,,,,,107.60147916700225,,,,,,,,,,,,,,,,,,,,,,,,,,,,,,,,,,,,,,,,,46.01583695800218,46.01600700000199,229079,001,2024-07-01_23h30.05.508,5-28,2024.1.4,None,2024-07-01 23h30.10.358661 +0900,
Images/Speaker1.jpg,Images/Speaker2.jpg,Images/Speaker3.jpg,Images/Speaker4.jpg,Audio/Speaker1_Per/P1-5-Per.wav,Speaker1,گوینده ۱,0,21,21,4,,,,,107.60147916700225,,,,,,,,,,,,,,,,,,,,,,,,,,,,,,,,,,,,,,,,,46.03176966700266,46.031932708003296,229079,001,2024-07-01_23h30.05.508,5-28,2024.1.4,None,2024-07-01 23h30.10.358661 +0900,
Images/Speaker1.jpg,Images/Speaker2.jpg,Images/Speaker3.jpg,Images/Speaker4.jpg,Audio/Speaker3_Per/P3-1-Per.wav,Speaker3,گوینده۳,0,22,22,40,,,,,107.60147916700225,,,,,,,,,,,,,,,,,,,,,,,,,,,,,,,,,,,,,,,,,46.04768800000238,46.047861750001175,229079,001,2024-07-01_23h30.05.508,5-28,2024.1.4,None,2024-07-01 23h30.10.358661 +0900,
Images/Speaker1.jpg,Images/Speaker2.jpg,Images/Speaker3.jpg,Images/Speaker4.jpg,Audio/Speaker3_Per/P3-3-Per.wav,Speaker3,گوینده۳,0,23,23,42,,,,,107.60147916700225,,,,,,,,,,,,,,,,,,,,,,,,,,,,,,,,,,,,,,,,,46.06417245800185,46.064346958002716,229079,001,2024-07-01_23h30.05.508,5-28,2024.1.4,None,2024-07-01 23h30.10.358661 +0900,
Images/Speaker1.jpg,Images/Speaker2.jpg,Images/Speaker3.jpg,Images/Speaker4.jpg,Audio/Speaker4_Per/P4-6-Per.wav,Speaker4,گوینده۴,0,24,24,65,,,,,107.60147916700225,,,,,,,,,,,,,,,,,,,,,,,,,,,,,,,,,,,,,,,,,46.07997495800009,46.080141166999965,229079,001,2024-07-01_23h30.05.508,5-28,2024.1.4,None,2024-07-01 23h30.10.358661 +0900,
Images/Speaker1.jpg,Images/Speaker2.jpg,Images/Speaker3.jpg,Images/Speaker4.jpg,Audio/Speaker4_Per/P4-5-Per.wav,Speaker4,گوینده۴,0,25,25,64,,,,,107.60147916700225,,,,,,,,,,,,,,,,,,,,,,,,,,,,,,,,,,,,,,,,,46.095814333002636,46.09600995800065,229079,001,2024-07-01_23h30.05.508,5-28,2024.1.4,None,2024-07-01 23h30.10.358661 +0900,
Images/Speaker1.jpg,Images/Speaker2.jpg,Images/Speaker3.jpg,Images/Speaker4.jpg,Audio/Speaker2_Per/P2-17-Per.wav,Speaker2,گوینده۲,0,26,26,36,,,,,107.60147916700225,,,,,,,,,,,,,,,,,,,,,,,,,,,,,,,,,,,,,,,,,46.111734375001106,46.111905250003474,229079,001,2024-07-01_23h30.05.508,5-28,2024.1.4,None,2024-07-01 23h30.10.358661 +0900,
Images/Speaker1.jpg,Images/Speaker2.jpg,Images/Speaker3.jpg,Images/Speaker4.jpg,Audio/Speaker3_Per/P3-16-Per.wav,Speaker3,گوینده۳,0,27,27,55,,,,,107.60147916700225,,,,,,,,,,,,,,,,,,,,,,,,,,,,,,,,,,,,,,,,,46.12820783300049,46.12836091700228,229079,001,2024-07-01_23h30.05.508,5-28,2024.1.4,None,2024-07-01 23h30.10.358661 +0900,
Images/Speaker1.jpg,Images/Speaker2.jpg,Images/Speaker3.jpg,Images/Speaker4.jpg,Audio/Speaker2_Per/P2-15-Per.wav,Speaker2,گوینده۲,0,28,28,34,,,,,107.60147916700225,,,,,,,,,,,,,,,,,,,,,,,,,,,,,,,,,,,,,,,,,46.144097083000815,46.144278083000245,229079,001,2024-07-01_23h30.05.508,5-28,2024.1.4,None,2024-07-01 23h30.10.358661 +0900,
Images/Speaker1.jpg,Images/Speaker2.jpg,Images/Speaker3.jpg,Images/Speaker4.jpg,Audio/Speaker4_Per/P4-3-Per.wav,Speaker4,گوینده۴,0,29,29,62,,,,,107.60147916700225,,,,,,,,,,,,,,,,,,,,,,,,,,,,,,,,,,,,,,,,,46.159946458003105,46.160121667002386,229079,001,2024-07-01_23h30.05.508,5-28,2024.1.4,None,2024-07-01 23h30.10.358661 +0900,
Images/Speaker1.jpg,Images/Speaker2.jpg,Images/Speaker3.jpg,Images/Speaker4.jpg,Audio/Speaker4_Per/P4-17-Per.wav,Speaker4,گوینده۴,0,30,30,76,,,,,107.60147916700225,,,,,,,,,,,,,,,,,,,,,,,,,,,,,,,,,,,,,,,,,46.175882999999885,46.17605341700255,229079,001,2024-07-01_23h30.05.508,5-28,2024.1.4,None,2024-07-01 23h30.10.358661 +0900,
Images/Speaker1.jpg,Images/Speaker2.jpg,Images/Speaker3.jpg,Images/Speaker4.jpg,Audio/Speaker2_Per/P2-11-Per.wav,Speaker2,گوینده۲,0,31,31,30,,,,,107.60147916700225,,,,,,,,,,,,,,,,,,,,,,,,,,,,,,,,,,,,,,,,,46.192353708000155,46.19251125000301,229079,001,2024-07-01_23h30.05.508,5-28,2024.1.4,None,2024-07-01 23h30.10.358661 +0900,
Images/Speaker1.jpg,Images/Speaker2.jpg,Images/Speaker3.jpg,Images/Speaker4.jpg,Audio/Speaker2_Per/P2-12-Per.wav,Speaker2,گوینده۲,0,32,32,31,,,,,107.60147916700225,,,,,,,,,,,,,,,,,,,,,,,,,,,,,,,,,,,,,,,,,46.2081946670005,46.20837012500124,229079,001,2024-07-01_23h30.05.508,5-28,2024.1.4,None,2024-07-01 23h30.10.358661 +0900,
Images/Speaker1.jpg,Images/Speaker2.jpg,Images/Speaker3.jpg,Images/Speaker4.jpg,Audio/Speaker3_Per/P3-12-Per.wav,Speaker3,گوینده۳,0,33,33,51,,,,,107.60147916700225,,,,,,,,,,,,,,,,,,,,,,,,,,,,,,,,,,,,,,,,,46.224110375002056,46.224261292001756,229079,001,2024-07-01_23h30.05.508,5-28,2024.1.4,None,2024-07-01 23h30.10.358661 +0900,
Images/Speaker1.jpg,Images/Speaker2.jpg,Images/Speaker3.jpg,Images/Speaker4.jpg,Audio/Speaker1_Per/P1-16-Per.wav,Speaker1,گوینده ۱,0,34,34,15,,,,,107.60147916700225,,,,,,,,,,,,,,,,,,,,,,,,,,,,,,,,,,,,,,,,,46.2399785000016,46.240149458000815,229079,001,2024-07-01_23h30.05.508,5-28,2024.1.4,None,2024-07-01 23h30.10.358661 +0900,
Images/Speaker1.jpg,Images/Speaker2.jpg,Images/Speaker3.jpg,Images/Speaker4.jpg,Audio/Speaker3_Per/P3-5-Per.wav,Speaker3,گوینده۳,0,35,35,44,,,,,107.60147916700225,,,,,,,,,,,,,,,,,,,,,,,,,,,,,,,,,,,,,,,,,46.25648445800107,46.256644042001426,229079,001,2024-07-01_23h30.05.508,5-28,2024.1.4,None,2024-07-01 23h30.10.358661 +0900,
Images/Speaker1.jpg,Images/Speaker2.jpg,Images/Speaker3.jpg,Images/Speaker4.jpg,Audio/Speaker1_Per/P1-4-Per.wav,Speaker1,گوینده ۱,0,36,36,3,,,,,107.60147916700225,,,,,,,,,,,,,,,,,,,,,,,,,,,,,,,,,,,,,,,,,46.2725943330006,46.272765208002966,229079,001,2024-07-01_23h30.05.508,5-28,2024.1.4,None,2024-07-01 23h30.10.358661 +0900,
Images/Speaker1.jpg,Images/Speaker2.jpg,Images/Speaker3.jpg,Images/Speaker4.jpg,Audio/Speaker3_Per/P3-10-Per.wav,Speaker3,گوینده۳,0,37,37,49,,,,,107.60147916700225,,,,,,,,,,,,,,,,,,,,,,,,,,,,,,,,,,,,,,,,,46.28840525000123,46.28857354200227,229079,001,2024-07-01_23h30.05.508,5-28,2024.1.4,None,2024-07-01 23h30.10.358661 +0900,
Images/Speaker1.jpg,Images/Speaker2.jpg,Images/Speaker3.jpg,Images/Speaker4.jpg,Audio/Speaker1_Per/P1-17-Per.wav,Speaker1,گوینده ۱,0,38,38,16,,,,,107.60147916700225,,,,,,,,,,,,,,,,,,,,,,,,,,,,,,,,,,,,,,,,,46.30430450000131,46.30448529200294,229079,001,2024-07-01_23h30.05.508,5-28,2024.1.4,None,2024-07-01 23h30.10.358661 +0900,
Images/Speaker1.jpg,Images/Speaker2.jpg,Images/Speaker3.jpg,Images/Speaker4.jpg,Audio/Speaker4_Per/P4-11-Per.wav,Speaker4,گوینده۴,0,39,39,70,,,,,107.60147916700225,,,,,,,,,,,,,,,,,,,,,,,,,,,,,,,,,,,,,,,,,46.32077591699999,46.32094666700141,229079,001,2024-07-01_23h30.05.508,5-28,2024.1.4,None,2024-07-01 23h30.10.358661 +0900,
Images/Speaker1.jpg,Images/Speaker2.jpg,Images/Speaker3.jpg,Images/Speaker4.jpg,Audio/Speaker1_Per/P1-15-Per.wav,Speaker1,گوینده ۱,0,40,40,14,,,,,107.60147916700225,,,,,,,,,,,,,,,,,,,,,,,,,,,,,,,,,,,,,,,,,46.33663533300205,46.336805458002345,229079,001,2024-07-01_23h30.05.508,5-28,2024.1.4,None,2024-07-01 23h30.10.358661 +0900,
Images/Speaker1.jpg,Images/Speaker2.jpg,Images/Speaker3.jpg,Images/Speaker4.jpg,Audio/Speaker2_Per/P2-13-Per.wav,Speaker2,گوینده۲,0,41,41,32,,,,,107.60147916700225,,,,,,,,,,,,,,,,,,,,,,,,,,,,,,,,,,,,,,,,,46.35258891700141,46.35273683300329,229079,001,2024-07-01_23h30.05.508,5-28,2024.1.4,None,2024-07-01 23h30.10.358661 +0900,
Images/Speaker1.jpg,Images/Speaker2.jpg,Images/Speaker3.jpg,Images/Speaker4.jpg,Audio/Speaker4_Per/P4-7-Per.wav,Speaker4,گوینده۴,0,42,42,66,,,,,107.60147916700225,,,,,,,,,,,,,,,,,,,,,,,,,,,,,,,,,,,,,,,,,46.36853287500344,46.368711917002656,229079,001,2024-07-01_23h30.05.508,5-28,2024.1.4,None,2024-07-01 23h30.10.358661 +0900,
Images/Speaker1.jpg,Images/Speaker2.jpg,Images/Speaker3.jpg,Images/Speaker4.jpg,Audio/Speaker1_Per/P1-13-Per.wav,Speaker1,گوینده ۱,0,43,43,12,,,,,107.60147916700225,,,,,,,,,,,,,,,,,,,,,,,,,,,,,,,,,,,,,,,,,46.384854917003395,46.38504987500346,229079,001,2024-07-01_23h30.05.508,5-28,2024.1.4,None,2024-07-01 23h30.10.358661 +0900,
Images/Speaker1.jpg,Images/Speaker2.jpg,Images/Speaker3.jpg,Images/Speaker4.jpg,Audio/Speaker4_Per/P4-13-Per.wav,Speaker4,گوینده۴,0,44,44,72,,,,,107.60147916700225,,,,,,,,,,,,,,,,,,,,,,,,,,,,,,,,,,,,,,,,,46.40081129200189,46.40097991700168,229079,001,2024-07-01_23h30.05.508,5-28,2024.1.4,None,2024-07-01 23h30.10.358661 +0900,
Images/Speaker1.jpg,Images/Speaker2.jpg,Images/Speaker3.jpg,Images/Speaker4.jpg,Audio/Speaker2_Per/P2-3-Per.wav,Speaker2,گوینده۲,0,45,45,22,,,,,107.60147916700225,,,,,,,,,,,,,,,,,,,,,,,,,,,,,,,,,,,,,,,,,46.41672895800002,46.41687275000004,229079,001,2024-07-01_23h30.05.508,5-28,2024.1.4,None,2024-07-01 23h30.10.358661 +0900,
Images/Speaker1.jpg,Images/Speaker2.jpg,Images/Speaker3.jpg,Images/Speaker4.jpg,Audio/Speaker1_Per/P1-6-Per.wav,Speaker1,گوینده ۱,0,46,46,5,,,,,107.60147916700225,,,,,,,,,,,,,,,,,,,,,,,,,,,,,,,,,,,,,,,,,46.43259512500299,46.432794500000455,229079,001,2024-07-01_23h30.05.508,5-28,2024.1.4,None,2024-07-01 23h30.10.358661 +0900,
Images/Speaker1.jpg,Images/Speaker2.jpg,Images/Speaker3.jpg,Images/Speaker4.jpg,Audio/Speaker4_Per/P4-1-Per.wav,Speaker4,گوینده۴,0,47,47,60,,,,,107.60147916700225,,,,,,,,,,,,,,,,,,,,,,,,,,,,,,,,,,,,,,,,,46.44915779200164,46.449317583002994,229079,001,2024-07-01_23h30.05.508,5-28,2024.1.4,None,2024-07-01 23h30.10.358661 +0900,
Images/Speaker1.jpg,Images/Speaker2.jpg,Images/Speaker3.jpg,Images/Speaker4.jpg,Audio/Speaker4_Per/P4-20-Per.wav,Speaker4,گوینده۴,0,48,48,79,,,,,107.60147916700225,,,,,,,,,,,,,,,,,,,,,,,,,,,,,,,,,,,,,,,,,46.464933541999926,46.465117000003374,229079,001,2024-07-01_23h30.05.508,5-28,2024.1.4,None,2024-07-01 23h30.10.358661 +0900,
Images/Speaker1.jpg,Images/Speaker2.jpg,Images/Speaker3.jpg,Images/Speaker4.jpg,Audio/Speaker3_Per/P3-6-Per.wav,Speaker3,گوینده۳,0,49,49,45,,,,,107.60147916700225,,,,,,,,,,,,,,,,,,,,,,,,,,,,,,,,,,,,,,,,,46.48083854200013,46.48100570800307,229079,001,2024-07-01_23h30.05.508,5-28,2024.1.4,None,2024-07-01 23h30.10.358661 +0900,
Images/Speaker1.jpg,Images/Speaker2.jpg,Images/Speaker3.jpg,Images/Speaker4.jpg,Audio/Speaker3_Per/P3-8-Per.wav,Speaker3,گوینده۳,0,50,50,47,,,,,107.60147916700225,,,,,,,,,,,,,,,,,,,,,,,,,,,,,,,,,,,,,,,,,46.49672966700018,46.496890875001554,229079,001,2024-07-01_23h30.05.508,5-28,2024.1.4,None,2024-07-01 23h30.10.358661 +0900,
Images/Speaker1.jpg,Images/Speaker2.jpg,Images/Speaker3.jpg,Images/Speaker4.jpg,Audio/Speaker4_Per/P4-2-Per.wav,Speaker4,گوینده۴,0,51,51,61,,,,,107.60147916700225,,,,,,,,,,,,,,,,,,,,,,,,,,,,,,,,,,,,,,,,,46.513446458000544,46.513622708000185,229079,001,2024-07-01_23h30.05.508,5-28,2024.1.4,None,2024-07-01 23h30.10.358661 +0900,
Images/Speaker1.jpg,Images/Speaker2.jpg,Images/Speaker3.jpg,Images/Speaker4.jpg,Audio/Speaker1_Per/P1-4-Per.wav,Speaker1,گوینده ۱,0,52,52,13,,,,,107.60147916700225,,,,,,,,,,,,,,,,,,,,,,,,,,,,,,,,,,,,,,,,,46.529228250001324,46.52941158300018,229079,001,2024-07-01_23h30.05.508,5-28,2024.1.4,None,2024-07-01 23h30.10.358661 +0900,
Images/Speaker1.jpg,Images/Speaker2.jpg,Images/Speaker3.jpg,Images/Speaker4.jpg,Audio/Speaker3_Per/P3-14-Per.wav,Speaker3,گوینده۳,0,53,53,53,,,,,107.60147916700225,,,,,,,,,,,,,,,,,,,,,,,,,,,,,,,,,,,,,,,,,46.54513895800119,46.54535520800346,229079,001,2024-07-01_23h30.05.508,5-28,2024.1.4,None,2024-07-01 23h30.10.358661 +0900,
Images/Speaker1.jpg,Images/Speaker2.jpg,Images/Speaker3.jpg,Images/Speaker4.jpg,Audio/Speaker2_Per/P2-8-Per.wav,Speaker2,گوینده۲,0,54,54,27,,,,,107.60147916700225,,,,,,,,,,,,,,,,,,,,,,,,,,,,,,,,,,,,,,,,,46.56106095799987,46.56126033300097,229079,001,2024-07-01_23h30.05.508,5-28,2024.1.4,None,2024-07-01 23h30.10.358661 +0900,
Images/Speaker1.jpg,Images/Speaker2.jpg,Images/Speaker3.jpg,Images/Speaker4.jpg,Audio/Speaker2_Per/P2-20-Per.wav,Speaker2,گوینده۲,0,55,55,39,,,,,107.60147916700225,,,,,,,,,,,,,,,,,,,,,,,,,,,,,,,,,,,,,,,,,46.577577083000506,46.57774770800097,229079,001,2024-07-01_23h30.05.508,5-28,2024.1.4,None,2024-07-01 23h30.10.358661 +0900,
Images/Speaker1.jpg,Images/Speaker2.jpg,Images/Speaker3.jpg,Images/Speaker4.jpg,Audio/Speaker4_Per/P4-8-Per.wav,Speaker4,گوینده۴,0,56,56,67,,,,,107.60147916700225,,,,,,,,,,,,,,,,,,,,,,,,,,,,,,,,,,,,,,,,,46.59343945799992,46.59359400000176,229079,001,2024-07-01_23h30.05.508,5-28,2024.1.4,None,2024-07-01 23h30.10.358661 +0900,
Images/Speaker1.jpg,Images/Speaker2.jpg,Images/Speaker3.jpg,Images/Speaker4.jpg,Audio/Speaker4_Per/P4-18-Per.wav,Speaker4,گوینده۴,0,57,57,77,,,,,107.60147916700225,,,,,,,,,,,,,,,,,,,,,,,,,,,,,,,,,,,,,,,,,46.609259167002165,46.60940691700307,229079,001,2024-07-01_23h30.05.508,5-28,2024.1.4,None,2024-07-01 23h30.10.358661 +0900,
Images/Speaker1.jpg,Images/Speaker2.jpg,Images/Speaker3.jpg,Images/Speaker4.jpg,Audio/Speaker2_Per/P2-10-Per.wav,Speaker2,گوینده۲,0,58,58,29,,,,,107.60147916700225,,,,,,,,,,,,,,,,,,,,,,,,,,,,,,,,,,,,,,,,,46.62513937500262,46.62529033300234,229079,001,2024-07-01_23h30.05.508,5-28,2024.1.4,None,2024-07-01 23h30.10.358661 +0900,
Images/Speaker1.jpg,Images/Speaker2.jpg,Images/Speaker3.jpg,Images/Speaker4.jpg,Audio/Speaker1_Per/P1-8-Per.wav,Speaker1,گوینده ۱,0,59,59,7,,,,,107.60147916700225,,,,,,,,,,,,,,,,,,,,,,,,,,,,,,,,,,,,,,,,,46.64164300000266,46.64180941700033,229079,001,2024-07-01_23h30.05.508,5-28,2024.1.4,None,2024-07-01 23h30.10.358661 +0900,
Images/Speaker1.jpg,Images/Speaker2.jpg,Images/Speaker3.jpg,Images/Speaker4.jpg,Audio/Speaker4_Per/P4-10-Per.wav,Speaker4,گوینده۴,0,60,60,69,,,,,107.60147916700225,,,,,,,,,,,,,,,,,,,,,,,,,,,,,,,,,,,,,,,,,46.65759291700306,46.657782625003165,229079,001,2024-07-01_23h30.05.508,5-28,2024.1.4,None,2024-07-01 23h30.10.358661 +0900,
Images/Speaker1.jpg,Images/Speaker2.jpg,Images/Speaker3.jpg,Images/Speaker4.jpg,Audio/Speaker4_Per/P4-12-Per.wav,Speaker4,گوینده۴,0,61,61,71,,,,,107.60147916700225,,,,,,,,,,,,,,,,,,,,,,,,,,,,,,,,,,,,,,,,,46.67349345800176,46.67370604200187,229079,001,2024-07-01_23h30.05.508,5-28,2024.1.4,None,2024-07-01 23h30.10.358661 +0900,
Images/Speaker1.jpg,Images/Speaker2.jpg,Images/Speaker3.jpg,Images/Speaker4.jpg,Audio/Speaker2_Per/P2-9-Per.wav,Speaker2,گوینده۲,0,62,62,28,,,,,107.60147916700225,,,,,,,,,,,,,,,,,,,,,,,,,,,,,,,,,,,,,,,,,46.68935445800162,46.689572292001685,229079,001,2024-07-01_23h30.05.508,5-28,2024.1.4,None,2024-07-01 23h30.10.358661 +0900,
Images/Speaker1.jpg,Images/Speaker2.jpg,Images/Speaker3.jpg,Images/Speaker4.jpg,Audio/Speaker4_Per/P4-15-Per.wav,Speaker4,گوینده۴,0,63,63,74,,,,,107.60147916700225,,,,,,,,,,,,,,,,,,,,,,,,,,,,,,,,,,,,,,,,,46.705867958000454,46.70602383300138,229079,001,2024-07-01_23h30.05.508,5-28,2024.1.4,None,2024-07-01 23h30.10.358661 +0900,
Images/Speaker1.jpg,Images/Speaker2.jpg,Images/Speaker3.jpg,Images/Speaker4.jpg,Audio/Speaker1_Per/P1-9-Per.wav,Speaker1,گوینده ۱,0,64,64,8,,,,,107.60147916700225,,,,,,,,,,,,,,,,,,,,,,,,,,,,,,,,,,,,,,,,,46.7218240000002,46.72197600000072,229079,001,2024-07-01_23h30.05.508,5-28,2024.1.4,None,2024-07-01 23h30.10.358661 +0900,
Images/Speaker1.jpg,Images/Speaker2.jpg,Images/Speaker3.jpg,Images/Speaker4.jpg,Audio/Speaker2_Per/P2-6-Per.wav,Speaker2,گوینده۲,0,65,65,25,,,,,107.60147916700225,,,,,,,,,,,,,,,,,,,,,,,,,,,,,,,,,,,,,,,,,46.73765125000136,46.73782166700039,229079,001,2024-07-01_23h30.05.508,5-28,2024.1.4,None,2024-07-01 23h30.10.358661 +0900,
Images/Speaker1.jpg,Images/Speaker2.jpg,Images/Speaker3.jpg,Images/Speaker4.jpg,Audio/Speaker3_Per/P3-15-Per.wav,Speaker3,گوینده۳,0,66,66,54,,,,,107.60147916700225,,,,,,,,,,,,,,,,,,,,,,,,,,,,,,,,,,,,,,,,,46.75357429200085,46.75373779200163,229079,001,2024-07-01_23h30.05.508,5-28,2024.1.4,None,2024-07-01 23h30.10.358661 +0900,
Images/Speaker1.jpg,Images/Speaker2.jpg,Images/Speaker3.jpg,Images/Speaker4.jpg,Audio/Speaker1_Per/P1-20-Per.wav,Speaker1,گوینده ۱,0,67,67,19,,,,,107.60147916700225,,,,,,,,,,,,,,,,,,,,,,,,,,,,,,,,,,,,,,,,,46.77013912500115,46.770302750002884,229079,001,2024-07-01_23h30.05.508,5-28,2024.1.4,None,2024-07-01 23h30.10.358661 +0900,
Images/Speaker1.jpg,Images/Speaker2.jpg,Images/Speaker3.jpg,Images/Speaker4.jpg,Audio/Speaker4_Per/P4-4-Per.wav,Speaker4,گوینده۴,0,68,68,63,,,,,107.60147916700225,,,,,,,,,,,,,,,,,,,,,,,,,,,,,,,,,,,,,,,,,46.78599391700118,46.786195167002006,229079,001,2024-07-01_23h30.05.508,5-28,2024.1.4,None,2024-07-01 23h30.10.358661 +0900,
Images/Speaker1.jpg,Images/Speaker2.jpg,Images/Speaker3.jpg,Images/Speaker4.jpg,Audio/Speaker2_Per/P2-14-Per.wav,Speaker2,گوینده۲,0,69,69,33,,,,,107.60147916700225,,,,,,,,,,,,,,,,,,,,,,,,,,,,,,,,,,,,,,,,,46.801918333003414,46.80213337500027,229079,001,2024-07-01_23h30.05.508,5-28,2024.1.4,None,2024-07-01 23h30.10.358661 +0900,
Images/Speaker1.jpg,Images/Speaker2.jpg,Images/Speaker3.jpg,Images/Speaker4.jpg,Audio/Speaker4_Per/P4-16-Per.wav,Speaker4,گوینده۴,0,70,70,75,,,,,107.60147916700225,,,,,,,,,,,,,,,,,,,,,,,,,,,,,,,,,,,,,,,,,46.81796666700029,46.818119542000204,229079,001,2024-07-01_23h30.05.508,5-28,2024.1.4,None,2024-07-01 23h30.10.358661 +0900,
Images/Speaker1.jpg,Images/Speaker2.jpg,Images/Speaker3.jpg,Images/Speaker4.jpg,Audio/Speaker1_Per/P1-1-Per.wav,Speaker1,گوینده ۱,0,71,71,0,,,,,107.60147916700225,,,,,,,,,,,,,,,,,,,,,,,,,,,,,,,,,,,,,,,,,46.83455304200106,46.834721125000215,229079,001,2024-07-01_23h30.05.508,5-28,2024.1.4,None,2024-07-01 23h30.10.358661 +0900,
Images/Speaker1.jpg,Images/Speaker2.jpg,Images/Speaker3.jpg,Images/Speaker4.jpg,Audio/Speaker2_Per/P2-18-Per.wav,Speaker2,گوینده۲,0,72,72,37,,,,,107.60147916700225,,,,,,,,,,,,,,,,,,,,,,,,,,,,,,,,,,,,,,,,,46.850232875000074,46.850405375000264,229079,001,2024-07-01_23h30.05.508,5-28,2024.1.4,None,2024-07-01 23h30.10.358661 +0900,
Images/Speaker1.jpg,Images/Speaker2.jpg,Images/Speaker3.jpg,Images/Speaker4.jpg,Audio/Speaker4_Per/P4-19-Per.wav,Speaker4,گوینده۴,0,73,73,78,,,,,107.60147916700225,,,,,,,,,,,,,,,,,,,,,,,,,,,,,,,,,,,,,,,,,46.86621745800221,46.866392333002295,229079,001,2024-07-01_23h30.05.508,5-28,2024.1.4,None,2024-07-01 23h30.10.358661 +0900,
Images/Speaker1.jpg,Images/Speaker2.jpg,Images/Speaker3.jpg,Images/Speaker4.jpg,Audio/Speaker1_Per/P1-7-Per.wav,Speaker1,گوینده ۱,0,74,74,6,,,,,107.60147916700225,,,,,,,,,,,,,,,,,,,,,,,,,,,,,,,,,,,,,,,,,46.88192425000307,46.882097833000444,229079,001,2024-07-01_23h30.05.508,5-28,2024.1.4,None,2024-07-01 23h30.10.358661 +0900,
Images/Speaker1.jpg,Images/Speaker2.jpg,Images/Speaker3.jpg,Images/Speaker4.jpg,Audio/Speaker3_Per/P3-9-Per.wav,Speaker3,گوینده۳,0,75,75,48,,,,,107.60147916700225,,,,,,,,,,,,,,,,,,,,,,,,,,,,,,,,,,,,,,,,,46.89829716700115,46.89845850000347,229079,001,2024-07-01_23h30.05.508,5-28,2024.1.4,None,2024-07-01 23h30.10.358661 +0900,
Images/Speaker1.jpg,Images/Speaker2.jpg,Images/Speaker3.jpg,Images/Speaker4.jpg,Audio/Speaker3_Per/P3-20-Per.wav,Speaker3,گوینده۳,0,76,76,59,,,,,107.60147916700225,,,,,,,,,,,,,,,,,,,,,,,,,,,,,,,,,,,,,,,,,46.9142300420026,46.914394082999934,229079,001,2024-07-01_23h30.05.508,5-28,2024.1.4,None,2024-07-01 23h30.10.358661 +0900,
Images/Speaker1.jpg,Images/Speaker2.jpg,Images/Speaker3.jpg,Images/Speaker4.jpg,Audio/Speaker1_Per/P1-12-Per.wav,Speaker1,گوینده ۱,0,77,77,11,,,,,107.60147916700225,,,,,,,,,,,,,,,,,,,,,,,,,,,,,,,,,,,,,,,,,46.93016004200035,46.93032379200304,229079,001,2024-07-01_23h30.05.508,5-28,2024.1.4,None,2024-07-01 23h30.10.358661 +0900,
Images/Speaker1.jpg,Images/Speaker2.jpg,Images/Speaker3.jpg,Images/Speaker4.jpg,Audio/Speaker3_Per/P3-2-Per.wav,Speaker3,گوینده۳,0,78,78,41,,,,,107.60147916700225,,,,,,,,,,,,,,,,,,,,,,,,,,,,,,,,,,,,,,,,,46.945980208001856,46.9461500000034,229079,001,2024-07-01_23h30.05.508,5-28,2024.1.4,None,2024-07-01 23h30.10.358661 +0900,
Images/Speaker1.jpg,Images/Speaker2.jpg,Images/Speaker3.jpg,Images/Speaker4.jpg,Audio/Speaker3_Per/P3-18-Per.wav,Speaker3,گوینده۳,0,79,79,57,,,,,107.60147916700225,,,,,,,,,,,,,,,,,,,,,,,,,,,,,,,,,,,,,,,,,46.96248991700122,46.96265504200346,229079,001,2024-07-01_23h30.05.508,5-28,2024.1.4,None,2024-07-01 23h30.10.358661 +0900,
Images/Speaker1.jpg,Images/Speaker2.jpg,Images/Speaker3.jpg,Images/Speaker4.jpg,Audio/Speaker2_Per/P2-6-Per.wav,Speaker2,گوینده۲,1,0,80,25,,,,,107.60147916700225,,,,,,,,,,,,,,,,,,,,,,,,,,,,,,,,,,,,,,,,,46.97833420800089,46.978508208001585,229079,001,2024-07-01_23h30.05.508,5-28,2024.1.4,None,2024-07-01 23h30.10.358661 +0900,
Images/Speaker1.jpg,Images/Speaker2.jpg,Images/Speaker3.jpg,Images/Speaker4.jpg,Audio/Speaker4_Per/P4-2-Per.wav,Speaker4,گوینده۴,1,1,81,61,,,,,107.60147916700225,,,,,,,,,,,,,,,,,,,,,,,,,,,,,,,,,,,,,,,,,46.99428075000105,46.99444854200192,229079,001,2024-07-01_23h30.05.508,5-28,2024.1.4,None,2024-07-01 23h30.10.358661 +0900,
Images/Speaker1.jpg,Images/Speaker2.jpg,Images/Speaker3.jpg,Images/Speaker4.jpg,Audio/Speaker2_Per/P2-17-Per.wav,Speaker2,گوینده۲,1,2,82,36,,,,,107.60147916700225,,,,,,,,,,,,,,,,,,,,,,,,,,,,,,,,,,,,,,,,,47.01020700000299,47.010370208001405,229079,001,2024-07-01_23h30.05.508,5-28,2024.1.4,None,2024-07-01 23h30.10.358661 +0900,
Images/Speaker1.jpg,Images/Speaker2.jpg,Images/Speaker3.jpg,Images/Speaker4.jpg,Audio/Speaker3_Per/P3-8-Per.wav,Speaker3,گوینده۳,1,3,83,47,,,,,107.60147916700225,,,,,,,,,,,,,,,,,,,,,,,,,,,,,,,,,,,,,,,,,47.0267730830019,47.026975000000675,229079,001,2024-07-01_23h30.05.508,5-28,2024.1.4,None,2024-07-01 23h30.10.358661 +0900,
Images/Speaker1.jpg,Images/Speaker2.jpg,Images/Speaker3.jpg,Images/Speaker4.jpg,Audio/Speaker1_Per/P1-18-Per.wav,Speaker1,گوینده ۱,1,4,84,17,,,,,107.60147916700225,,,,,,,,,,,,,,,,,,,,,,,,,,,,,,,,,,,,,,,,,47.04269708300126,47.0428697080024,229079,001,2024-07-01_23h30.05.508,5-28,2024.1.4,None,2024-07-01 23h30.10.358661 +0900,
Images/Speaker1.jpg,Images/Speaker2.jpg,Images/Speaker3.jpg,Images/Speaker4.jpg,Audio/Speaker1_Per/P1-19-Per.wav,Speaker1,گوینده ۱,1,5,85,18,,,,,107.60147916700225,,,,,,,,,,,,,,,,,,,,,,,,,,,,,,,,,,,,,,,,,47.05860162500176,47.0587675420029,229079,001,2024-07-01_23h30.05.508,5-28,2024.1.4,None,2024-07-01 23h30.10.358661 +0900,
Images/Speaker1.jpg,Images/Speaker2.jpg,Images/Speaker3.jpg,Images/Speaker4.jpg,Audio/Speaker2_Per/P2-4-Per.wav,Speaker2,گوینده۲,1,6,86,23,,,,,107.60147916700225,,,,,,,,,,,,,,,,,,,,,,,,,,,,,,,,,,,,,,,,,47.07454379200135,47.074751500000275,229079,001,2024-07-01_23h30.05.508,5-28,2024.1.4,None,2024-07-01 23h30.10.358661 +0900,
Images/Speaker1.jpg,Images/Speaker2.jpg,Images/Speaker3.jpg,Images/Speaker4.jpg,Audio/Speaker4_Per/P4-15-Per.wav,Speaker4,گوینده۴,1,7,87,74,,,,,107.60147916700225,,,,,,,,,,,,,,,,,,,,,,,,,,,,,,,,,,,,,,,,,47.091142708002735,47.09130500000174,229079,001,2024-07-01_23h30.05.508,5-28,2024.1.4,None,2024-07-01 23h30.10.358661 +0900,
Images/Speaker1.jpg,Images/Speaker2.jpg,Images/Speaker3.jpg,Images/Speaker4.jpg,Audio/Speaker1_Per/P1-5-Per.wav,Speaker1,گوینده ۱,1,8,88,4,,,,,107.60147916700225,,,,,,,,,,,,,,,,,,,,,,,,,,,,,,,,,,,,,,,,,47.10699020800166,47.10714474999986,229079,001,2024-07-01_23h30.05.508,5-28,2024.1.4,None,2024-07-01 23h30.10.358661 +0900,
Images/Speaker1.jpg,Images/Speaker2.jpg,Images/Speaker3.jpg,Images/Speaker4.jpg,Audio/Speaker3_Per/P3-10-Per.wav,Speaker3,گوینده۳,1,9,89,49,,,,,107.60147916700225,,,,,,,,,,,,,,,,,,,,,,,,,,,,,,,,,,,,,,,,,47.12284758300302,47.12301183300224,229079,001,2024-07-01_23h30.05.508,5-28,2024.1.4,None,2024-07-01 23h30.10.358661 +0900,
Images/Speaker1.jpg,Images/Speaker2.jpg,Images/Speaker3.jpg,Images/Speaker4.jpg,Audio/Speaker1_Per/P1-7-Per.wav,Speaker1,گوینده ۱,1,10,90,6,,,,,107.60147916700225,,,,,,,,,,,,,,,,,,,,,,,,,,,,,,,,,,,,,,,,,47.138716000001295,47.13888920800309,229079,001,2024-07-01_23h30.05.508,5-28,2024.1.4,None,2024-07-01 23h30.10.358661 +0900,
Images/Speaker1.jpg,Images/Speaker2.jpg,Images/Speaker3.jpg,Images/Speaker4.jpg,Audio/Speaker3_Per/P3-11-Per.wav,Speaker3,گوینده۳,1,11,91,50,,,,,107.60147916700225,,,,,,,,,,,,,,,,,,,,,,,,,,,,,,,,,,,,,,,,,47.15529104200323,47.15546537500268,229079,001,2024-07-01_23h30.05.508,5-28,2024.1.4,None,2024-07-01 23h30.10.358661 +0900,
Images/Speaker1.jpg,Images/Speaker2.jpg,Images/Speaker3.jpg,Images/Speaker4.jpg,Audio/Speaker1_Per/P1-8-Per.wav,Speaker1,گوینده ۱,1,12,92,7,,,,,107.60147916700225,,,,,,,,,,,,,,,,,,,,,,,,,,,,,,,,,,,,,,,,,47.17124191699986,47.171466458003124,229079,001,2024-07-01_23h30.05.508,5-28,2024.1.4,None,2024-07-01 23h30.10.358661 +0900,
Images/Speaker1.jpg,Images/Speaker2.jpg,Images/Speaker3.jpg,Images/Speaker4.jpg,Audio/Speaker2_Per/P2-13-Per.wav,Speaker2,گوینده۲,1,13,93,32,,,,,107.60147916700225,,,,,,,,,,,,,,,,,,,,,,,,,,,,,,,,,,,,,,,,,47.1870869580016,47.1872824580023,229079,001,2024-07-01_23h30.05.508,5-28,2024.1.4,None,2024-07-01 23h30.10.358661 +0900,
Images/Speaker1.jpg,Images/Speaker2.jpg,Images/Speaker3.jpg,Images/Speaker4.jpg,Audio/Speaker4_Per/P4-19-Per.wav,Speaker4,گوینده۴,1,14,94,78,,,,,107.60147916700225,,,,,,,,,,,,,,,,,,,,,,,,,,,,,,,,,,,,,,,,,47.20299766700191,47.20320029200229,229079,001,2024-07-01_23h30.05.508,5-28,2024.1.4,None,2024-07-01 23h30.10.358661 +0900,
Images/Speaker1.jpg,Images/Speaker2.jpg,Images/Speaker3.jpg,Images/Speaker4.jpg,Audio/Speaker4_Per/P4-16-Per.wav,Speaker4,گوینده۴,1,15,95,75,,,,,107.60147916700225,,,,,,,,,,,,,,,,,,,,,,,,,,,,,,,,,,,,,,,,,47.2195882920023,47.21976245800033,229079,001,2024-07-01_23h30.05.508,5-28,2024.1.4,None,2024-07-01 23h30.10.358661 +0900,
Images/Speaker1.jpg,Images/Speaker2.jpg,Images/Speaker3.jpg,Images/Speaker4.jpg,Audio/Speaker2_Per/P2-7-Per.wav,Speaker2,گوینده۲,1,16,96,26,,,,,107.60147916700225,,,,,,,,,,,,,,,,,,,,,,,,,,,,,,,,,,,,,,,,,47.23551570800191,47.23567616700166,229079,001,2024-07-01_23h30.05.508,5-28,2024.1.4,None,2024-07-01 23h30.10.358661 +0900,
Images/Speaker1.jpg,Images/Speaker2.jpg,Images/Speaker3.jpg,Images/Speaker4.jpg,Audio/Speaker1_Per/P1-3-Per.wav,Speaker1,گوینده ۱,1,17,97,2,,,,,107.60147916700225,,,,,,,,,,,,,,,,,,,,,,,,,,,,,,,,,,,,,,,,,47.25142895800309,47.25160400000095,229079,001,2024-07-01_23h30.05.508,5-28,2024.1.4,None,2024-07-01 23h30.10.358661 +0900,
Images/Speaker1.jpg,Images/Speaker2.jpg,Images/Speaker3.jpg,Images/Speaker4.jpg,Audio/Speaker3_Per/P3-3-Per.wav,Speaker3,گوینده۳,1,18,98,42,,,,,107.60147916700225,,,,,,,,,,,,,,,,,,,,,,,,,,,,,,,,,,,,,,,,,47.267284125002334,47.26743866700053,229079,001,2024-07-01_23h30.05.508,5-28,2024.1.4,None,2024-07-01 23h30.10.358661 +0900,
Images/Speaker1.jpg,Images/Speaker2.jpg,Images/Speaker3.jpg,Images/Speaker4.jpg,Audio/Speaker4_Per/P4-1-Per.wav,Speaker4,گوینده۴,1,19,99,60,,,,,107.60147916700225,,,,,,,,,,,,,,,,,,,,,,,,,,,,,,,,,,,,,,,,,47.28368641700217,47.28384008300054,229079,001,2024-07-01_23h30.05.508,5-28,2024.1.4,None,2024-07-01 23h30.10.358661 +0900,
Images/Speaker1.jpg,Images/Speaker2.jpg,Images/Speaker3.jpg,Images/Speaker4.jpg,Audio/Speaker3_Per/P3-19-Per.wav,Speaker3,گوینده۳,1,20,100,58,,,,,107.60147916700225,,,,,,,,,,,,,,,,,,,,,,,,,,,,,,,,,,,,,,,,,47.29953525000019,47.29971441700036,229079,001,2024-07-01_23h30.05.508,5-28,2024.1.4,None,2024-07-01 23h30.10.358661 +0900,
Images/Speaker1.jpg,Images/Speaker2.jpg,Images/Speaker3.jpg,Images/Speaker4.jpg,Audio/Speaker3_Per/P3-14-Per.wav,Speaker3,گوینده۳,1,21,101,53,,,,,107.60147916700225,,,,,,,,,,,,,,,,,,,,,,,,,,,,,,,,,,,,,,,,,47.31545641699995,47.31561920800232,229079,001,2024-07-01_23h30.05.508,5-28,2024.1.4,None,2024-07-01 23h30.10.358661 +0900,
Images/Speaker1.jpg,Images/Speaker2.jpg,Images/Speaker3.jpg,Images/Speaker4.jpg,Audio/Speaker3_Per/P3-1-Per.wav,Speaker3,گوینده۳,1,22,102,40,,,,,107.60147916700225,,,,,,,,,,,,,,,,,,,,,,,,,,,,,,,,,,,,,,,,,47.33140333300253,47.33156575000248,229079,001,2024-07-01_23h30.05.508,5-28,2024.1.4,None,2024-07-01 23h30.10.358661 +0900,
Images/Speaker1.jpg,Images/Speaker2.jpg,Images/Speaker3.jpg,Images/Speaker4.jpg,Audio/Speaker4_Per/P4-5-Per.wav,Speaker4,گوینده۴,1,23,103,64,,,,,107.60147916700225,,,,,,,,,,,,,,,,,,,,,,,,,,,,,,,,,,,,,,,,,47.34783504200095,47.34806458300227,229079,001,2024-07-01_23h30.05.508,5-28,2024.1.4,None,2024-07-01 23h30.10.358661 +0900,
Images/Speaker1.jpg,Images/Speaker2.jpg,Images/Speaker3.jpg,Images/Speaker4.jpg,Audio/Speaker4_Per/P4-20-Per.wav,Speaker4,گوینده۴,1,24,104,79,,,,,107.60147916700225,,,,,,,,,,,,,,,,,,,,,,,,,,,,,,,,,,,,,,,,,47.363716042000306,47.36388720800096,229079,001,2024-07-01_23h30.05.508,5-28,2024.1.4,None,2024-07-01 23h30.10.358661 +0900,
Images/Speaker1.jpg,Images/Speaker2.jpg,Images/Speaker3.jpg,Images/Speaker4.jpg,Audio/Speaker4_Per/P4-3-Per.wav,Speaker4,گوینده۴,1,25,105,62,,,,,107.60147916700225,,,,,,,,,,,,,,,,,,,,,,,,,,,,,,,,,,,,,,,,,47.37967904200195,47.37989075000223,229079,001,2024-07-01_23h30.05.508,5-28,2024.1.4,None,2024-07-01 23h30.10.358661 +0900,
Images/Speaker1.jpg,Images/Speaker2.jpg,Images/Speaker3.jpg,Images/Speaker4.jpg,Audio/Speaker2_Per/P2-8-Per.wav,Speaker2,گوینده۲,1,26,106,27,,,,,107.60147916700225,,,,,,,,,,,,,,,,,,,,,,,,,,,,,,,,,,,,,,,,,47.39557062500171,47.39574970800095,229079,001,2024-07-01_23h30.05.508,5-28,2024.1.4,None,2024-07-01 23h30.10.358661 +0900,
Images/Speaker1.jpg,Images/Speaker2.jpg,Images/Speaker3.jpg,Images/Speaker4.jpg,Audio/Speaker2_Per/P2-5-Per.wav,Speaker2,گوینده۲,1,27,107,24,,,,,107.60147916700225,,,,,,,,,,,,,,,,,,,,,,,,,,,,,,,,,,,,,,,,,47.412191667001025,47.41237408300003,229079,001,2024-07-01_23h30.05.508,5-28,2024.1.4,None,2024-07-01 23h30.10.358661 +0900,
Images/Speaker1.jpg,Images/Speaker2.jpg,Images/Speaker3.jpg,Images/Speaker4.jpg,Audio/Speaker4_Per/P4-18-Per.wav,Speaker4,گوینده۴,1,28,108,77,,,,,107.60147916700225,,,,,,,,,,,,,,,,,,,,,,,,,,,,,,,,,,,,,,,,,47.42797066700223,47.42813345800096,229079,001,2024-07-01_23h30.05.508,5-28,2024.1.4,None,2024-07-01 23h30.10.358661 +0900,
Images/Speaker1.jpg,Images/Speaker2.jpg,Images/Speaker3.jpg,Images/Speaker4.jpg,Audio/Speaker2_Per/P2-20-Per.wav,Speaker2,گوینده۲,1,29,109,39,,,,,107.60147916700225,,,,,,,,,,,,,,,,,,,,,,,,,,,,,,,,,,,,,,,,,47.443780792000325,47.44394766700134,229079,001,2024-07-01_23h30.05.508,5-28,2024.1.4,None,2024-07-01 23h30.10.358661 +0900,
Images/Speaker1.jpg,Images/Speaker2.jpg,Images/Speaker3.jpg,Images/Speaker4.jpg,Audio/Speaker3_Per/P3-18-Per.wav,Speaker3,گوینده۳,1,30,110,57,,,,,107.60147916700225,,,,,,,,,,,,,,,,,,,,,,,,,,,,,,,,,,,,,,,,,47.45973670800231,47.45991941700049,229079,001,2024-07-01_23h30.05.508,5-28,2024.1.4,None,2024-07-01 23h30.10.358661 +0900,
Images/Speaker1.jpg,Images/Speaker2.jpg,Images/Speaker3.jpg,Images/Speaker4.jpg,Audio/Speaker2_Per/P2-9-Per.wav,Speaker2,گوینده۲,1,31,111,28,,,,,107.60147916700225,,,,,,,,,,,,,,,,,,,,,,,,,,,,,,,,,,,,,,,,,47.47613491700031,47.476347833002364,229079,001,2024-07-01_23h30.05.508,5-28,2024.1.4,None,2024-07-01 23h30.10.358661 +0900,
Images/Speaker1.jpg,Images/Speaker2.jpg,Images/Speaker3.jpg,Images/Speaker4.jpg,Audio/Speaker4_Per/P4-6-Per.wav,Speaker4,گوینده۴,1,32,112,65,,,,,107.60147916700225,,,,,,,,,,,,,,,,,,,,,,,,,,,,,,,,,,,,,,,,,47.49204612500034,47.49225495800056,229079,001,2024-07-01_23h30.05.508,5-28,2024.1.4,None,2024-07-01 23h30.10.358661 +0900,
Images/Speaker1.jpg,Images/Speaker2.jpg,Images/Speaker3.jpg,Images/Speaker4.jpg,Audio/Speaker1_Per/P1-10-Per.wav,Speaker1,گوینده ۱,1,33,113,9,,,,,107.60147916700225,,,,,,,,,,,,,,,,,,,,,,,,,,,,,,,,,,,,,,,,,47.50792037500287,47.50811954200253,229079,001,2024-07-01_23h30.05.508,5-28,2024.1.4,None,2024-07-01 23h30.10.358661 +0900,
Images/Speaker1.jpg,Images/Speaker2.jpg,Images/Speaker3.jpg,Images/Speaker4.jpg,Audio/Speaker1_Per/P1-13-Per.wav,Speaker1,گوینده ۱,1,34,114,12,,,,,107.60147916700225,,,,,,,,,,,,,,,,,,,,,,,,,,,,,,,,,,,,,,,,,47.52378362500167,47.52398700000049,229079,001,2024-07-01_23h30.05.508,5-28,2024.1.4,None,2024-07-01 23h30.10.358661 +0900,
Images/Speaker1.jpg,Images/Speaker2.jpg,Images/Speaker3.jpg,Images/Speaker4.jpg,Audio/Speaker3_Per/P3-16-Per.wav,Speaker3,گوینده۳,1,35,115,55,,,,,107.60147916700225,,,,,,,,,,,,,,,,,,,,,,,,,,,,,,,,,,,,,,,,,47.54017675000068,47.54034304200104,229079,001,2024-07-01_23h30.05.508,5-28,2024.1.4,None,2024-07-01 23h30.10.358661 +0900,
Images/Speaker1.jpg,Images/Speaker2.jpg,Images/Speaker3.jpg,Images/Speaker4.jpg,Audio/Speaker4_Per/P4-4-Per.wav,Speaker4,گوینده۴,1,36,116,63,,,,,107.60147916700225,,,,,,,,,,,,,,,,,,,,,,,,,,,,,,,,,,,,,,,,,47.55607854200207,47.556271667002875,229079,001,2024-07-01_23h30.05.508,5-28,2024.1.4,None,2024-07-01 23h30.10.358661 +0900,
Images/Speaker1.jpg,Images/Speaker2.jpg,Images/Speaker3.jpg,Images/Speaker4.jpg,Audio/Speaker3_Per/P3-4-Per.wav,Speaker3,گوینده۳,1,37,117,43,,,,,107.60147916700225,,,,,,,,,,,,,,,,,,,,,,,,,,,,,,,,,,,,,,,,,47.57202787500137,47.572185458000604,229079,001,2024-07-01_23h30.05.508,5-28,2024.1.4,None,2024-07-01 23h30.10.358661 +0900,
Images/Speaker1.jpg,Images/Speaker2.jpg,Images/Speaker3.jpg,Images/Speaker4.jpg,Audio/Speaker2_Per/P2-19-Per.wav,Speaker2,گوینده۲,1,38,118,38,,,,,107.60147916700225,,,,,,,,,,,,,,,,,,,,,,,,,,,,,,,,,,,,,,,,,47.58788241700313,47.58809787500286,229079,001,2024-07-01_23h30.05.508,5-28,2024.1.4,None,2024-07-01 23h30.10.358661 +0900,
Images/Speaker1.jpg,Images/Speaker2.jpg,Images/Speaker3.jpg,Images/Speaker4.jpg,Audio/Speaker2_Per/P2-18-Per.wav,Speaker2,گوینده۲,1,39,119,37,,,,,107.60147916700225,,,,,,,,,,,,,,,,,,,,,,,,,,,,,,,,,,,,,,,,,47.60439979200237,47.604588167003385,229079,001,2024-07-01_23h30.05.508,5-28,2024.1.4,None,2024-07-01 23h30.10.358661 +0900,
Images/Speaker1.jpg,Images/Speaker2.jpg,Images/Speaker3.jpg,Images/Speaker4.jpg,Audio/Speaker3_Per/P3-12-Per.wav,Speaker3,گوینده۳,1,40,120,51,,,,,107.60147916700225,,,,,,,,,,,,,,,,,,,,,,,,,,,,,,,,,,,,,,,,,47.62036050000097,47.6205285420001,229079,001,2024-07-01_23h30.05.508,5-28,2024.1.4,None,2024-07-01 23h30.10.358661 +0900,
Images/Speaker1.jpg,Images/Speaker2.jpg,Images/Speaker3.jpg,Images/Speaker4.jpg,Audio/Speaker2_Per/P2-12-Per.wav,Speaker2,گوینده۲,1,41,121,31,,,,,107.60147916700225,,,,,,,,,,,,,,,,,,,,,,,,,,,,,,,,,,,,,,,,,47.6361737920015,47.63634954200097,229079,001,2024-07-01_23h30.05.508,5-28,2024.1.4,None,2024-07-01 23h30.10.358661 +0900,
Images/Speaker1.jpg,Images/Speaker2.jpg,Images/Speaker3.jpg,Images/Speaker4.jpg,Audio/Speaker1_Per/P1-16-Per.wav,Speaker1,گوینده ۱,1,42,122,15,,,,,107.60147916700225,,,,,,,,,,,,,,,,,,,,,,,,,,,,,,,,,,,,,,,,,47.65208091700333,47.65225616700263,229079,001,2024-07-01_23h30.05.508,5-28,2024.1.4,None,2024-07-01 23h30.10.358661 +0900,
Images/Speaker1.jpg,Images/Speaker2.jpg,Images/Speaker3.jpg,Images/Speaker4.jpg,Audio/Speaker2_Per/P2-16-Per.wav,Speaker2,گوینده۲,1,43,123,35,,,,,107.60147916700225,,,,,,,,,,,,,,,,,,,,,,,,,,,,,,,,,,,,,,,,,47.668626500002574,47.66884070800006,229079,001,2024-07-01_23h30.05.508,5-28,2024.1.4,None,2024-07-01 23h30.10.358661 +0900,
Images/Speaker1.jpg,Images/Speaker2.jpg,Images/Speaker3.jpg,Images/Speaker4.jpg,Audio/Speaker4_Per/P4-13-Per.wav,Speaker4,گوینده۴,1,44,124,72,,,,,107.60147916700225,,,,,,,,,,,,,,,,,,,,,,,,,,,,,,,,,,,,,,,,,47.684578708001936,47.68474412500291,229079,001,2024-07-01_23h30.05.508,5-28,2024.1.4,None,2024-07-01 23h30.10.358661 +0900,
Images/Speaker1.jpg,Images/Speaker2.jpg,Images/Speaker3.jpg,Images/Speaker4.jpg,Audio/Speaker2_Per/P2-15-Per.wav,Speaker2,گوینده۲,1,45,125,34,,,,,107.60147916700225,,,,,,,,,,,,,,,,,,,,,,,,,,,,,,,,,,,,,,,,,47.70050441700005,47.700671958002204,229079,001,2024-07-01_23h30.05.508,5-28,2024.1.4,None,2024-07-01 23h30.10.358661 +0900,
Images/Speaker1.jpg,Images/Speaker2.jpg,Images/Speaker3.jpg,Images/Speaker4.jpg,Audio/Speaker1_Per/P1-4-Per.wav,Speaker1,گوینده ۱,1,46,126,3,,,,,107.60147916700225,,,,,,,,,,,,,,,,,,,,,,,,,,,,,,,,,,,,,,,,,47.71634808300223,47.716513833001954,229079,001,2024-07-01_23h30.05.508,5-28,2024.1.4,None,2024-07-01 23h30.10.358661 +0900,
Images/Speaker1.jpg,Images/Speaker2.jpg,Images/Speaker3.jpg,Images/Speaker4.jpg,Audio/Speaker4_Per/P4-14-Per.wav,Speaker4,گوینده۴,1,47,127,73,,,,,107.60147916700225,,,,,,,,,,,,,,,,,,,,,,,,,,,,,,,,,,,,,,,,,47.73287425000308,47.733056417000626,229079,001,2024-07-01_23h30.05.508,5-28,2024.1.4,None,2024-07-01 23h30.10.358661 +0900,
Images/Speaker1.jpg,Images/Speaker2.jpg,Images/Speaker3.jpg,Images/Speaker4.jpg,Audio/Speaker4_Per/P4-10-Per.wav,Speaker4,گوینده۴,1,48,128,69,,,,,107.60147916700225,,,,,,,,,,,,,,,,,,,,,,,,,,,,,,,,,,,,,,,,,47.74884391700107,47.74898866700096,229079,001,2024-07-01_23h30.05.508,5-28,2024.1.4,None,2024-07-01 23h30.10.358661 +0900,
Images/Speaker1.jpg,Images/Speaker2.jpg,Images/Speaker3.jpg,Images/Speaker4.jpg,Audio/Speaker3_Per/P3-2-Per.wav,Speaker3,گوینده۳,1,49,129,41,,,,,107.60147916700225,,,,,,,,,,,,,,,,,,,,,,,,,,,,,,,,,,,,,,,,,47.76463237500138,47.764834042001894,229079,001,2024-07-01_23h30.05.508,5-28,2024.1.4,None,2024-07-01 23h30.10.358661 +0900,
Images/Speaker1.jpg,Images/Speaker2.jpg,Images/Speaker3.jpg,Images/Speaker4.jpg,Audio/Speaker1_Per/P1-20-Per.wav,Speaker1,گوینده ۱,1,50,130,19,,,,,107.60147916700225,,,,,,,,,,,,,,,,,,,,,,,,,,,,,,,,,,,,,,,,,47.78056225000182,47.78071554200142,229079,001,2024-07-01_23h30.05.508,5-28,2024.1.4,None,2024-07-01 23h30.10.358661 +0900,
Images/Speaker1.jpg,Images/Speaker2.jpg,Images/Speaker3.jpg,Images/Speaker4.jpg,Audio/Speaker1_Per/P1-11-Per.wav,Speaker1,گوینده ۱,1,51,131,10,,,,,107.60147916700225,,,,,,,,,,,,,,,,,,,,,,,,,,,,,,,,,,,,,,,,,47.797135708002315,47.79733216700333,229079,001,2024-07-01_23h30.05.508,5-28,2024.1.4,None,2024-07-01 23h30.10.358661 +0900,
Images/Speaker1.jpg,Images/Speaker2.jpg,Images/Speaker3.jpg,Images/Speaker4.jpg,Audio/Speaker1_Per/P1-6-Per.wav,Speaker1,گوینده ۱,1,52,132,5,,,,,107.60147916700225,,,,,,,,,,,,,,,,,,,,,,,,,,,,,,,,,,,,,,,,,47.813059500000236,47.81327454200073,229079,001,2024-07-01_23h30.05.508,5-28,2024.1.4,None,2024-07-01 23h30.10.358661 +0900,
Images/Speaker1.jpg,Images/Speaker2.jpg,Images/Speaker3.jpg,Images/Speaker4.jpg,Audio/Speaker2_Per/P2-2-Per.wav,Speaker2,گوینده۲,1,53,133,21,,,,,107.60147916700225,,,,,,,,,,,,,,,,,,,,,,,,,,,,,,,,,,,,,,,,,47.82891012500113,47.82911241700276,229079,001,2024-07-01_23h30.05.508,5-28,2024.1.4,None,2024-07-01 23h30.10.358661 +0900,
Images/Speaker1.jpg,Images/Speaker2.jpg,Images/Speaker3.jpg,Images/Speaker4.jpg,Audio/Speaker2_Per/P2-14-Per.wav,Speaker2,گوینده۲,1,54,134,33,,,,,107.60147916700225,,,,,,,,,,,,,,,,,,,,,,,,,,,,,,,,,,,,,,,,,47.84476895800253,47.84495420800158,229079,001,2024-07-01_23h30.05.508,5-28,2024.1.4,None,2024-07-01 23h30.10.358661 +0900,
Images/Speaker1.jpg,Images/Speaker2.jpg,Images/Speaker3.jpg,Images/Speaker4.jpg,Audio/Speaker3_Per/P3-9-Per.wav,Speaker3,گوینده۳,1,55,135,48,,,,,107.60147916700225,,,,,,,,,,,,,,,,,,,,,,,,,,,,,,,,,,,,,,,,,47.86142862500128,47.86161083300249,229079,001,2024-07-01_23h30.05.508,5-28,2024.1.4,None,2024-07-01 23h30.10.358661 +0900,
Images/Speaker1.jpg,Images/Speaker2.jpg,Images/Speaker3.jpg,Images/Speaker4.jpg,Audio/Speaker1_Per/P1-2-Per.wav,Speaker1,گوینده ۱,1,56,136,1,,,,,107.60147916700225,,,,,,,,,,,,,,,,,,,,,,,,,,,,,,,,,,,,,,,,,47.87722466700143,47.87739750000037,229079,001,2024-07-01_23h30.05.508,5-28,2024.1.4,None,2024-07-01 23h30.10.358661 +0900,
Images/Speaker1.jpg,Images/Speaker2.jpg,Images/Speaker3.jpg,Images/Speaker4.jpg,Audio/Speaker1_Per/P1-15-Per.wav,Speaker1,گوینده ۱,1,57,137,14,,,,,107.60147916700225,,,,,,,,,,,,,,,,,,,,,,,,,,,,,,,,,,,,,,,,,47.89317800000208,47.89333824999994,229079,001,2024-07-01_23h30.05.508,5-28,2024.1.4,None,2024-07-01 23h30.10.358661 +0900,
Images/Speaker1.jpg,Images/Speaker2.jpg,Images/Speaker3.jpg,Images/Speaker4.jpg,Audio/Speaker3_Per/P3-17-Per.wav,Speaker3,گوینده۳,1,58,138,56,,,,,107.60147916700225,,,,,,,,,,,,,,,,,,,,,,,,,,,,,,,,,,,,,,,,,47.90905016700344,47.909231000001455,229079,001,2024-07-01_23h30.05.508,5-28,2024.1.4,None,2024-07-01 23h30.10.358661 +0900,
Images/Speaker1.jpg,Images/Speaker2.jpg,Images/Speaker3.jpg,Images/Speaker4.jpg,Audio/Speaker1_Per/P1-17-Per.wav,Speaker1,گوینده ۱,1,59,139,16,,,,,107.60147916700225,,,,,,,,,,,,,,,,,,,,,,,,,,,,,,,,,,,,,,,,,47.92555212500156,47.92573054200329,229079,001,2024-07-01_23h30.05.508,5-28,2024.1.4,None,2024-07-01 23h30.10.358661 +0900,
Images/Speaker1.jpg,Images/Speaker2.jpg,Images/Speaker3.jpg,Images/Speaker4.jpg,Audio/Speaker1_Per/P1-1-Per.wav,Speaker1,گوینده ۱,1,60,140,0,,,,,107.60147916700225,,,,,,,,,,,,,,,,,,,,,,,,,,,,,,,,,,,,,,,,,47.941437500001484,47.94159962500271,229079,001,2024-07-01_23h30.05.508,5-28,2024.1.4,None,2024-07-01 23h30.10.358661 +0900,
Images/Speaker1.jpg,Images/Speaker2.jpg,Images/Speaker3.jpg,Images/Speaker4.jpg,Audio/Speaker3_Per/P3-6-Per.wav,Speaker3,گوینده۳,1,61,141,45,,,,,107.60147916700225,,,,,,,,,,,,,,,,,,,,,,,,,,,,,,,,,,,,,,,,,47.957315958003164,47.957471917001385,229079,001,2024-07-01_23h30.05.508,5-28,2024.1.4,None,2024-07-01 23h30.10.358661 +0900,
Images/Speaker1.jpg,Images/Speaker2.jpg,Images/Speaker3.jpg,Images/Speaker4.jpg,Audio/Speaker4_Per/P4-8-Per.wav,Speaker4,گوینده۴,1,62,142,67,,,,,107.60147916700225,,,,,,,,,,,,,,,,,,,,,,,,,,,,,,,,,,,,,,,,,47.9732044170014,47.97337462500218,229079,001,2024-07-01_23h30.05.508,5-28,2024.1.4,None,2024-07-01 23h30.10.358661 +0900,
Images/Speaker1.jpg,Images/Speaker2.jpg,Images/Speaker3.jpg,Images/Speaker4.jpg,Audio/Speaker3_Per/P3-13-Per.wav,Speaker3,گوینده۳,1,63,143,52,,,,,107.60147916700225,,,,,,,,,,,,,,,,,,,,,,,,,,,,,,,,,,,,,,,,,47.98972533300184,47.9898705830019,229079,001,2024-07-01_23h30.05.508,5-28,2024.1.4,None,2024-07-01 23h30.10.358661 +0900,
Images/Speaker1.jpg,Images/Speaker2.jpg,Images/Speaker3.jpg,Images/Speaker4.jpg,Audio/Speaker3_Per/P3-15-Per.wav,Speaker3,گوینده۳,1,64,144,54,,,,,107.60147916700225,,,,,,,,,,,,,,,,,,,,,,,,,,,,,,,,,,,,,,,,,48.00566204200004,48.00589454200235,229079,001,2024-07-01_23h30.05.508,5-28,2024.1.4,None,2024-07-01 23h30.10.358661 +0900,
Images/Speaker1.jpg,Images/Speaker2.jpg,Images/Speaker3.jpg,Images/Speaker4.jpg,Audio/Speaker3_Per/P3-5-Per.wav,Speaker3,گوینده۳,1,65,145,44,,,,,107.60147916700225,,,,,,,,,,,,,,,,,,,,,,,,,,,,,,,,,,,,,,,,,48.021647333000146,48.02186462500322,229079,001,2024-07-01_23h30.05.508,5-28,2024.1.4,None,2024-07-01 23h30.10.358661 +0900,
Images/Speaker1.jpg,Images/Speaker2.jpg,Images/Speaker3.jpg,Images/Speaker4.jpg,Audio/Speaker2_Per/P2-10-Per.wav,Speaker2,گوینده۲,1,66,146,29,,,,,107.60147916700225,,,,,,,,,,,,,,,,,,,,,,,,,,,,,,,,,,,,,,,,,48.03759945800266,48.03778033300114,229079,001,2024-07-01_23h30.05.508,5-28,2024.1.4,None,2024-07-01 23h30.10.358661 +0900,
Images/Speaker1.jpg,Images/Speaker2.jpg,Images/Speaker3.jpg,Images/Speaker4.jpg,Audio/Speaker2_Per/P2-3-Per.wav,Speaker2,گوینده۲,1,67,147,22,,,,,107.60147916700225,,,,,,,,,,,,,,,,,,,,,,,,,,,,,,,,,,,,,,,,,48.05421979200037,48.05439254200246,229079,001,2024-07-01_23h30.05.508,5-28,2024.1.4,None,2024-07-01 23h30.10.358661 +0900,
Images/Speaker1.jpg,Images/Speaker2.jpg,Images/Speaker3.jpg,Images/Speaker4.jpg,Audio/Speaker4_Per/P4-9-Per.wav,Speaker4,گوینده۴,1,68,148,68,,,,,107.60147916700225,,,,,,,,,,,,,,,,,,,,,,,,,,,,,,,,,,,,,,,,,48.07009854200078,48.07025929200245,229079,001,2024-07-01_23h30.05.508,5-28,2024.1.4,None,2024-07-01 23h30.10.358661 +0900,
Images/Speaker1.jpg,Images/Speaker2.jpg,Images/Speaker3.jpg,Images/Speaker4.jpg,Audio/Speaker1_Per/P1-9-Per.wav,Speaker1,گوینده ۱,1,69,149,8,,,,,107.60147916700225,,,,,,,,,,,,,,,,,,,,,,,,,,,,,,,,,,,,,,,,,48.0860308750016,48.08618520800155,229079,001,2024-07-01_23h30.05.508,5-28,2024.1.4,None,2024-07-01 23h30.10.358661 +0900,
Images/Speaker1.jpg,Images/Speaker2.jpg,Images/Speaker3.jpg,Images/Speaker4.jpg,Audio/Speaker4_Per/P4-11-Per.wav,Speaker4,گوینده۴,1,70,150,70,,,,,107.60147916700225,,,,,,,,,,,,,,,,,,,,,,,,,,,,,,,,,,,,,,,,,48.10185608300162,48.10202350000327,229079,001,2024-07-01_23h30.05.508,5-28,2024.1.4,None,2024-07-01 23h30.10.358661 +0900,
Images/Speaker1.jpg,Images/Speaker2.jpg,Images/Speaker3.jpg,Images/Speaker4.jpg,Audio/Speaker2_Per/P2-1-Per.wav,Speaker2,گوینده۲,1,71,151,20,,,,,107.60147916700225,,,,,,,,,,,,,,,,,,,,,,,,,,,,,,,,,,,,,,,,,48.11843420800142,48.11859812500188,229079,001,2024-07-01_23h30.05.508,5-28,2024.1.4,None,2024-07-01 23h30.10.358661 +0900,
Images/Speaker1.jpg,Images/Speaker2.jpg,Images/Speaker3.jpg,Images/Speaker4.jpg,Audio/Speaker4_Per/P4-17-Per.wav,Speaker4,گوینده۴,1,72,152,76,,,,,107.60147916700225,,,,,,,,,,,,,,,,,,,,,,,,,,,,,,,,,,,,,,,,,48.13454204200025,48.13471908300198,229079,001,2024-07-01_23h30.05.508,5-28,2024.1.4,None,2024-07-01 23h30.10.358661 +0900,
Images/Speaker1.jpg,Images/Speaker2.jpg,Images/Speaker3.jpg,Images/Speaker4.jpg,Audio/Speaker1_Per/P1-4-Per.wav,Speaker1,گوینده ۱,1,73,153,13,,,,,107.60147916700225,,,,,,,,,,,,,,,,,,,,,,,,,,,,,,,,,,,,,,,,,48.15033925000171,48.15051166700141,229079,001,2024-07-01_23h30.05.508,5-28,2024.1.4,None,2024-07-01 23h30.10.358661 +0900,
Images/Speaker1.jpg,Images/Speaker2.jpg,Images/Speaker3.jpg,Images/Speaker4.jpg,Audio/Speaker1_Per/P1-12-Per.wav,Speaker1,گوینده ۱,1,74,154,11,,,,,107.60147916700225,,,,,,,,,,,,,,,,,,,,,,,,,,,,,,,,,,,,,,,,,48.166212500000256,48.16638266700102,229079,001,2024-07-01_23h30.05.508,5-28,2024.1.4,None,2024-07-01 23h30.10.358661 +0900,
Images/Speaker1.jpg,Images/Speaker2.jpg,Images/Speaker3.jpg,Images/Speaker4.jpg,Audio/Speaker2_Per/P2-11-Per.wav,Speaker2,گوینده۲,1,75,155,30,,,,,107.60147916700225,,,,,,,,,,,,,,,,,,,,,,,,,,,,,,,,,,,,,,,,,48.18270504200336,48.18289920800089,229079,001,2024-07-01_23h30.05.508,5-28,2024.1.4,None,2024-07-01 23h30.10.358661 +0900,
Images/Speaker1.jpg,Images/Speaker2.jpg,Images/Speaker3.jpg,Images/Speaker4.jpg,Audio/Speaker4_Per/P4-12-Per.wav,Speaker4,گوینده۴,1,76,156,71,,,,,107.60147916700225,,,,,,,,,,,,,,,,,,,,,,,,,,,,,,,,,,,,,,,,,48.198577417002525,48.19878641700052,229079,001,2024-07-01_23h30.05.508,5-28,2024.1.4,None,2024-07-01 23h30.10.358661 +0900,
Images/Speaker1.jpg,Images/Speaker2.jpg,Images/Speaker3.jpg,Images/Speaker4.jpg,Audio/Speaker4_Per/P4-7-Per.wav,Speaker4,گوینده۴,1,77,157,66,,,,,107.60147916700225,,,,,,,,,,,,,,,,,,,,,,,,,,,,,,,,,,,,,,,,,48.21447916700345,48.2146335000034,229079,001,2024-07-01_23h30.05.508,5-28,2024.1.4,None,2024-07-01 23h30.10.358661 +0900,
Images/Speaker1.jpg,Images/Speaker2.jpg,Images/Speaker3.jpg,Images/Speaker4.jpg,Audio/Speaker3_Per/P3-7-Per.wav,Speaker3,گوینده۳,1,78,158,46,,,,,107.60147916700225,,,,,,,,,,,,,,,,,,,,,,,,,,,,,,,,,,,,,,,,,48.23044508300154,48.230657000000065,229079,001,2024-07-01_23h30.05.508,5-28,2024.1.4,None,2024-07-01 23h30.10.358661 +0900,
Images/Speaker1.jpg,Images/Speaker2.jpg,Images/Speaker3.jpg,Images/Speaker4.jpg,Audio/Speaker3_Per/P3-20-Per.wav,Speaker3,گوینده۳,1,79,159,59,,,,,107.60147916700225,,,,,,,,,,,,,,,,,,,,,,,,,,,,,,,,,,,,,,,,,48.2470398330006,48.24720687500303,229079,001,2024-07-01_23h30.05.508,5-28,2024.1.4,None,2024-07-01 23h30.10.358661 +0900,
Images/Speaker1.jpg,Images/Speaker2.jpg,Images/Speaker3.jpg,Images/Speaker4.jpg,Audio/Speaker1_Per/P1-20-Per.wav,Speaker1,گوینده ۱,2,0,160,19,,,,,107.60147916700225,,,,,,,,,,,,,,,,,,,,,,,,,,,,,,,,,,,,,,,,,48.262872333001724,48.2630530000024,229079,001,2024-07-01_23h30.05.508,5-28,2024.1.4,None,2024-07-01 23h30.10.358661 +0900,
Images/Speaker1.jpg,Images/Speaker2.jpg,Images/Speaker3.jpg,Images/Speaker4.jpg,Audio/Speaker3_Per/P3-4-Per.wav,Speaker3,گوینده۳,2,1,161,43,,,,,107.60147916700225,,,,,,,,,,,,,,,,,,,,,,,,,,,,,,,,,,,,,,,,,48.27873450000334,48.27890525000112,229079,001,2024-07-01_23h30.05.508,5-28,2024.1.4,None,2024-07-01 23h30.10.358661 +0900,
Images/Speaker1.jpg,Images/Speaker2.jpg,Images/Speaker3.jpg,Images/Speaker4.jpg,Audio/Speaker4_Per/P4-9-Per.wav,Speaker4,گوینده۴,2,2,162,68,,,,,107.60147916700225,,,,,,,,,,,,,,,,,,,,,,,,,,,,,,,,,,,,,,,,,48.29449279200344,48.29466591700111,229079,001,2024-07-01_23h30.05.508,5-28,2024.1.4,None,2024-07-01 23h30.10.358661 +0900,
Images/Speaker1.jpg,Images/Speaker2.jpg,Images/Speaker3.jpg,Images/Speaker4.jpg,Audio/Speaker3_Per/P3-11-Per.wav,Speaker3,گوینده۳,2,3,163,50,,,,,107.60147916700225,,,,,,,,,,,,,,,,,,,,,,,,,,,,,,,,,,,,,,,,,48.31101983300323,48.31120766700042,229079,001,2024-07-01_23h30.05.508,5-28,2024.1.4,None,2024-07-01 23h30.10.358661 +0900,
Images/Speaker1.jpg,Images/Speaker2.jpg,Images/Speaker3.jpg,Images/Speaker4.jpg,Audio/Speaker4_Per/P4-18-Per.wav,Speaker4,گوینده۴,2,4,164,77,,,,,107.60147916700225,,,,,,,,,,,,,,,,,,,,,,,,,,,,,,,,,,,,,,,,,48.32689908300017,48.327082250001695,229079,001,2024-07-01_23h30.05.508,5-28,2024.1.4,None,2024-07-01 23h30.10.358661 +0900,
Images/Speaker1.jpg,Images/Speaker2.jpg,Images/Speaker3.jpg,Images/Speaker4.jpg,Audio/Speaker4_Per/P4-11-Per.wav,Speaker4,گوینده۴,2,5,165,70,,,,,107.60147916700225,,,,,,,,,,,,,,,,,,,,,,,,,,,,,,,,,,,,,,,,,48.34286995799994,48.34304500000144,229079,001,2024-07-01_23h30.05.508,5-28,2024.1.4,None,2024-07-01 23h30.10.358661 +0900,
Images/Speaker1.jpg,Images/Speaker2.jpg,Images/Speaker3.jpg,Images/Speaker4.jpg,Audio/Speaker4_Per/P4-14-Per.wav,Speaker4,گوینده۴,2,6,166,73,,,,,107.60147916700225,,,,,,,,,,,,,,,,,,,,,,,,,,,,,,,,,,,,,,,,,48.35876583300342,48.35893974999999,229079,001,2024-07-01_23h30.05.508,5-28,2024.1.4,None,2024-07-01 23h30.10.358661 +0900,
Images/Speaker1.jpg,Images/Speaker2.jpg,Images/Speaker3.jpg,Images/Speaker4.jpg,Audio/Speaker2_Per/P2-3-Per.wav,Speaker2,گوینده۲,2,7,167,22,,,,,107.60147916700225,,,,,,,,,,,,,,,,,,,,,,,,,,,,,,,,,,,,,,,,,48.375100958000985,48.37529125000219,229079,001,2024-07-01_23h30.05.508,5-28,2024.1.4,None,2024-07-01 23h30.10.358661 +0900,
Images/Speaker1.jpg,Images/Speaker2.jpg,Images/Speaker3.jpg,Images/Speaker4.jpg,Audio/Speaker3_Per/P3-7-Per.wav,Speaker3,گوینده۳,2,8,168,46,,,,,107.60147916700225,,,,,,,,,,,,,,,,,,,,,,,,,,,,,,,,,,,,,,,,,48.3909260420005,48.39114058300038,229079,001,2024-07-01_23h30.05.508,5-28,2024.1.4,None,2024-07-01 23h30.10.358661 +0900,
Images/Speaker1.jpg,Images/Speaker2.jpg,Images/Speaker3.jpg,Images/Speaker4.jpg,Audio/Speaker4_Per/P4-19-Per.wav,Speaker4,گوینده۴,2,9,169,78,,,,,107.60147916700225,,,,,,,,,,,,,,,,,,,,,,,,,,,,,,,,,,,,,,,,,48.40673725000306,48.406894167001155,229079,001,2024-07-01_23h30.05.508,5-28,2024.1.4,None,2024-07-01 23h30.10.358661 +0900,
Images/Speaker1.jpg,Images/Speaker2.jpg,Images/Speaker3.jpg,Images/Speaker4.jpg,Audio/Speaker2_Per/P2-12-Per.wav,Speaker2,گوینده۲,2,10,170,31,,,,,107.60147916700225,,,,,,,,,,,,,,,,,,,,,,,,,,,,,,,,,,,,,,,,,48.42252704200291,48.42269420800221,229079,001,2024-07-01_23h30.05.508,5-28,2024.1.4,None,2024-07-01 23h30.10.358661 +0900,
Images/Speaker1.jpg,Images/Speaker2.jpg,Images/Speaker3.jpg,Images/Speaker4.jpg,Audio/Speaker3_Per/P3-14-Per.wav,Speaker3,گوینده۳,2,11,171,53,,,,,107.60147916700225,,,,,,,,,,,,,,,,,,,,,,,,,,,,,,,,,,,,,,,,,48.43896370800212,48.43912562500191,229079,001,2024-07-01_23h30.05.508,5-28,2024.1.4,None,2024-07-01 23h30.10.358661 +0900,
Images/Speaker1.jpg,Images/Speaker2.jpg,Images/Speaker3.jpg,Images/Speaker4.jpg,Audio/Speaker4_Per/P4-5-Per.wav,Speaker4,گوینده۴,2,12,172,64,,,,,107.60147916700225,,,,,,,,,,,,,,,,,,,,,,,,,,,,,,,,,,,,,,,,,48.45482683299997,48.45503733300211,229079,001,2024-07-01_23h30.05.508,5-28,2024.1.4,None,2024-07-01 23h30.10.358661 +0900,
Images/Speaker1.jpg,Images/Speaker2.jpg,Images/Speaker3.jpg,Images/Speaker4.jpg,Audio/Speaker1_Per/P1-7-Per.wav,Speaker1,گوینده ۱,2,13,173,6,,,,,107.60147916700225,,,,,,,,,,,,,,,,,,,,,,,,,,,,,,,,,,,,,,,,,48.47067062499991,48.470839625002554,229079,001,2024-07-01_23h30.05.508,5-28,2024.1.4,None,2024-07-01 23h30.10.358661 +0900,
Images/Speaker1.jpg,Images/Speaker2.jpg,Images/Speaker3.jpg,Images/Speaker4.jpg,Audio/Speaker2_Per/P2-14-Per.wav,Speaker2,گوینده۲,2,14,174,33,,,,,107.60147916700225,,,,,,,,,,,,,,,,,,,,,,,,,,,,,,,,,,,,,,,,,48.486586375001934,48.48680733299989,229079,001,2024-07-01_23h30.05.508,5-28,2024.1.4,None,2024-07-01 23h30.10.358661 +0900,
Images/Speaker1.jpg,Images/Speaker2.jpg,Images/Speaker3.jpg,Images/Speaker4.jpg,Audio/Speaker3_Per/P3-6-Per.wav,Speaker3,گوینده۳,2,15,175,45,,,,,107.60147916700225,,,,,,,,,,,,,,,,,,,,,,,,,,,,,,,,,,,,,,,,,48.50301454200235,48.50317950000317,229079,001,2024-07-01_23h30.05.508,5-28,2024.1.4,None,2024-07-01 23h30.10.358661 +0900,
Images/Speaker1.jpg,Images/Speaker2.jpg,Images/Speaker3.jpg,Images/Speaker4.jpg,Audio/Speaker3_Per/P3-15-Per.wav,Speaker3,گوینده۳,2,16,176,54,,,,,107.60147916700225,,,,,,,,,,,,,,,,,,,,,,,,,,,,,,,,,,,,,,,,,48.51896175000002,48.51911962500162,229079,001,2024-07-01_23h30.05.508,5-28,2024.1.4,None,2024-07-01 23h30.10.358661 +0900,
Images/Speaker1.jpg,Images/Speaker2.jpg,Images/Speaker3.jpg,Images/Speaker4.jpg,Audio/Speaker2_Per/P2-1-Per.wav,Speaker2,گوینده۲,2,17,177,20,,,,,107.60147916700225,,,,,,,,,,,,,,,,,,,,,,,,,,,,,,,,,,,,,,,,,48.53491237500202,48.53508491700268,229079,001,2024-07-01_23h30.05.508,5-28,2024.1.4,None,2024-07-01 23h30.10.358661 +0900,
Images/Speaker1.jpg,Images/Speaker2.jpg,Images/Speaker3.jpg,Images/Speaker4.jpg,Audio/Speaker4_Per/P4-1-Per.wav,Speaker4,گوینده۴,2,18,178,60,,,,,107.60147916700225,,,,,,,,,,,,,,,,,,,,,,,,,,,,,,,,,,,,,,,,,48.550692042001174,48.55084579200047,229079,001,2024-07-01_23h30.05.508,5-28,2024.1.4,None,2024-07-01 23h30.10.358661 +0900,
Images/Speaker1.jpg,Images/Speaker2.jpg,Images/Speaker3.jpg,Images/Speaker4.jpg,Audio/Speaker4_Per/P4-7-Per.wav,Speaker4,گوینده۴,2,19,179,66,,,,,107.60147916700225,,,,,,,,,,,,,,,,,,,,,,,,,,,,,,,,,,,,,,,,,48.56703975000346,48.567194541999925,229079,001,2024-07-01_23h30.05.508,5-28,2024.1.4,None,2024-07-01 23h30.10.358661 +0900,
Images/Speaker1.jpg,Images/Speaker2.jpg,Images/Speaker3.jpg,Images/Speaker4.jpg,Audio/Speaker4_Per/P4-2-Per.wav,Speaker4,گوینده۴,2,20,180,61,,,,,107.60147916700225,,,,,,,,,,,,,,,,,,,,,,,,,,,,,,,,,,,,,,,,,48.58284625000306,48.583010207999905,229079,001,2024-07-01_23h30.05.508,5-28,2024.1.4,None,2024-07-01 23h30.10.358661 +0900,
Images/Speaker1.jpg,Images/Speaker2.jpg,Images/Speaker3.jpg,Images/Speaker4.jpg,Audio/Speaker4_Per/P4-20-Per.wav,Speaker4,گوینده۴,2,21,181,79,,,,,107.60147916700225,,,,,,,,,,,,,,,,,,,,,,,,,,,,,,,,,,,,,,,,,48.59871708300125,48.5989246670033,229079,001,2024-07-01_23h30.05.508,5-28,2024.1.4,None,2024-07-01 23h30.10.358661 +0900,
Images/Speaker1.jpg,Images/Speaker2.jpg,Images/Speaker3.jpg,Images/Speaker4.jpg,Audio/Speaker2_Per/P2-13-Per.wav,Speaker2,گوینده۲,2,22,182,32,,,,,107.60147916700225,,,,,,,,,,,,,,,,,,,,,,,,,,,,,,,,,,,,,,,,,48.61457812500157,48.614770292002504,229079,001,2024-07-01_23h30.05.508,5-28,2024.1.4,None,2024-07-01 23h30.10.358661 +0900,
Images/Speaker1.jpg,Images/Speaker2.jpg,Images/Speaker3.jpg,Images/Speaker4.jpg,Audio/Speaker2_Per/P2-18-Per.wav,Speaker2,گوینده۲,2,23,183,37,,,,,107.60147916700225,,,,,,,,,,,,,,,,,,,,,,,,,,,,,,,,,,,,,,,,,48.6310852500028,48.63124612500178,229079,001,2024-07-01_23h30.05.508,5-28,2024.1.4,None,2024-07-01 23h30.10.358661 +0900,
Images/Speaker1.jpg,Images/Speaker2.jpg,Images/Speaker3.jpg,Images/Speaker4.jpg,Audio/Speaker1_Per/P1-3-Per.wav,Speaker1,گوینده ۱,2,24,184,2,,,,,107.60147916700225,,,,,,,,,,,,,,,,,,,,,,,,,,,,,,,,,,,,,,,,,48.647066875000746,48.6472171250025,229079,001,2024-07-01_23h30.05.508,5-28,2024.1.4,None,2024-07-01 23h30.10.358661 +0900,
Images/Speaker1.jpg,Images/Speaker2.jpg,Images/Speaker3.jpg,Images/Speaker4.jpg,Audio/Speaker4_Per/P4-4-Per.wav,Speaker4,گوینده۴,2,25,185,63,,,,,107.60147916700225,,,,,,,,,,,,,,,,,,,,,,,,,,,,,,,,,,,,,,,,,48.66290445800041,48.6630658330032,229079,001,2024-07-01_23h30.05.508,5-28,2024.1.4,None,2024-07-01 23h30.10.358661 +0900,
Images/Speaker1.jpg,Images/Speaker2.jpg,Images/Speaker3.jpg,Images/Speaker4.jpg,Audio/Speaker3_Per/P3-13-Per.wav,Speaker3,گوینده۳,2,26,186,52,,,,,107.60147916700225,,,,,,,,,,,,,,,,,,,,,,,,,,,,,,,,,,,,,,,,,48.67887008300022,48.67903016700075,229079,001,2024-07-01_23h30.05.508,5-28,2024.1.4,None,2024-07-01 23h30.10.358661 +0900,
Images/Speaker1.jpg,Images/Speaker2.jpg,Images/Speaker3.jpg,Images/Speaker4.jpg,Audio/Speaker2_Per/P2-2-Per.wav,Speaker2,گوینده۲,2,27,187,21,,,,,107.60147916700225,,,,,,,,,,,,,,,,,,,,,,,,,,,,,,,,,,,,,,,,,48.69519341700288,48.69539537500168,229079,001,2024-07-01_23h30.05.508,5-28,2024.1.4,None,2024-07-01 23h30.10.358661 +0900,
Images/Speaker1.jpg,Images/Speaker2.jpg,Images/Speaker3.jpg,Images/Speaker4.jpg,Audio/Speaker2_Per/P2-10-Per.wav,Speaker2,گوینده۲,2,28,188,29,,,,,107.60147916700225,,,,,,,,,,,,,,,,,,,,,,,,,,,,,,,,,,,,,,,,,48.711105500002304,48.711302499999874,229079,001,2024-07-01_23h30.05.508,5-28,2024.1.4,None,2024-07-01 23h30.10.358661 +0900,
Images/Speaker1.jpg,Images/Speaker2.jpg,Images/Speaker3.jpg,Images/Speaker4.jpg,Audio/Speaker1_Per/P1-5-Per.wav,Speaker1,گوینده ۱,2,29,189,4,,,,,107.60147916700225,,,,,,,,,,,,,,,,,,,,,,,,,,,,,,,,,,,,,,,,,48.72698345800018,48.72719583300204,229079,001,2024-07-01_23h30.05.508,5-28,2024.1.4,None,2024-07-01 23h30.10.358661 +0900,
Images/Speaker1.jpg,Images/Speaker2.jpg,Images/Speaker3.jpg,Images/Speaker4.jpg,Audio/Speaker3_Per/P3-8-Per.wav,Speaker3,گوینده۳,2,30,190,47,,,,,107.60147916700225,,,,,,,,,,,,,,,,,,,,,,,,,,,,,,,,,,,,,,,,,48.742817166999885,48.74298316700151,229079,001,2024-07-01_23h30.05.508,5-28,2024.1.4,None,2024-07-01 23h30.10.358661 +0900,
Images/Speaker1.jpg,Images/Speaker2.jpg,Images/Speaker3.jpg,Images/Speaker4.jpg,Audio/Speaker3_Per/P3-2-Per.wav,Speaker3,گوینده۳,2,31,191,41,,,,,107.60147916700225,,,,,,,,,,,,,,,,,,,,,,,,,,,,,,,,,,,,,,,,,48.75919425000029,48.75934983300249,229079,001,2024-07-01_23h30.05.508,5-28,2024.1.4,None,2024-07-01 23h30.10.358661 +0900,
Images/Speaker1.jpg,Images/Speaker2.jpg,Images/Speaker3.jpg,Images/Speaker4.jpg,Audio/Speaker3_Per/P3-16-Per.wav,Speaker3,گوینده۳,2,32,192,55,,,,,107.60147916700225,,,,,,,,,,,,,,,,,,,,,,,,,,,,,,,,,,,,,,,,,48.77505945800294,48.77524045800237,229079,001,2024-07-01_23h30.05.508,5-28,2024.1.4,None,2024-07-01 23h30.10.358661 +0900,
Images/Speaker1.jpg,Images/Speaker2.jpg,Images/Speaker3.jpg,Images/Speaker4.jpg,Audio/Speaker1_Per/P1-4-Per.wav,Speaker1,گوینده ۱,2,33,193,3,,,,,107.60147916700225,,,,,,,,,,,,,,,,,,,,,,,,,,,,,,,,,,,,,,,,,48.79092745800153,48.791154583002935,229079,001,2024-07-01_23h30.05.508,5-28,2024.1.4,None,2024-07-01 23h30.10.358661 +0900,
Images/Speaker1.jpg,Images/Speaker2.jpg,Images/Speaker3.jpg,Images/Speaker4.jpg,Audio/Speaker4_Per/P4-8-Per.wav,Speaker4,گوینده۴,2,34,194,67,,,,,107.60147916700225,,,,,,,,,,,,,,,,,,,,,,,,,,,,,,,,,,,,,,,,,48.8068239580025,48.80699312500292,229079,001,2024-07-01_23h30.05.508,5-28,2024.1.4,None,2024-07-01 23h30.10.358661 +0900,
Images/Speaker1.jpg,Images/Speaker2.jpg,Images/Speaker3.jpg,Images/Speaker4.jpg,Audio/Speaker2_Per/P2-4-Per.wav,Speaker2,گوینده۲,2,35,195,23,,,,,107.60147916700225,,,,,,,,,,,,,,,,,,,,,,,,,,,,,,,,,,,,,,,,,48.82334579200324,48.82351241700235,229079,001,2024-07-01_23h30.05.508,5-28,2024.1.4,None,2024-07-01 23h30.10.358661 +0900,
Images/Speaker1.jpg,Images/Speaker2.jpg,Images/Speaker3.jpg,Images/Speaker4.jpg,Audio/Speaker3_Per/P3-3-Per.wav,Speaker3,گوینده۳,2,36,196,42,,,,,107.60147916700225,,,,,,,,,,,,,,,,,,,,,,,,,,,,,,,,,,,,,,,,,48.839206667002145,48.839376250001806,229079,001,2024-07-01_23h30.05.508,5-28,2024.1.4,None,2024-07-01 23h30.10.358661 +0900,
Images/Speaker1.jpg,Images/Speaker2.jpg,Images/Speaker3.jpg,Images/Speaker4.jpg,Audio/Speaker3_Per/P3-19-Per.wav,Speaker3,گوینده۳,2,37,197,58,,,,,107.60147916700225,,,,,,,,,,,,,,,,,,,,,,,,,,,,,,,,,,,,,,,,,48.85521495800276,48.85537404200295,229079,001,2024-07-01_23h30.05.508,5-28,2024.1.4,None,2024-07-01 23h30.10.358661 +0900,
Images/Speaker1.jpg,Images/Speaker2.jpg,Images/Speaker3.jpg,Images/Speaker4.jpg,Audio/Speaker1_Per/P1-13-Per.wav,Speaker1,گوینده ۱,2,38,198,12,,,,,107.60147916700225,,,,,,,,,,,,,,,,,,,,,,,,,,,,,,,,,,,,,,,,,48.870910875000845,48.87108950000038,229079,001,2024-07-01_23h30.05.508,5-28,2024.1.4,None,2024-07-01 23h30.10.358661 +0900,
Images/Speaker1.jpg,Images/Speaker2.jpg,Images/Speaker3.jpg,Images/Speaker4.jpg,Audio/Speaker1_Per/P1-11-Per.wav,Speaker1,گوینده ۱,2,39,199,10,,,,,107.60147916700225,,,,,,,,,,,,,,,,,,,,,,,,,,,,,,,,,,,,,,,,,48.88742854200245,48.887642000001506,229079,001,2024-07-01_23h30.05.508,5-28,2024.1.4,None,2024-07-01 23h30.10.358661 +0900,
Images/Speaker1.jpg,Images/Speaker2.jpg,Images/Speaker3.jpg,Images/Speaker4.jpg,Audio/Speaker3_Per/P3-1-Per.wav,Speaker3,گوینده۳,2,40,200,40,,,,,107.60147916700225,,,,,,,,,,,,,,,,,,,,,,,,,,,,,,,,,,,,,,,,,48.90333495800223,48.90352283300308,229079,001,2024-07-01_23h30.05.508,5-28,2024.1.4,None,2024-07-01 23h30.10.358661 +0900,
Images/Speaker1.jpg,Images/Speaker2.jpg,Images/Speaker3.jpg,Images/Speaker4.jpg,Audio/Speaker2_Per/P2-16-Per.wav,Speaker2,گوینده۲,2,41,201,35,,,,,107.60147916700225,,,,,,,,,,,,,,,,,,,,,,,,,,,,,,,,,,,,,,,,,48.91927362500064,48.91944112500278,229079,001,2024-07-01_23h30.05.508,5-28,2024.1.4,None,2024-07-01 23h30.10.358661 +0900,
Images/Speaker1.jpg,Images/Speaker2.jpg,Images/Speaker3.jpg,Images/Speaker4.jpg,Audio/Speaker4_Per/P4-3-Per.wav,Speaker4,گوینده۴,2,42,202,62,,,,,107.60147916700225,,,,,,,,,,,,,,,,,,,,,,,,,,,,,,,,,,,,,,,,,48.93504812500032,48.93522812500305,229079,001,2024-07-01_23h30.05.508,5-28,2024.1.4,None,2024-07-01 23h30.10.358661 +0900,
Images/Speaker1.jpg,Images/Speaker2.jpg,Images/Speaker3.jpg,Images/Speaker4.jpg,Audio/Speaker2_Per/P2-17-Per.wav,Speaker2,گوینده۲,2,43,203,36,,,,,107.60147916700225,,,,,,,,,,,,,,,,,,,,,,,,,,,,,,,,,,,,,,,,,48.95177791700189,48.95193737500085,229079,001,2024-07-01_23h30.05.508,5-28,2024.1.4,None,2024-07-01 23h30.10.358661 +0900,
Images/Speaker1.jpg,Images/Speaker2.jpg,Images/Speaker3.jpg,Images/Speaker4.jpg,Audio/Speaker3_Per/P3-10-Per.wav,Speaker3,گوینده۳,2,44,204,49,,,,,107.60147916700225,,,,,,,,,,,,,,,,,,,,,,,,,,,,,,,,,,,,,,,,,48.96761066700128,48.967758000002505,229079,001,2024-07-01_23h30.05.508,5-28,2024.1.4,None,2024-07-01 23h30.10.358661 +0900,
Images/Speaker1.jpg,Images/Speaker2.jpg,Images/Speaker3.jpg,Images/Speaker4.jpg,Audio/Speaker1_Per/P1-17-Per.wav,Speaker1,گوینده ۱,2,45,205,16,,,,,107.60147916700225,,,,,,,,,,,,,,,,,,,,,,,,,,,,,,,,,,,,,,,,,48.9835082919999,48.98372416700295,229079,001,2024-07-01_23h30.05.508,5-28,2024.1.4,None,2024-07-01 23h30.10.358661 +0900,
Images/Speaker1.jpg,Images/Speaker2.jpg,Images/Speaker3.jpg,Images/Speaker4.jpg,Audio/Speaker3_Per/P3-20-Per.wav,Speaker3,گوینده۳,2,46,206,59,,,,,107.60147916700225,,,,,,,,,,,,,,,,,,,,,,,,,,,,,,,,,,,,,,,,,48.99936137500117,48.999542792000284,229079,001,2024-07-01_23h30.05.508,5-28,2024.1.4,None,2024-07-01 23h30.10.358661 +0900,
Images/Speaker1.jpg,Images/Speaker2.jpg,Images/Speaker3.jpg,Images/Speaker4.jpg,Audio/Speaker4_Per/P4-17-Per.wav,Speaker4,گوینده۴,2,47,207,76,,,,,107.60147916700225,,,,,,,,,,,,,,,,,,,,,,,,,,,,,,,,,,,,,,,,,49.0158767920002,49.01604445800331,229079,001,2024-07-01_23h30.05.508,5-28,2024.1.4,None,2024-07-01 23h30.10.358661 +0900,
Images/Speaker1.jpg,Images/Speaker2.jpg,Images/Speaker3.jpg,Images/Speaker4.jpg,Audio/Speaker2_Per/P2-7-Per.wav,Speaker2,گوینده۲,2,48,208,26,,,,,107.60147916700225,,,,,,,,,,,,,,,,,,,,,,,,,,,,,,,,,,,,,,,,,49.03172179200192,49.0319031250001,229079,001,2024-07-01_23h30.05.508,5-28,2024.1.4,None,2024-07-01 23h30.10.358661 +0900,
Images/Speaker1.jpg,Images/Speaker2.jpg,Images/Speaker3.jpg,Images/Speaker4.jpg,Audio/Speaker3_Per/P3-18-Per.wav,Speaker3,گوینده۳,2,49,209,57,,,,,107.60147916700225,,,,,,,,,,,,,,,,,,,,,,,,,,,,,,,,,,,,,,,,,49.04755779200059,49.04773537500296,229079,001,2024-07-01_23h30.05.508,5-28,2024.1.4,None,2024-07-01 23h30.10.358661 +0900,
Images/Speaker1.jpg,Images/Speaker2.jpg,Images/Speaker3.jpg,Images/Speaker4.jpg,Audio/Speaker4_Per/P4-15-Per.wav,Speaker4,گوینده۴,2,50,210,74,,,,,107.60147916700225,,,,,,,,,,,,,,,,,,,,,,,,,,,,,,,,,,,,,,,,,49.06347166700289,49.06365491700126,229079,001,2024-07-01_23h30.05.508,5-28,2024.1.4,None,2024-07-01 23h30.10.358661 +0900,
Images/Speaker1.jpg,Images/Speaker2.jpg,Images/Speaker3.jpg,Images/Speaker4.jpg,Audio/Speaker1_Per/P1-15-Per.wav,Speaker1,گوینده ۱,2,51,211,14,,,,,107.60147916700225,,,,,,,,,,,,,,,,,,,,,,,,,,,,,,,,,,,,,,,,,49.07999204200314,49.08017758300048,229079,001,2024-07-01_23h30.05.508,5-28,2024.1.4,None,2024-07-01 23h30.10.358661 +0900,
Images/Speaker1.jpg,Images/Speaker2.jpg,Images/Speaker3.jpg,Images/Speaker4.jpg,Audio/Speaker4_Per/P4-12-Per.wav,Speaker4,گوینده۴,2,52,212,71,,,,,107.60147916700225,,,,,,,,,,,,,,,,,,,,,,,,,,,,,,,,,,,,,,,,,49.09590595800182,49.096081917003175,229079,001,2024-07-01_23h30.05.508,5-28,2024.1.4,None,2024-07-01 23h30.10.358661 +0900,
Images/Speaker1.jpg,Images/Speaker2.jpg,Images/Speaker3.jpg,Images/Speaker4.jpg,Audio/Speaker2_Per/P2-15-Per.wav,Speaker2,گوینده۲,2,53,213,34,,,,,107.60147916700225,,,,,,,,,,,,,,,,,,,,,,,,,,,,,,,,,,,,,,,,,49.11176004200024,49.11192462500185,229079,001,2024-07-01_23h30.05.508,5-28,2024.1.4,None,2024-07-01 23h30.10.358661 +0900,
Images/Speaker1.jpg,Images/Speaker2.jpg,Images/Speaker3.jpg,Images/Speaker4.jpg,Audio/Speaker4_Per/P4-13-Per.wav,Speaker4,گوینده۴,2,54,214,72,,,,,107.60147916700225,,,,,,,,,,,,,,,,,,,,,,,,,,,,,,,,,,,,,,,,,49.12788775000081,49.12806733300022,229079,001,2024-07-01_23h30.05.508,5-28,2024.1.4,None,2024-07-01 23h30.10.358661 +0900,
Images/Speaker1.jpg,Images/Speaker2.jpg,Images/Speaker3.jpg,Images/Speaker4.jpg,Audio/Speaker4_Per/P4-10-Per.wav,Speaker4,گوینده۴,2,55,215,69,,,,,107.60147916700225,,,,,,,,,,,,,,,,,,,,,,,,,,,,,,,,,,,,,,,,,49.144354250001925,49.144521208003425,229079,001,2024-07-01_23h30.05.508,5-28,2024.1.4,None,2024-07-01 23h30.10.358661 +0900,
Images/Speaker1.jpg,Images/Speaker2.jpg,Images/Speaker3.jpg,Images/Speaker4.jpg,Audio/Speaker2_Per/P2-5-Per.wav,Speaker2,گوینده۲,2,56,216,24,,,,,107.60147916700225,,,,,,,,,,,,,,,,,,,,,,,,,,,,,,,,,,,,,,,,,49.160146500002156,49.16031479200319,229079,001,2024-07-01_23h30.05.508,5-28,2024.1.4,None,2024-07-01 23h30.10.358661 +0900,
Images/Speaker1.jpg,Images/Speaker2.jpg,Images/Speaker3.jpg,Images/Speaker4.jpg,Audio/Speaker3_Per/P3-9-Per.wav,Speaker3,گوینده۳,2,57,217,48,,,,,107.60147916700225,,,,,,,,,,,,,,,,,,,,,,,,,,,,,,,,,,,,,,,,,49.17596237500038,49.17612587500116,229079,001,2024-07-01_23h30.05.508,5-28,2024.1.4,None,2024-07-01 23h30.10.358661 +0900,
Images/Speaker1.jpg,Images/Speaker2.jpg,Images/Speaker3.jpg,Images/Speaker4.jpg,Audio/Speaker1_Per/P1-19-Per.wav,Speaker1,گوینده ۱,2,58,218,18,,,,,107.60147916700225,,,,,,,,,,,,,,,,,,,,,,,,,,,,,,,,,,,,,,,,,49.191834583001764,49.19200054200337,229079,001,2024-07-01_23h30.05.508,5-28,2024.1.4,None,2024-07-01 23h30.10.358661 +0900,
Images/Speaker1.jpg,Images/Speaker2.jpg,Images/Speaker3.jpg,Images/Speaker4.jpg,Audio/Speaker2_Per/P2-8-Per.wav,Speaker2,گوینده۲,2,59,219,27,,,,,107.60147916700225,,,,,,,,,,,,,,,,,,,,,,,,,,,,,,,,,,,,,,,,,49.20830408300026,49.20846466700095,229079,001,2024-07-01_23h30.05.508,5-28,2024.1.4,None,2024-07-01 23h30.10.358661 +0900,
Images/Speaker1.jpg,Images/Speaker2.jpg,Images/Speaker3.jpg,Images/Speaker4.jpg,Audio/Speaker3_Per/P3-5-Per.wav,Speaker3,گوینده۳,2,60,220,44,,,,,107.60147916700225,,,,,,,,,,,,,,,,,,,,,,,,,,,,,,,,,,,,,,,,,49.22433516700039,49.2245103330024,229079,001,2024-07-01_23h30.05.508,5-28,2024.1.4,None,2024-07-01 23h30.10.358661 +0900,
Images/Speaker1.jpg,Images/Speaker2.jpg,Images/Speaker3.jpg,Images/Speaker4.jpg,Audio/Speaker1_Per/P1-16-Per.wav,Speaker1,گوینده ۱,2,61,221,15,,,,,107.60147916700225,,,,,,,,,,,,,,,,,,,,,,,,,,,,,,,,,,,,,,,,,49.24016033299995,49.24033733300166,229079,001,2024-07-01_23h30.05.508,5-28,2024.1.4,None,2024-07-01 23h30.10.358661 +0900,
Images/Speaker1.jpg,Images/Speaker2.jpg,Images/Speaker3.jpg,Images/Speaker4.jpg,Audio/Speaker1_Per/P1-8-Per.wav,Speaker1,گوینده ۱,2,62,222,7,,,,,107.60147916700225,,,,,,,,,,,,,,,,,,,,,,,,,,,,,,,,,,,,,,,,,49.25610545800009,49.25629808300073,229079,001,2024-07-01_23h30.05.508,5-28,2024.1.4,None,2024-07-01 23h30.10.358661 +0900,
Images/Speaker1.jpg,Images/Speaker2.jpg,Images/Speaker3.jpg,Images/Speaker4.jpg,Audio/Speaker2_Per/P2-11-Per.wav,Speaker2,گوینده۲,2,63,223,30,,,,,107.60147916700225,,,,,,,,,,,,,,,,,,,,,,,,,,,,,,,,,,,,,,,,,49.27247037500274,49.272686875003274,229079,001,2024-07-01_23h30.05.508,5-28,2024.1.4,None,2024-07-01 23h30.10.358661 +0900,
Images/Speaker1.jpg,Images/Speaker2.jpg,Images/Speaker3.jpg,Images/Speaker4.jpg,Audio/Speaker1_Per/P1-10-Per.wav,Speaker1,گوینده ۱,2,64,224,9,,,,,107.60147916700225,,,,,,,,,,,,,,,,,,,,,,,,,,,,,,,,,,,,,,,,,49.2884993330008,49.28866900000139,229079,001,2024-07-01_23h30.05.508,5-28,2024.1.4,None,2024-07-01 23h30.10.358661 +0900,
Images/Speaker1.jpg,Images/Speaker2.jpg,Images/Speaker3.jpg,Images/Speaker4.jpg,Audio/Speaker2_Per/P2-20-Per.wav,Speaker2,گوینده۲,2,65,225,39,,,,,107.60147916700225,,,,,,,,,,,,,,,,,,,,,,,,,,,,,,,,,,,,,,,,,49.30435570800182,49.30454133300009,229079,001,2024-07-01_23h30.05.508,5-28,2024.1.4,None,2024-07-01 23h30.10.358661 +0900,
Images/Speaker1.jpg,Images/Speaker2.jpg,Images/Speaker3.jpg,Images/Speaker4.jpg,Audio/Speaker3_Per/P3-17-Per.wav,Speaker3,گوینده۳,2,66,226,56,,,,,107.60147916700225,,,,,,,,,,,,,,,,,,,,,,,,,,,,,,,,,,,,,,,,,49.32027916700099,49.320426000002044,229079,001,2024-07-01_23h30.05.508,5-28,2024.1.4,None,2024-07-01 23h30.10.358661 +0900,
Images/Speaker1.jpg,Images/Speaker2.jpg,Images/Speaker3.jpg,Images/Speaker4.jpg,Audio/Speaker1_Per/P1-9-Per.wav,Speaker1,گوینده ۱,2,67,227,8,,,,,107.60147916700225,,,,,,,,,,,,,,,,,,,,,,,,,,,,,,,,,,,,,,,,,49.33670308300134,49.336872000003495,229079,001,2024-07-01_23h30.05.508,5-28,2024.1.4,None,2024-07-01 23h30.10.358661 +0900,
Images/Speaker1.jpg,Images/Speaker2.jpg,Images/Speaker3.jpg,Images/Speaker4.jpg,Audio/Speaker1_Per/P1-1-Per.wav,Speaker1,گوینده ۱,2,68,228,0,,,,,107.60147916700225,,,,,,,,,,,,,,,,,,,,,,,,,,,,,,,,,,,,,,,,,49.35254391700073,49.35272987500139,229079,001,2024-07-01_23h30.05.508,5-28,2024.1.4,None,2024-07-01 23h30.10.358661 +0900,
Images/Speaker1.jpg,Images/Speaker2.jpg,Images/Speaker3.jpg,Images/Speaker4.jpg,Audio/Speaker2_Per/P2-6-Per.wav,Speaker2,گوینده۲,2,69,229,25,,,,,107.60147916700225,,,,,,,,,,,,,,,,,,,,,,,,,,,,,,,,,,,,,,,,,49.368306125001254,49.36849904200062,229079,001,2024-07-01_23h30.05.508,5-28,2024.1.4,None,2024-07-01 23h30.10.358661 +0900,
Images/Speaker1.jpg,Images/Speaker2.jpg,Images/Speaker3.jpg,Images/Speaker4.jpg,Audio/Speaker1_Per/P1-6-Per.wav,Speaker1,گوینده ۱,2,70,230,5,,,,,107.60147916700225,,,,,,,,,,,,,,,,,,,,,,,,,,,,,,,,,,,,,,,,,49.384145667001576,49.38433420799993,229079,001,2024-07-01_23h30.05.508,5-28,2024.1.4,None,2024-07-01 23h30.10.358661 +0900,
Images/Speaker1.jpg,Images/Speaker2.jpg,Images/Speaker3.jpg,Images/Speaker4.jpg,Audio/Speaker3_Per/P3-12-Per.wav,Speaker3,گوینده۳,2,71,231,51,,,,,107.60147916700225,,,,,,,,,,,,,,,,,,,,,,,,,,,,,,,,,,,,,,,,,49.40059183300036,49.40076600000248,229079,001,2024-07-01_23h30.05.508,5-28,2024.1.4,None,2024-07-01 23h30.10.358661 +0900,
Images/Speaker1.jpg,Images/Speaker2.jpg,Images/Speaker3.jpg,Images/Speaker4.jpg,Audio/Speaker1_Per/P1-2-Per.wav,Speaker1,گوینده ۱,2,72,232,1,,,,,107.60147916700225,,,,,,,,,,,,,,,,,,,,,,,,,,,,,,,,,,,,,,,,,49.41655341700243,49.416716625000845,229079,001,2024-07-01_23h30.05.508,5-28,2024.1.4,None,2024-07-01 23h30.10.358661 +0900,
Images/Speaker1.jpg,Images/Speaker2.jpg,Images/Speaker3.jpg,Images/Speaker4.jpg,Audio/Speaker2_Per/P2-19-Per.wav,Speaker2,گوینده۲,2,73,233,38,,,,,107.60147916700225,,,,,,,,,,,,,,,,,,,,,,,,,,,,,,,,,,,,,,,,,49.43249633300002,49.432660708000185,229079,001,2024-07-01_23h30.05.508,5-28,2024.1.4,None,2024-07-01 23h30.10.358661 +0900,
Images/Speaker1.jpg,Images/Speaker2.jpg,Images/Speaker3.jpg,Images/Speaker4.jpg,Audio/Speaker1_Per/P1-12-Per.wav,Speaker1,گوینده ۱,2,74,234,11,,,,,107.60147916700225,,,,,,,,,,,,,,,,,,,,,,,,,,,,,,,,,,,,,,,,,49.44837891700081,49.448537625001336,229079,001,2024-07-01_23h30.05.508,5-28,2024.1.4,None,2024-07-01 23h30.10.358661 +0900,
Images/Speaker1.jpg,Images/Speaker2.jpg,Images/Speaker3.jpg,Images/Speaker4.jpg,Audio/Speaker2_Per/P2-9-Per.wav,Speaker2,گوینده۲,2,75,235,28,,,,,107.60147916700225,,,,,,,,,,,,,,,,,,,,,,,,,,,,,,,,,,,,,,,,,49.464809667002555,49.465005667003425,229079,001,2024-07-01_23h30.05.508,5-28,2024.1.4,None,2024-07-01 23h30.10.358661 +0900,
Images/Speaker1.jpg,Images/Speaker2.jpg,Images/Speaker3.jpg,Images/Speaker4.jpg,Audio/Speaker4_Per/P4-16-Per.wav,Speaker4,گوینده۴,2,76,236,75,,,,,107.60147916700225,,,,,,,,,,,,,,,,,,,,,,,,,,,,,,,,,,,,,,,,,49.48067487500157,49.4808597500014,229079,001,2024-07-01_23h30.05.508,5-28,2024.1.4,None,2024-07-01 23h30.10.358661 +0900,
Images/Speaker1.jpg,Images/Speaker2.jpg,Images/Speaker3.jpg,Images/Speaker4.jpg,Audio/Speaker1_Per/P1-18-Per.wav,Speaker1,گوینده ۱,2,77,237,17,,,,,107.60147916700225,,,,,,,,,,,,,,,,,,,,,,,,,,,,,,,,,,,,,,,,,49.49652141700062,49.49669237500348,229079,001,2024-07-01_23h30.05.508,5-28,2024.1.4,None,2024-07-01 23h30.10.358661 +0900,
Images/Speaker1.jpg,Images/Speaker2.jpg,Images/Speaker3.jpg,Images/Speaker4.jpg,Audio/Speaker1_Per/P1-4-Per.wav,Speaker1,گوینده ۱,2,78,238,13,,,,,107.60147916700225,,,,,,,,,,,,,,,,,,,,,,,,,,,,,,,,,,,,,,,,,49.512367000002996,49.51252962500075,229079,001,2024-07-01_23h30.05.508,5-28,2024.1.4,None,2024-07-01 23h30.10.358661 +0900,
Images/Speaker1.jpg,Images/Speaker2.jpg,Images/Speaker3.jpg,Images/Speaker4.jpg,Audio/Speaker4_Per/P4-6-Per.wav,Speaker4,گوینده۴,2,79,239,65,,,,,107.60147916700225,,,,,,,,,,,,,,,,,,,,,,,,,,,,,,,,,,,,,,,,,49.5289095420012,49.52906466700006,229079,001,2024-07-01_23h30.05.508,5-28,2024.1.4,None,2024-07-01 23h30.10.358661 +0900,
Images/Speaker1.jpg,Images/Speaker2.jpg,Images/Speaker3.jpg,Images/Speaker4.jpg,Audio/Speaker4_Per/P4-9-Per.wav,Speaker4,گوینده۴,3,0,240,68,,,,,107.60147916700225,,,,,,,,,,,,,,,,,,,,,,,,,,,,,,,,,,,,,,,,,49.54481062500054,49.544968958001846,229079,001,2024-07-01_23h30.05.508,5-28,2024.1.4,None,2024-07-01 23h30.10.358661 +0900,
Images/Speaker1.jpg,Images/Speaker2.jpg,Images/Speaker3.jpg,Images/Speaker4.jpg,Audio/Speaker2_Per/P2-14-Per.wav,Speaker2,گوینده۲,3,1,241,33,,,,,107.60147916700225,,,,,,,,,,,,,,,,,,,,,,,,,,,,,,,,,,,,,,,,,49.56082970800344,49.560980875001405,229079,001,2024-07-01_23h30.05.508,5-28,2024.1.4,None,2024-07-01 23h30.10.358661 +0900,
Images/Speaker1.jpg,Images/Speaker2.jpg,Images/Speaker3.jpg,Images/Speaker4.jpg,Audio/Speaker2_Per/P2-9-Per.wav,Speaker2,گوینده۲,3,2,242,28,,,,,107.60147916700225,,,,,,,,,,,,,,,,,,,,,,,,,,,,,,,,,,,,,,,,,49.57654612500119,49.57670620800127,229079,001,2024-07-01_23h30.05.508,5-28,2024.1.4,None,2024-07-01 23h30.10.358661 +0900,
Images/Speaker1.jpg,Images/Speaker2.jpg,Images/Speaker3.jpg,Images/Speaker4.jpg,Audio/Speaker4_Per/P4-19-Per.wav,Speaker4,گوینده۴,3,3,243,78,,,,,107.60147916700225,,,,,,,,,,,,,,,,,,,,,,,,,,,,,,,,,,,,,,,,,49.59294604200113,49.59308787500049,229079,001,2024-07-01_23h30.05.508,5-28,2024.1.4,None,2024-07-01 23h30.10.358661 +0900,
Images/Speaker1.jpg,Images/Speaker2.jpg,Images/Speaker3.jpg,Images/Speaker4.jpg,Audio/Speaker2_Per/P2-5-Per.wav,Speaker2,گوینده۲,3,4,244,24,,,,,107.60147916700225,,,,,,,,,,,,,,,,,,,,,,,,,,,,,,,,,,,,,,,,,49.60874979200162,49.60890412500157,229079,001,2024-07-01_23h30.05.508,5-28,2024.1.4,None,2024-07-01 23h30.10.358661 +0900,
Images/Speaker1.jpg,Images/Speaker2.jpg,Images/Speaker3.jpg,Images/Speaker4.jpg,Audio/Speaker4_Per/P4-17-Per.wav,Speaker4,گوینده۴,3,5,245,76,,,,,107.60147916700225,,,,,,,,,,,,,,,,,,,,,,,,,,,,,,,,,,,,,,,,,49.624638417000824,49.624785917003464,229079,001,2024-07-01_23h30.05.508,5-28,2024.1.4,None,2024-07-01 23h30.10.358661 +0900,
Images/Speaker1.jpg,Images/Speaker2.jpg,Images/Speaker3.jpg,Images/Speaker4.jpg,Audio/Speaker1_Per/P1-13-Per.wav,Speaker1,گوینده ۱,3,6,246,12,,,,,107.60147916700225,,,,,,,,,,,,,,,,,,,,,,,,,,,,,,,,,,,,,,,,,49.64045229200201,49.640614333002304,229079,001,2024-07-01_23h30.05.508,5-28,2024.1.4,None,2024-07-01 23h30.10.358661 +0900,
Images/Speaker1.jpg,Images/Speaker2.jpg,Images/Speaker3.jpg,Images/Speaker4.jpg,Audio/Speaker4_Per/P4-2-Per.wav,Speaker4,گوینده۴,3,7,247,61,,,,,107.60147916700225,,,,,,,,,,,,,,,,,,,,,,,,,,,,,,,,,,,,,,,,,49.656914750001306,49.65714920800019,229079,001,2024-07-01_23h30.05.508,5-28,2024.1.4,None,2024-07-01 23h30.10.358661 +0900,
Images/Speaker1.jpg,Images/Speaker2.jpg,Images/Speaker3.jpg,Images/Speaker4.jpg,Audio/Speaker1_Per/P1-19-Per.wav,Speaker1,گوینده ۱,3,8,248,18,,,,,107.60147916700225,,,,,,,,,,,,,,,,,,,,,,,,,,,,,,,,,,,,,,,,,49.67295458300214,49.67316554200079,229079,001,2024-07-01_23h30.05.508,5-28,2024.1.4,None,2024-07-01 23h30.10.358661 +0900,
Images/Speaker1.jpg,Images/Speaker2.jpg,Images/Speaker3.jpg,Images/Speaker4.jpg,Audio/Speaker4_Per/P4-5-Per.wav,Speaker4,گوینده۴,3,9,249,64,,,,,107.60147916700225,,,,,,,,,,,,,,,,,,,,,,,,,,,,,,,,,,,,,,,,,49.68886066699997,49.68906358300228,229079,001,2024-07-01_23h30.05.508,5-28,2024.1.4,None,2024-07-01 23h30.10.358661 +0900,
Images/Speaker1.jpg,Images/Speaker2.jpg,Images/Speaker3.jpg,Images/Speaker4.jpg,Audio/Speaker1_Per/P1-10-Per.wav,Speaker1,گوینده ۱,3,10,250,9,,,,,107.60147916700225,,,,,,,,,,,,,,,,,,,,,,,,,,,,,,,,,,,,,,,,,49.70482662500217,49.705036042003485,229079,001,2024-07-01_23h30.05.508,5-28,2024.1.4,None,2024-07-01 23h30.10.358661 +0900,
Images/Speaker1.jpg,Images/Speaker2.jpg,Images/Speaker3.jpg,Images/Speaker4.jpg,Audio/Speaker2_Per/P2-18-Per.wav,Speaker2,گوینده۲,3,11,251,37,,,,,107.60147916700225,,,,,,,,,,,,,,,,,,,,,,,,,,,,,,,,,,,,,,,,,49.72133650000251,49.72151725000003,229079,001,2024-07-01_23h30.05.508,5-28,2024.1.4,None,2024-07-01 23h30.10.358661 +0900,
Images/Speaker1.jpg,Images/Speaker2.jpg,Images/Speaker3.jpg,Images/Speaker4.jpg,Audio/Speaker3_Per/P3-3-Per.wav,Speaker3,گوینده۳,3,12,252,42,,,,,107.60147916700225,,,,,,,,,,,,,,,,,,,,,,,,,,,,,,,,,,,,,,,,,49.73721666700294,49.73739379200197,229079,001,2024-07-01_23h30.05.508,5-28,2024.1.4,None,2024-07-01 23h30.10.358661 +0900,
Images/Speaker1.jpg,Images/Speaker2.jpg,Images/Speaker3.jpg,Images/Speaker4.jpg,Audio/Speaker2_Per/P2-2-Per.wav,Speaker2,گوینده۲,3,13,253,21,,,,,107.60147916700225,,,,,,,,,,,,,,,,,,,,,,,,,,,,,,,,,,,,,,,,,49.75313845800338,49.75331483300033,229079,001,2024-07-01_23h30.05.508,5-28,2024.1.4,None,2024-07-01 23h30.10.358661 +0900,
Images/Speaker1.jpg,Images/Speaker2.jpg,Images/Speaker3.jpg,Images/Speaker4.jpg,Audio/Speaker2_Per/P2-10-Per.wav,Speaker2,گوینده۲,3,14,254,29,,,,,107.60147916700225,,,,,,,,,,,,,,,,,,,,,,,,,,,,,,,,,,,,,,,,,49.768955875002575,49.769153208002535,229079,001,2024-07-01_23h30.05.508,5-28,2024.1.4,None,2024-07-01 23h30.10.358661 +0900,
Images/Speaker1.jpg,Images/Speaker2.jpg,Images/Speaker3.jpg,Images/Speaker4.jpg,Audio/Speaker1_Per/P1-11-Per.wav,Speaker1,گوینده ۱,3,15,255,10,,,,,107.60147916700225,,,,,,,,,,,,,,,,,,,,,,,,,,,,,,,,,,,,,,,,,49.78547462500137,49.785644125000545,229079,001,2024-07-01_23h30.05.508,5-28,2024.1.4,None,2024-07-01 23h30.10.358661 +0900,
Images/Speaker1.jpg,Images/Speaker2.jpg,Images/Speaker3.jpg,Images/Speaker4.jpg,Audio/Speaker3_Per/P3-11-Per.wav,Speaker3,گوینده۳,3,16,256,50,,,,,107.60147916700225,,,,,,,,,,,,,,,,,,,,,,,,,,,,,,,,,,,,,,,,,49.80128750000222,49.80146683300336,229079,001,2024-07-01_23h30.05.508,5-28,2024.1.4,None,2024-07-01 23h30.10.358661 +0900,
Images/Speaker1.jpg,Images/Speaker2.jpg,Images/Speaker3.jpg,Images/Speaker4.jpg,Audio/Speaker3_Per/P3-12-Per.wav,Speaker3,گوینده۳,3,17,257,51,,,,,107.60147916700225,,,,,,,,,,,,,,,,,,,,,,,,,,,,,,,,,,,,,,,,,49.8171835830035,49.81734687500284,229079,001,2024-07-01_23h30.05.508,5-28,2024.1.4,None,2024-07-01 23h30.10.358661 +0900,
Images/Speaker1.jpg,Images/Speaker2.jpg,Images/Speaker3.jpg,Images/Speaker4.jpg,Audio/Speaker4_Per/P4-12-Per.wav,Speaker4,گوینده۴,3,18,258,71,,,,,107.60147916700225,,,,,,,,,,,,,,,,,,,,,,,,,,,,,,,,,,,,,,,,,49.833139583002776,49.83331716700195,229079,001,2024-07-01_23h30.05.508,5-28,2024.1.4,None,2024-07-01 23h30.10.358661 +0900,
Images/Speaker1.jpg,Images/Speaker2.jpg,Images/Speaker3.jpg,Images/Speaker4.jpg,Audio/Speaker4_Per/P4-6-Per.wav,Speaker4,گوینده۴,3,19,259,65,,,,,107.60147916700225,,,,,,,,,,,,,,,,,,,,,,,,,,,,,,,,,,,,,,,,,49.84952958300346,49.849683375003224,229079,001,2024-07-01_23h30.05.508,5-28,2024.1.4,None,2024-07-01 23h30.10.358661 +0900,
Images/Speaker1.jpg,Images/Speaker2.jpg,Images/Speaker3.jpg,Images/Speaker4.jpg,Audio/Speaker3_Per/P3-9-Per.wav,Speaker3,گوینده۳,3,20,260,48,,,,,107.60147916700225,,,,,,,,,,,,,,,,,,,,,,,,,,,,,,,,,,,,,,,,,49.86547729200174,49.86563275000299,229079,001,2024-07-01_23h30.05.508,5-28,2024.1.4,None,2024-07-01 23h30.10.358661 +0900,
Images/Speaker1.jpg,Images/Speaker2.jpg,Images/Speaker3.jpg,Images/Speaker4.jpg,Audio/Speaker3_Per/P3-6-Per.wav,Speaker3,گوینده۳,3,21,261,45,,,,,107.60147916700225,,,,,,,,,,,,,,,,,,,,,,,,,,,,,,,,,,,,,,,,,49.88132087500344,49.881533417003084,229079,001,2024-07-01_23h30.05.508,5-28,2024.1.4,None,2024-07-01 23h30.10.358661 +0900,
Images/Speaker1.jpg,Images/Speaker2.jpg,Images/Speaker3.jpg,Images/Speaker4.jpg,Audio/Speaker2_Per/P2-1-Per.wav,Speaker2,گوینده۲,3,22,262,20,,,,,107.60147916700225,,,,,,,,,,,,,,,,,,,,,,,,,,,,,,,,,,,,,,,,,49.897155000002385,49.89730804200008,229079,001,2024-07-01_23h30.05.508,5-28,2024.1.4,None,2024-07-01 23h30.10.358661 +0900,
Images/Speaker1.jpg,Images/Speaker2.jpg,Images/Speaker3.jpg,Images/Speaker4.jpg,Audio/Speaker1_Per/P1-18-Per.wav,Speaker1,گوینده ۱,3,23,263,17,,,,,107.60147916700225,,,,,,,,,,,,,,,,,,,,,,,,,,,,,,,,,,,,,,,,,49.913759167000535,49.9139507079999,229079,001,2024-07-01_23h30.05.508,5-28,2024.1.4,None,2024-07-01 23h30.10.358661 +0900,
Images/Speaker1.jpg,Images/Speaker2.jpg,Images/Speaker3.jpg,Images/Speaker4.jpg,Audio/Speaker1_Per/P1-3-Per.wav,Speaker1,گوینده ۱,3,24,264,2,,,,,107.60147916700225,,,,,,,,,,,,,,,,,,,,,,,,,,,,,,,,,,,,,,,,,49.929598624999926,49.929760167000495,229079,001,2024-07-01_23h30.05.508,5-28,2024.1.4,None,2024-07-01 23h30.10.358661 +0900,
Images/Speaker1.jpg,Images/Speaker2.jpg,Images/Speaker3.jpg,Images/Speaker4.jpg,Audio/Speaker2_Per/P2-16-Per.wav,Speaker2,گوینده۲,3,25,265,35,,,,,107.60147916700225,,,,,,,,,,,,,,,,,,,,,,,,,,,,,,,,,,,,,,,,,49.94551566700102,49.94566995800051,229079,001,2024-07-01_23h30.05.508,5-28,2024.1.4,None,2024-07-01 23h30.10.358661 +0900,
Images/Speaker1.jpg,Images/Speaker2.jpg,Images/Speaker3.jpg,Images/Speaker4.jpg,Audio/Speaker1_Per/P1-5-Per.wav,Speaker1,گوینده ۱,3,26,266,4,,,,,107.60147916700225,,,,,,,,,,,,,,,,,,,,,,,,,,,,,,,,,,,,,,,,,49.96133233300134,49.96150704200045,229079,001,2024-07-01_23h30.05.508,5-28,2024.1.4,None,2024-07-01 23h30.10.358661 +0900,
Images/Speaker1.jpg,Images/Speaker2.jpg,Images/Speaker3.jpg,Images/Speaker4.jpg,Audio/Speaker2_Per/P2-13-Per.wav,Speaker2,گوینده۲,3,27,267,32,,,,,107.60147916700225,,,,,,,,,,,,,,,,,,,,,,,,,,,,,,,,,,,,,,,,,49.9778409999999,49.97801091700239,229079,001,2024-07-01_23h30.05.508,5-28,2024.1.4,None,2024-07-01 23h30.10.358661 +0900,
Images/Speaker1.jpg,Images/Speaker2.jpg,Images/Speaker3.jpg,Images/Speaker4.jpg,Audio/Speaker1_Per/P1-2-Per.wav,Speaker1,گوینده ۱,3,28,268,1,,,,,107.60147916700225,,,,,,,,,,,,,,,,,,,,,,,,,,,,,,,,,,,,,,,,,49.993682125001214,49.993841542000155,229079,001,2024-07-01_23h30.05.508,5-28,2024.1.4,None,2024-07-01 23h30.10.358661 +0900,
Images/Speaker1.jpg,Images/Speaker2.jpg,Images/Speaker3.jpg,Images/Speaker4.jpg,Audio/Speaker2_Per/P2-20-Per.wav,Speaker2,گوینده۲,3,29,269,39,,,,,107.60147916700225,,,,,,,,,,,,,,,,,,,,,,,,,,,,,,,,,,,,,,,,,50.00960091700108,50.009757583000464,229079,001,2024-07-01_23h30.05.508,5-28,2024.1.4,None,2024-07-01 23h30.10.358661 +0900,
Images/Speaker1.jpg,Images/Speaker2.jpg,Images/Speaker3.jpg,Images/Speaker4.jpg,Audio/Speaker4_Per/P4-16-Per.wav,Speaker4,گوینده۴,3,30,270,75,,,,,107.60147916700225,,,,,,,,,,,,,,,,,,,,,,,,,,,,,,,,,,,,,,,,,50.02561429200068,50.02582529200299,229079,001,2024-07-01_23h30.05.508,5-28,2024.1.4,None,2024-07-01 23h30.10.358661 +0900,
Images/Speaker1.jpg,Images/Speaker2.jpg,Images/Speaker3.jpg,Images/Speaker4.jpg,Audio/Speaker4_Per/P4-8-Per.wav,Speaker4,گوینده۴,3,31,271,67,,,,,107.60147916700225,,,,,,,,,,,,,,,,,,,,,,,,,,,,,,,,,,,,,,,,,50.0420001670027,50.0421652920013,229079,001,2024-07-01_23h30.05.508,5-28,2024.1.4,None,2024-07-01 23h30.10.358661 +0900,
Images/Speaker1.jpg,Images/Speaker2.jpg,Images/Speaker3.jpg,Images/Speaker4.jpg,Audio/Speaker4_Per/P4-10-Per.wav,Speaker4,گوینده۴,3,32,272,69,,,,,107.60147916700225,,,,,,,,,,,,,,,,,,,,,,,,,,,,,,,,,,,,,,,,,50.05785345800177,50.058026250000694,229079,001,2024-07-01_23h30.05.508,5-28,2024.1.4,None,2024-07-01 23h30.10.358661 +0900,
Images/Speaker1.jpg,Images/Speaker2.jpg,Images/Speaker3.jpg,Images/Speaker4.jpg,Audio/Speaker4_Per/P4-7-Per.wav,Speaker4,گوینده۴,3,33,273,66,,,,,107.60147916700225,,,,,,,,,,,,,,,,,,,,,,,,,,,,,,,,,,,,,,,,,50.0737121250022,50.073868458002835,229079,001,2024-07-01_23h30.05.508,5-28,2024.1.4,None,2024-07-01 23h30.10.358661 +0900,
Images/Speaker1.jpg,Images/Speaker2.jpg,Images/Speaker3.jpg,Images/Speaker4.jpg,Audio/Speaker4_Per/P4-15-Per.wav,Speaker4,گوینده۴,3,34,274,74,,,,,107.60147916700225,,,,,,,,,,,,,,,,,,,,,,,,,,,,,,,,,,,,,,,,,50.089608000002045,50.0897740420005,229079,001,2024-07-01_23h30.05.508,5-28,2024.1.4,None,2024-07-01 23h30.10.358661 +0900,
Images/Speaker1.jpg,Images/Speaker2.jpg,Images/Speaker3.jpg,Images/Speaker4.jpg,Audio/Speaker3_Per/P3-18-Per.wav,Speaker3,گوینده۳,3,35,275,57,,,,,107.60147916700225,,,,,,,,,,,,,,,,,,,,,,,,,,,,,,,,,,,,,,,,,50.10601387499992,50.10617000000275,229079,001,2024-07-01_23h30.05.508,5-28,2024.1.4,None,2024-07-01 23h30.10.358661 +0900,
Images/Speaker1.jpg,Images/Speaker2.jpg,Images/Speaker3.jpg,Images/Speaker4.jpg,Audio/Speaker2_Per/P2-11-Per.wav,Speaker2,گوینده۲,3,36,276,30,,,,,107.60147916700225,,,,,,,,,,,,,,,,,,,,,,,,,,,,,,,,,,,,,,,,,50.17321541700221,50.173493125003006,229079,001,2024-07-01_23h30.05.508,5-28,2024.1.4,None,2024-07-01 23h30.10.358661 +0900,
Images/Speaker1.jpg,Images/Speaker2.jpg,Images/Speaker3.jpg,Images/Speaker4.jpg,Audio/Speaker3_Per/P3-13-Per.wav,Speaker3,گوینده۳,3,37,277,52,,,,,107.60147916700225,,,,,,,,,,,,,,,,,,,,,,,,,,,,,,,,,,,,,,,,,50.18963779200203,50.18980637500135,229079,001,2024-07-01_23h30.05.508,5-28,2024.1.4,None,2024-07-01 23h30.10.358661 +0900,
Images/Speaker1.jpg,Images/Speaker2.jpg,Images/Speaker3.jpg,Images/Speaker4.jpg,Audio/Speaker1_Per/P1-8-Per.wav,Speaker1,گوینده ۱,3,38,278,7,,,,,107.60147916700225,,,,,,,,,,,,,,,,,,,,,,,,,,,,,,,,,,,,,,,,,50.205720167003165,50.20588795799995,229079,001,2024-07-01_23h30.05.508,5-28,2024.1.4,None,2024-07-01 23h30.10.358661 +0900,
Images/Speaker1.jpg,Images/Speaker2.jpg,Images/Speaker3.jpg,Images/Speaker4.jpg,Audio/Speaker2_Per/P2-12-Per.wav,Speaker2,گوینده۲,3,39,279,31,,,,,107.60147916700225,,,,,,,,,,,,,,,,,,,,,,,,,,,,,,,,,,,,,,,,,50.2220967500034,50.222263999999996,229079,001,2024-07-01_23h30.05.508,5-28,2024.1.4,None,2024-07-01 23h30.10.358661 +0900,
Images/Speaker1.jpg,Images/Speaker2.jpg,Images/Speaker3.jpg,Images/Speaker4.jpg,Audio/Speaker3_Per/P3-2-Per.wav,Speaker3,گوینده۳,3,40,280,41,,,,,107.60147916700225,,,,,,,,,,,,,,,,,,,,,,,,,,,,,,,,,,,,,,,,,50.23796820800271,50.238143542002945,229079,001,2024-07-01_23h30.05.508,5-28,2024.1.4,None,2024-07-01 23h30.10.358661 +0900,
Images/Speaker1.jpg,Images/Speaker2.jpg,Images/Speaker3.jpg,Images/Speaker4.jpg,Audio/Speaker3_Per/P3-20-Per.wav,Speaker3,گوینده۳,3,41,281,59,,,,,107.60147916700225,,,,,,,,,,,,,,,,,,,,,,,,,,,,,,,,,,,,,,,,,50.253959375000704,50.25417462500263,229079,001,2024-07-01_23h30.05.508,5-28,2024.1.4,None,2024-07-01 23h30.10.358661 +0900,
Images/Speaker1.jpg,Images/Speaker2.jpg,Images/Speaker3.jpg,Images/Speaker4.jpg,Audio/Speaker3_Per/P3-15-Per.wav,Speaker3,گوینده۳,3,42,282,54,,,,,107.60147916700225,,,,,,,,,,,,,,,,,,,,,,,,,,,,,,,,,,,,,,,,,50.27043587500157,50.27060162500129,229079,001,2024-07-01_23h30.05.508,5-28,2024.1.4,None,2024-07-01 23h30.10.358661 +0900,
Images/Speaker1.jpg,Images/Speaker2.jpg,Images/Speaker3.jpg,Images/Speaker4.jpg,Audio/Speaker4_Per/P4-13-Per.wav,Speaker4,گوینده۴,3,43,283,72,,,,,107.60147916700225,,,,,,,,,,,,,,,,,,,,,,,,,,,,,,,,,,,,,,,,,50.28644316700229,50.28660375000254,229079,001,2024-07-01_23h30.05.508,5-28,2024.1.4,None,2024-07-01 23h30.10.358661 +0900,
Images/Speaker1.jpg,Images/Speaker2.jpg,Images/Speaker3.jpg,Images/Speaker4.jpg,Audio/Speaker3_Per/P3-17-Per.wav,Speaker3,گوینده۳,3,44,284,56,,,,,107.60147916700225,,,,,,,,,,,,,,,,,,,,,,,,,,,,,,,,,,,,,,,,,50.302333833002194,50.30250758300099,229079,001,2024-07-01_23h30.05.508,5-28,2024.1.4,None,2024-07-01 23h30.10.358661 +0900,
Images/Speaker1.jpg,Images/Speaker2.jpg,Images/Speaker3.jpg,Images/Speaker4.jpg,Audio/Speaker3_Per/P3-16-Per.wav,Speaker3,گوینده۳,3,45,285,55,,,,,107.60147916700225,,,,,,,,,,,,,,,,,,,,,,,,,,,,,,,,,,,,,,,,,50.31828937500177,50.31843658300204,229079,001,2024-07-01_23h30.05.508,5-28,2024.1.4,None,2024-07-01 23h30.10.358661 +0900,
Images/Speaker1.jpg,Images/Speaker2.jpg,Images/Speaker3.jpg,Images/Speaker4.jpg,Audio/Speaker4_Per/P4-20-Per.wav,Speaker4,گوینده۴,3,46,286,79,,,,,107.60147916700225,,,,,,,,,,,,,,,,,,,,,,,,,,,,,,,,,,,,,,,,,50.334715583001525,50.334908625001844,229079,001,2024-07-01_23h30.05.508,5-28,2024.1.4,None,2024-07-01 23h30.10.358661 +0900,
Images/Speaker1.jpg,Images/Speaker2.jpg,Images/Speaker3.jpg,Images/Speaker4.jpg,Audio/Speaker3_Per/P3-14-Per.wav,Speaker3,گوینده۳,3,47,287,53,,,,,107.60147916700225,,,,,,,,,,,,,,,,,,,,,,,,,,,,,,,,,,,,,,,,,50.350692542000616,50.35087020800347,229079,001,2024-07-01_23h30.05.508,5-28,2024.1.4,None,2024-07-01 23h30.10.358661 +0900,
Images/Speaker1.jpg,Images/Speaker2.jpg,Images/Speaker3.jpg,Images/Speaker4.jpg,Audio/Speaker2_Per/P2-3-Per.wav,Speaker2,گوینده۲,3,48,288,22,,,,,107.60147916700225,,,,,,,,,,,,,,,,,,,,,,,,,,,,,,,,,,,,,,,,,50.36658087500109,50.36675566700069,229079,001,2024-07-01_23h30.05.508,5-28,2024.1.4,None,2024-07-01 23h30.10.358661 +0900,
Images/Speaker1.jpg,Images/Speaker2.jpg,Images/Speaker3.jpg,Images/Speaker4.jpg,Audio/Speaker4_Per/P4-3-Per.wav,Speaker4,گوینده۴,3,49,289,62,,,,,107.60147916700225,,,,,,,,,,,,,,,,,,,,,,,,,,,,,,,,,,,,,,,,,50.382489625000744,50.38270804200147,229079,001,2024-07-01_23h30.05.508,5-28,2024.1.4,None,2024-07-01 23h30.10.358661 +0900,
Images/Speaker1.jpg,Images/Speaker2.jpg,Images/Speaker3.jpg,Images/Speaker4.jpg,Audio/Speaker1_Per/P1-17-Per.wav,Speaker1,گوینده ۱,3,50,290,16,,,,,107.60147916700225,,,,,,,,,,,,,,,,,,,,,,,,,,,,,,,,,,,,,,,,,50.398987874999875,50.39914616700116,229079,001,2024-07-01_23h30.05.508,5-28,2024.1.4,None,2024-07-01 23h30.10.358661 +0900,
Images/Speaker1.jpg,Images/Speaker2.jpg,Images/Speaker3.jpg,Images/Speaker4.jpg,Audio/Speaker2_Per/P2-4-Per.wav,Speaker2,گوینده۲,3,51,291,23,,,,,107.60147916700225,,,,,,,,,,,,,,,,,,,,,,,,,,,,,,,,,,,,,,,,,50.41491754200251,50.41507675000321,229079,001,2024-07-01_23h30.05.508,5-28,2024.1.4,None,2024-07-01 23h30.10.358661 +0900,
Images/Speaker1.jpg,Images/Speaker2.jpg,Images/Speaker3.jpg,Images/Speaker4.jpg,Audio/Speaker2_Per/P2-8-Per.wav,Speaker2,گوینده۲,3,52,292,27,,,,,107.60147916700225,,,,,,,,,,,,,,,,,,,,,,,,,,,,,,,,,,,,,,,,,50.430826667001384,50.43099595800231,229079,001,2024-07-01_23h30.05.508,5-28,2024.1.4,None,2024-07-01 23h30.10.358661 +0900,
Images/Speaker1.jpg,Images/Speaker2.jpg,Images/Speaker3.jpg,Images/Speaker4.jpg,Audio/Speaker2_Per/P2-15-Per.wav,Speaker2,گوینده۲,3,53,293,34,,,,,107.60147916700225,,,,,,,,,,,,,,,,,,,,,,,,,,,,,,,,,,,,,,,,,50.4467722920017,50.446931625003344,229079,001,2024-07-01_23h30.05.508,5-28,2024.1.4,None,2024-07-01 23h30.10.358661 +0900,
Images/Speaker1.jpg,Images/Speaker2.jpg,Images/Speaker3.jpg,Images/Speaker4.jpg,Audio/Speaker4_Per/P4-14-Per.wav,Speaker4,گوینده۴,3,54,294,73,,,,,107.60147916700225,,,,,,,,,,,,,,,,,,,,,,,,,,,,,,,,,,,,,,,,,50.46322258300279,50.463389417000144,229079,001,2024-07-01_23h30.05.508,5-28,2024.1.4,None,2024-07-01 23h30.10.358661 +0900,
Images/Speaker1.jpg,Images/Speaker2.jpg,Images/Speaker3.jpg,Images/Speaker4.jpg,Audio/Speaker1_Per/P1-12-Per.wav,Speaker1,گوینده ۱,3,55,295,11,,,,,107.60147916700225,,,,,,,,,,,,,,,,,,,,,,,,,,,,,,,,,,,,,,,,,50.47909725000136,50.47934066700327,229079,001,2024-07-01_23h30.05.508,5-28,2024.1.4,None,2024-07-01 23h30.10.358661 +0900,
Images/Speaker1.jpg,Images/Speaker2.jpg,Images/Speaker3.jpg,Images/Speaker4.jpg,Audio/Speaker3_Per/P3-5-Per.wav,Speaker3,گوینده۳,3,56,296,44,,,,,107.60147916700225,,,,,,,,,,,,,,,,,,,,,,,,,,,,,,,,,,,,,,,,,50.49505725000199,50.49523858300017,229079,001,2024-07-01_23h30.05.508,5-28,2024.1.4,None,2024-07-01 23h30.10.358661 +0900,
