SpeakerImage1,SpeakerImage2,SpeakerImage3,SpeakerImage4,TrainingSound,EnglishCorrectAnswer,PersianCorrectAnswer,SpeakerPhoto1,SpeakerPhoto2,SpeakerPhoto3,SpeakerPhoto4,TestingSound,EnglishCorrectResponse,PersianCorrectResponse,repeated_TrainingLoopGroup2.thisRepN,repeated_TrainingLoopGroup2.thisTrialN,repeated_TrainingLoopGroup2.thisN,repeated_TrainingLoopGroup2.thisIndex,TrainingLoopGroup2.thisRepN,TrainingLoopGroup2.thisTrialN,TrainingLoopGroup2.thisN,TrainingLoopGroup2.thisIndex,testPhase2Loop.thisRepN,testPhase2Loop.thisTrialN,testPhase2Loop.thisN,testPhase2Loop.thisIndex,thisRow.t,notes,trial.started,trial.stopped,GroupSelection.started,GroupInstructions.started,key_resp.started,GroupSelection.stopped,key_resp.keys,key_resp.rt,key_resp.duration,Introduction.started,text_2.started,image.started,sound_7.started,text_4.started,text_2.stopped,sound_8.started,image.stopped,text_4.stopped,image_7.started,sound_9.started,text_5.started,sound_10.started,image_7.stopped,text_5.stopped,image_8.started,sound_11.started,text_6.started,sound_12.started,image_8.stopped,text_6.stopped,image_9.started,sound_13.started,text_7.started,sound_14.started,image_9.stopped,text_7.stopped,Introduction.stopped,Instructions.started,InstructionText.started,InstructionText.stopped,Instructions.stopped,InitializeExperiment.started,InitializeExperiment.stopped,TrainingGroup2.started,image_11.started,SpeakerPicture2.started,image_5.started,image_6.started,Sound2.started,Instruction2.started,Response2.started,TrainingGroup2.stopped,feedbackText,correct_responses_group2,total_trials_group2,Response2.keys,Response2.rt,Response2.duration,FeedbackRoutine2.started,FeedbackText2.started,FeedbackRoutine2.stopped,FeedbackText2.stopped,CheckAccuracy2.started,accuracy_group2,proceed_to_test,CheckAccuracy2.stopped,WelcomeTest.started,text_12.started,text_12.stopped,WelcomeTest.stopped,TestPhase2.started,test2_image1.started,test2_image2.started,test2_image3.started,test2_image4.started,test2_sound.started,text_8.started,test2_response_keyboard.started,TestPhase2.stopped,test2_response_keyboard.keys,test2_response_keyboard.rt,test2_response_keyboard.duration,test2_response,test2_image_file1,test2_image_file2,test2_image_file3,test2_image_file4,test2_sound_file,english_correct_answer,persian_correct_answer,participant,session,date,expName,psychopyVersion,frameRate,expStart,
,,,,,,,,,,,,,,,,,,,,,,,,,,,,0.010107041998708155,0.010438375000376254,,,,,,,,,,,,,,,,,,,,,,,,,,,,,,,,,,,,,,,,,,,,,,,,,,,,,,,,,,,,,,,,,,,,,,,,,,,,,,,,,,,,,,,,,260207,001,2024-07-02_19h58.54.525,5-35,2024.1.4,None,2024-07-02 19h58.58.985649 +0900,
,,,,,,,,,,,,,,,,,,,,,,,,,,,,,,0.010455625000759028,0.0147685419942718,0.0147685419942718,0.4616657500009751,2,0.4127630829971167,None,,,,,,,,,,,,,,,,,,,,,,,,,,,,,,,,,,,,,,,,,,,,,,,,,,,,,,,,,,,,,,,,,,,,,,,,,,,,,,,,,,260207,001,2024-07-02_19h58.54.525,5-35,2024.1.4,None,2024-07-02 19h58.58.985649 +0900,
,,,,,,,,,,,,,,,,,,,,,,,,,,,,,,,,,,,,,0.4616993339950568,0.5134245000008377,5.458990791994438,5.461922333666977,5.458990791994438,5.5049080419994425,10.469784708661125,15.454331583998282,15.454331583998282,15.454331583998282,15.467346833666186,15.454331583998282,20.462386250667137,25.445755291999376,25.445755291999376,25.46079870899848,25.46242195866604,25.46079870899848,30.463223000664826,35.459910124998714,35.459910124998714,35.459910124998714,35.462432500662786,35.459910124998714,40.46801208366766,45.451895250000234,45.451895250000234,45.445710125000915,,,,,,,,,,,,,,,,,,,,,,,,,,,,,,,,,,,,,,,,,,,,,,,,,,,,,,260207,001,2024-07-02_19h58.54.525,5-35,2024.1.4,None,2024-07-02 19h58.58.985649 +0900,
,,,,,,,,,,,,,,,,,,,,,,,,,,,,,,,,,,,,,,,,,,,,,,,,,,,,,,,,,,,,,,,,,45.44577904199832,45.451895250000234,46.521448874998896,46.44262691699987,,,,,,,,,,,,,,,,,,,,,,,,,,,,,,,,,,,,,,,,,,,,,,,,,,260207,001,2024-07-02_19h58.54.525,5-35,2024.1.4,None,2024-07-02 19h58.58.985649 +0900,
,,,,,,,,,,,,,,,,,,,,,,,,,,,,,,,,,,,,,,,,,,,,,,,,,,,,,,,,,,,,,,,,,,,,,46.44264129200019,46.44281720899744,,,,,,,,,,,,,,,,,,,,,,,,,,,,,,,,,,,,,,,,,,,,,,,,260207,001,2024-07-02_19h58.54.525,5-35,2024.1.4,None,2024-07-02 19h58.58.985649 +0900,
Images/Speaker1.jpg,Images/Speaker2.jpg,Images/Speaker3.jpg,Images/Speaker4.jpg,Audio/Speaker4_Per/P4-10-Per.wav,Speaker4,گوینده۴,,,,,,,,0,0,0,4,0,0,0,69,,,,,46.521448874998896,,,,,,,,,,,,,,,,,,,,,,,,,,,,,,,,,,,,,,,,,,,,,46.49532383399492,46.521448874998896,46.521448874998896,46.521448874998896,46.521448874998896,46.52572445833115,46.521448874998896,46.521448874998896,49.217468666996865,Incorrect! The correct answer is Speaker4. نادرست! پاسخ صحیح گوینده۴ است,0,1,1,2.693913041999622,None,49.222004333998484,49.23550258400064,51.225854999996955,,,,,,,,,,,,,,,,,,,,,,,,,,,,,,260207,001,2024-07-02_19h58.54.525,5-35,2024.1.4,None,2024-07-02 19h58.58.985649 +0900,
Images/Speaker1.jpg,Images/Speaker2.jpg,Images/Speaker3.jpg,Images/Speaker4.jpg,Audio/Speaker2_Per/P2-13-Per.wav,Speaker2,گوینده۲,,,,,,,,0,0,0,4,0,1,1,32,,,,,51.24752012499812,,,,,,,,,,,,,,,,,,,,,,,,,,,,,,,,,,,,,,,,,,,,,51.22603320900089,51.24752012499812,51.24752012499812,51.24752012499812,51.24752012499812,51.24249075066133,51.24752012499812,51.24752012499812,51.24810545899527,Incorrect! The correct answer is Speaker2. نادرست! پاسخ صحیح گوینده۲ است,0,1,1,4.640729083002952,None,51.252294499994605,51.2618574589942,53.25186741699872,53.27502754199668,,,,,,,,,,,,,,,,,,,,,,,,,,,,,260207,001,2024-07-02_19h58.54.525,5-35,2024.1.4,None,2024-07-02 19h58.58.985649 +0900,
Images/Speaker1.jpg,Images/Speaker2.jpg,Images/Speaker3.jpg,Images/Speaker4.jpg,Audio/Speaker1_Per/P1-10-Per.wav,Speaker1,گوینده ۱,,,,,,,,0,0,0,4,0,2,2,9,,,,,53.27502754199668,,,,,,,,,,,,,,,,,,,,,,,,,,,,,,,,,,,,,,,,,,,,,53.252477041998645,53.27502754199668,53.27502754199668,53.27502754199668,53.27502754199668,53.28424420832792,53.27502754199668,53.27502754199668,53.27562512499571,Correct! صحیح است,1,1,1,1.925554542001919,None,53.276088833998074,53.28551824999886,55.26959108399751,55.29141537499527,,,,,,,,,,,,,,,,,,,,,,,,,,,,,260207,001,2024-07-02_19h58.54.525,5-35,2024.1.4,None,2024-07-02 19h58.58.985649 +0900,
Images/Speaker1.jpg,Images/Speaker2.jpg,Images/Speaker3.jpg,Images/Speaker4.jpg,Audio/Speaker2_Per/P2-12-Per.wav,Speaker2,گوینده۲,,,,,,,,0,0,0,4,0,3,3,31,,,,,55.29141537499527,,,,,,,,,,,,,,,,,,,,,,,,,,,,,,,,,,,,,,,,,,,,,55.27014587499434,55.29141537499527,55.29141537499527,55.29141537499527,55.29141537499527,55.30199533332828,55.29141537499527,55.29141537499527,55.29209437499958,Incorrect! The correct answer is Speaker2. نادرست! پاسخ صحیح گوینده۲ است,0,1,1,1.8775116670003626,None,55.29261854200013,55.302600958995754,57.29325145899929,57.31764129200019,,,,,,,,,,,,,,,,,,,,,,,,,,,,,260207,001,2024-07-02_19h58.54.525,5-35,2024.1.4,None,2024-07-02 19h58.58.985649 +0900,
Images/Speaker1.jpg,Images/Speaker2.jpg,Images/Speaker3.jpg,Images/Speaker4.jpg,Audio/Speaker2_Per/P2-10-Per.wav,Speaker2,گوینده۲,,,,,,,,0,0,0,4,0,4,4,29,,,,,57.31764129200019,,,,,,,,,,,,,,,,,,,,,,,,,,,,,,,,,,,,,,,,,,,,,57.294195083995874,57.31764129200019,57.31764129200019,57.31764129200019,57.31764129200019,57.325660917333636,57.31764129200019,57.31764129200019,57.31819041699782,Incorrect! The correct answer is Speaker2. نادرست! پاسخ صحیح گوینده۲ است,0,1,1,1.9364093339972897,None,57.318567041998904,57.32851520899567,59.31766287500068,59.339853124998626,,,,,,,,,,,,,,,,,,,,,,,,,,,,,260207,001,2024-07-02_19h58.54.525,5-35,2024.1.4,None,2024-07-02 19h58.58.985649 +0900,
Images/Speaker1.jpg,Images/Speaker2.jpg,Images/Speaker3.jpg,Images/Speaker4.jpg,Audio/Speaker3_Per/P3-3-Per.wav,Speaker3,گوینده۳,,,,,,,,0,0,0,4,0,5,5,42,,,,,59.339853124998626,,,,,,,,,,,,,,,,,,,,,,,,,,,,,,,,,,,,,,,,,,,,,59.318508166994434,59.339853124998626,59.339853124998626,59.339853124998626,59.339853124998626,59.35018650032774,59.339853124998626,59.339853124998626,59.4784319169994,Incorrect! The correct answer is Speaker3. نادرست! پاسخ صحیح گوینده۳ است,0,1,1,0.13580808300321223,None,59.482669958997576,59.49536687499494,61.479527833995235,61.50371608400019,,,,,,,,,,,,,,,,,,,,,,,,,,,,,260207,001,2024-07-02_19h58.54.525,5-35,2024.1.4,None,2024-07-02 19h58.58.985649 +0900,
Images/Speaker1.jpg,Images/Speaker2.jpg,Images/Speaker3.jpg,Images/Speaker4.jpg,Audio/Speaker4_Per/P4-15-Per.wav,Speaker4,گوینده۴,,,,,,,,0,0,0,4,0,6,6,74,,,,,61.50371608400019,,,,,,,,,,,,,,,,,,,,,,,,,,,,,,,,,,,,,,,,,,,,,61.48005325000122,61.50371608400019,61.50371608400019,61.50371608400019,61.50371608400019,61.5126472083289,61.50371608400019,61.50371608400019,61.71115104199998,Incorrect! The correct answer is Speaker4. نادرست! پاسخ صحیح گوینده۴ است,0,1,1,0.2044868340017274,None,61.71516474999953,61.72704337499454,63.712353958995664,63.7332818750001,,,,,,,,,,,,,,,,,,,,,,,,,,,,,260207,001,2024-07-02_19h58.54.525,5-35,2024.1.4,None,2024-07-02 19h58.58.985649 +0900,
Images/Speaker1.jpg,Images/Speaker2.jpg,Images/Speaker3.jpg,Images/Speaker4.jpg,Audio/Speaker2_Per/P2-6-Per.wav,Speaker2,گوینده۲,,,,,,,,0,0,0,4,0,7,7,25,,,,,63.7332818750001,,,,,,,,,,,,,,,,,,,,,,,,,,,,,,,,,,,,,,,,,,,,,63.712552624994714,63.7332818750001,63.7332818750001,63.7332818750001,63.7332818750001,63.72881150066338,63.7332818750001,63.7332818750001,63.733898916994804,Incorrect! The correct answer is Speaker2. نادرست! پاسخ صحیح گوینده۲ است,0,1,1,2.1671948340008385,None,63.73796216699702,63.7472409999973,65.7298407499984,65.75193579199549,,,,,,,,,,,,,,,,,,,,,,,,,,,,,260207,001,2024-07-02_19h58.54.525,5-35,2024.1.4,None,2024-07-02 19h58.58.985649 +0900,
Images/Speaker1.jpg,Images/Speaker2.jpg,Images/Speaker3.jpg,Images/Speaker4.jpg,Audio/Speaker4_Per/P4-19-Per.wav,Speaker4,گوینده۴,,,,,,,,0,0,0,4,0,8,8,78,,,,,65.75193579199549,,,,,,,,,,,,,,,,,,,,,,,,,,,,,,,,,,,,,,,,,,,,,65.73001616699912,65.75193579199549,65.75193579199549,65.75193579199549,65.75193579199549,65.7462668336632,65.75193579199549,65.75193579199549,65.75262429199938,Incorrect! The correct answer is Speaker4. نادرست! پاسخ صحیح گوینده۴ است,0,1,1,1.9307674590017996,None,65.75641508399713,65.76661429199885,67.7618665839982,,,,,,,,,,,,,,,,,,,,,,,,,,,,,,260207,001,2024-07-02_19h58.54.525,5-35,2024.1.4,None,2024-07-02 19h58.58.985649 +0900,
Images/Speaker1.jpg,Images/Speaker2.jpg,Images/Speaker3.jpg,Images/Speaker4.jpg,Audio/Speaker2_Per/P2-15-Per.wav,Speaker2,گوینده۲,,,,,,,,0,0,0,4,0,9,9,34,,,,,67.78673124999477,,,,,,,,,,,,,,,,,,,,,,,,,,,,,,,,,,,,,,,,,,,,,67.76251679199777,67.78673124999477,67.78673124999477,67.78673124999477,67.78673124999477,67.79503166733096,67.78673124999477,67.78673124999477,68.08445754199784,Incorrect! The correct answer is Speaker2. نادرست! پاسخ صحیح گوینده۲ است,0,1,1,0.28934524999931455,None,68.08867674999783,68.10162420899724,70.09545641699515,,,,,,,,,,,,,,,,,,,,,,,,,,,,,,260207,001,2024-07-02_19h58.54.525,5-35,2024.1.4,None,2024-07-02 19h58.58.985649 +0900,
Images/Speaker1.jpg,Images/Speaker2.jpg,Images/Speaker3.jpg,Images/Speaker4.jpg,Audio/Speaker3_Per/P3-14-Per.wav,Speaker3,گوینده۳,,,,,,,,0,0,0,4,0,10,10,53,,,,,70.12101220899785,,,,,,,,,,,,,,,,,,,,,,,,,,,,,,,,,,,,,,,,,,,,,70.09603849999985,70.12101220899785,70.12101220899785,70.12101220899785,70.12101220899785,70.12862816733153,70.12101220899785,70.12101220899785,70.3746772089944,Incorrect! The correct answer is Speaker3. نادرست! پاسخ صحیح گوینده۳ است,0,1,1,0.2521771669998998,None,70.37864608399832,70.39159512499464,72.37918845899549,72.40360599999985,,,,,,,,,,,,,,,,,,,,,,,,,,,,,260207,001,2024-07-02_19h58.54.525,5-35,2024.1.4,None,2024-07-02 19h58.58.985649 +0900,
Images/Speaker1.jpg,Images/Speaker2.jpg,Images/Speaker3.jpg,Images/Speaker4.jpg,Audio/Speaker3_Per/P3-2-Per.wav,Speaker3,گوینده۳,,,,,,,,0,0,0,4,0,11,11,41,,,,,72.40360599999985,,,,,,,,,,,,,,,,,,,,,,,,,,,,,,,,,,,,,,,,,,,,,72.38021912499971,72.40360599999985,72.40360599999985,72.40360599999985,72.40360599999985,72.41032445833164,72.40360599999985,72.40360599999985,72.72774399999616,Incorrect! The correct answer is Speaker3. نادرست! پاسخ صحیح گوینده۳ است,0,1,1,0.31862762499804376,None,72.73180399999546,72.74432795900066,74.73090483399574,74.75381029200071,,,,,,,,,,,,,,,,,,,,,,,,,,,,,260207,001,2024-07-02_19h58.54.525,5-35,2024.1.4,None,2024-07-02 19h58.58.985649 +0900,
Images/Speaker1.jpg,Images/Speaker2.jpg,Images/Speaker3.jpg,Images/Speaker4.jpg,Audio/Speaker1_Per/P1-17-Per.wav,Speaker1,گوینده ۱,,,,,,,,0,0,0,4,0,12,12,16,,,,,74.75381029200071,,,,,,,,,,,,,,,,,,,,,,,,,,,,,,,,,,,,,,,,,,,,,74.73191349999979,74.75381029200071,74.75381029200071,74.75381029200071,74.75381029200071,74.76325145833155,74.75381029200071,74.75381029200071,74.93068495899934,Correct! صحیح است,1,1,1,0.1730032920022495,None,74.93493904199568,74.94605074999708,76.93045616699965,76.95222333399579,,,,,,,,,,,,,,,,,,,,,,,,,,,,,260207,001,2024-07-02_19h58.54.525,5-35,2024.1.4,None,2024-07-02 19h58.58.985649 +0900,
Images/Speaker1.jpg,Images/Speaker2.jpg,Images/Speaker3.jpg,Images/Speaker4.jpg,Audio/Speaker4_Per/P4-3-Per.wav,Speaker4,گوینده۴,,,,,,,,0,0,0,4,0,13,13,62,,,,,76.95222333399579,,,,,,,,,,,,,,,,,,,,,,,,,,,,,,,,,,,,,,,,,,,,,76.93063199999597,76.95222333399579,76.95222333399579,76.95222333399579,76.95222333399579,76.9468732506614,76.95222333399579,76.95222333399579,77.08685975000117,Incorrect! The correct answer is Speaker4. نادرست! پاسخ صحیح گوینده۴ است,0,1,1,0.13262220800243085,None,77.0908538750009,77.10357462499815,79.09320279199892,,,,,,,,,,,,,,,,,,,,,,,,,,,,,,260207,001,2024-07-02_19h58.54.525,5-35,2024.1.4,None,2024-07-02 19h58.58.985649 +0900,
Images/Speaker1.jpg,Images/Speaker2.jpg,Images/Speaker3.jpg,Images/Speaker4.jpg,Audio/Speaker3_Per/P3-20-Per.wav,Speaker3,گوینده۳,,,,,,,,0,0,0,4,0,14,14,59,,,,,79.11580066700117,,,,,,,,,,,,,,,,,,,,,,,,,,,,,,,,,,,,,,,,,,,,,79.0938930419943,79.11580066700117,79.11580066700117,79.11580066700117,79.11580066700117,79.10971425066624,79.11580066700117,79.11580066700117,79.25922170899867,Incorrect! The correct answer is Speaker3. نادرست! پاسخ صحیح گوینده۳ است,0,1,1,0.13652520900359377,None,79.26338599999872,79.27627870899596,81.26251354199485,81.28853470899776,,,,,,,,,,,,,,,,,,,,,,,,,,,,,260207,001,2024-07-02_19h58.54.525,5-35,2024.1.4,None,2024-07-02 19h58.58.985649 +0900,
Images/Speaker1.jpg,Images/Speaker2.jpg,Images/Speaker3.jpg,Images/Speaker4.jpg,Audio/Speaker3_Per/P3-12-Per.wav,Speaker3,گوینده۳,,,,,,,,0,0,0,4,0,15,15,51,,,,,81.28853470899776,,,,,,,,,,,,,,,,,,,,,,,,,,,,,,,,,,,,,,,,,,,,,81.263501292,81.28853470899776,81.28853470899776,81.28853470899776,81.28853470899776,81.29467787533261,81.28853470899776,81.28853470899776,81.4397902089986,Incorrect! The correct answer is Speaker3. نادرست! پاسخ صحیح گوینده۳ است,0,1,1,0.1484464589957497,None,81.44370354199782,81.45691033399635,83.4439113749977,,,,,,,,,,,,,,,,,,,,,,,,,,,,,,260207,001,2024-07-02_19h58.54.525,5-35,2024.1.4,None,2024-07-02 19h58.58.985649 +0900,
Images/Speaker1.jpg,Images/Speaker2.jpg,Images/Speaker3.jpg,Images/Speaker4.jpg,Audio/Speaker4_Per/P4-1-Per.wav,Speaker4,گوینده۴,,,,,,,,0,0,0,4,0,16,16,60,,,,,83.46508412499679,,,,,,,,,,,,,,,,,,,,,,,,,,,,,,,,,,,,,,,,,,,,,83.4441269999952,83.46508412499679,83.46508412499679,83.46508412499679,83.46508412499679,83.46053720866281,83.46508412499679,83.46508412499679,83.60947237499931,Incorrect! The correct answer is Speaker4. نادرست! پاسخ صحیح گوینده۴ است,0,1,1,0.13598245799948927,None,83.61342637499911,83.62625649999973,85.61298287499812,85.63552787499793,,,,,,,,,,,,,,,,,,,,,,,,,,,,,260207,001,2024-07-02_19h58.54.525,5-35,2024.1.4,None,2024-07-02 19h58.58.985649 +0900,
Images/Speaker1.jpg,Images/Speaker2.jpg,Images/Speaker3.jpg,Images/Speaker4.jpg,Audio/Speaker2_Per/P2-8-Per.wav,Speaker2,گوینده۲,,,,,,,,0,0,0,4,0,17,17,27,,,,,85.63552787499793,,,,,,,,,,,,,,,,,,,,,,,,,,,,,,,,,,,,,,,,,,,,,85.61399125000025,85.63552787499793,85.63552787499793,85.63552787499793,85.63552787499793,85.64538070833126,85.63552787499793,85.63552787499793,85.79455049999524,Incorrect! The correct answer is Speaker2. نادرست! پاسخ صحیح گوینده۲ است,0,1,1,0.15163570799631998,None,85.79843908399926,85.80841162499564,87.80132308400061,,,,,,,,,,,,,,,,,,,,,,,,,,,,,,260207,001,2024-07-02_19h58.54.525,5-35,2024.1.4,None,2024-07-02 19h58.58.985649 +0900,
Images/Speaker1.jpg,Images/Speaker2.jpg,Images/Speaker3.jpg,Images/Speaker4.jpg,Audio/Speaker3_Per/P3-15-Per.wav,Speaker3,گوینده۳,,,,,,,,0,0,0,4,0,18,18,54,,,,,87.8252566250012,,,,,,,,,,,,,,,,,,,,,,,,,,,,,,,,,,,,,,,,,,,,,87.80199033399549,87.8252566250012,87.8252566250012,87.8252566250012,87.8252566250012,87.83446120833153,87.8252566250012,87.8252566250012,88.03692274999776,Incorrect! The correct answer is Speaker3. نادرست! پاسخ صحیح گوینده۳ است,0,1,1,0.20840154100005748,None,88.04092341700016,88.05379624999478,90.03747583399672,90.0619311249975,,,,,,,,,,,,,,,,,,,,,,,,,,,,,260207,001,2024-07-02_19h58.54.525,5-35,2024.1.4,None,2024-07-02 19h58.58.985649 +0900,
Images/Speaker1.jpg,Images/Speaker2.jpg,Images/Speaker3.jpg,Images/Speaker4.jpg,Audio/Speaker3_Per/P3-4-Per.wav,Speaker3,گوینده۳,,,,,,,,0,0,0,4,0,19,19,43,,,,,90.0619311249975,,,,,,,,,,,,,,,,,,,,,,,,,,,,,,,,,,,,,,,,,,,,,90.03845195900067,90.0619311249975,90.0619311249975,90.0619311249975,90.0619311249975,90.06997587533309,90.0619311249975,90.0619311249975,90.25968104200001,Incorrect! The correct answer is Speaker3. نادرست! پاسخ صحیح گوینده۳ است,0,1,1,0.19484170799842104,None,90.26347279200127,90.27631716700125,92.26534312500007,,,,,,,,,,,,,,,,,,,,,,,,,,,,,,260207,001,2024-07-02_19h58.54.525,5-35,2024.1.4,None,2024-07-02 19h58.58.985649 +0900,
Images/Speaker1.jpg,Images/Speaker2.jpg,Images/Speaker3.jpg,Images/Speaker4.jpg,Audio/Speaker3_Per/P3-16-Per.wav,Speaker3,گوینده۳,,,,,,,,0,0,0,4,0,20,20,55,,,,,92.2860351249983,,,,,,,,,,,,,,,,,,,,,,,,,,,,,,,,,,,,,,,,,,,,,92.26551541699882,92.2860351249983,92.2860351249983,92.2860351249983,92.2860351249983,92.28197425066561,92.2860351249983,92.2860351249983,92.3201328340001,Incorrect! The correct answer is Speaker3. نادرست! پاسخ صحیح گوینده۳ است,0,1,1,0.03011216700542718,None,92.32437729199592,92.33721583399893,94.32078508399718,94.34677525000006,,,,,,,,,,,,,,,,,,,,,,,,,,,,,260207,001,2024-07-02_19h58.54.525,5-35,2024.1.4,None,2024-07-02 19h58.58.985649 +0900,
Images/Speaker1.jpg,Images/Speaker2.jpg,Images/Speaker3.jpg,Images/Speaker4.jpg,Audio/Speaker1_Per/P1-12-Per.wav,Speaker1,گوینده ۱,,,,,,,,0,0,0,4,0,21,21,11,,,,,94.34677525000006,,,,,,,,,,,,,,,,,,,,,,,,,,,,,,,,,,,,,,,,,,,,,94.32176416699804,94.34677525000006,94.34677525000006,94.34677525000006,94.34677525000006,94.35324420833106,94.34677525000006,94.34677525000006,94.45247587499762,Correct! صحیح است,1,1,1,0.10465154099802021,None,94.45627670899557,94.46711033400061,96.46009262499865,,,,,,,,,,,,,,,,,,,,,,,,,,,,,,260207,001,2024-07-02_19h58.54.525,5-35,2024.1.4,None,2024-07-02 19h58.58.985649 +0900,
Images/Speaker1.jpg,Images/Speaker2.jpg,Images/Speaker3.jpg,Images/Speaker4.jpg,Audio/Speaker3_Per/P3-11-Per.wav,Speaker3,گوینده۳,,,,,,,,0,0,0,4,0,22,22,50,,,,,96.48340987499978,,,,,,,,,,,,,,,,,,,,,,,,,,,,,,,,,,,,,,,,,,,,,96.46071812499576,96.48340987499978,96.48340987499978,96.48340987499978,96.48340987499978,96.49324641733304,96.48340987499978,96.48340987499978,96.65204774999438,Incorrect! The correct answer is Speaker3. نادرست! پاسخ صحیح گوینده۳ است,0,1,1,0.1570056670025224,None,96.6560029589964,96.66900870899553,98.65487749999738,98.6776335839968,,,,,,,,,,,,,,,,,,,,,,,,,,,,,260207,001,2024-07-02_19h58.54.525,5-35,2024.1.4,None,2024-07-02 19h58.58.985649 +0900,
Images/Speaker1.jpg,Images/Speaker2.jpg,Images/Speaker3.jpg,Images/Speaker4.jpg,Audio/Speaker4_Per/P4-11-Per.wav,Speaker4,گوینده۴,,,,,,,,0,0,0,4,0,23,23,70,,,,,98.6776335839968,,,,,,,,,,,,,,,,,,,,,,,,,,,,,,,,,,,,,,,,,,,,,98.65505124999618,98.6776335839968,98.6776335839968,98.6776335839968,98.6776335839968,98.67133241666694,98.6776335839968,98.6776335839968,98.79564954200032,Incorrect! The correct answer is Speaker4. نادرست! پاسخ صحیح گوینده۴ است,0,1,1,0.10951604200090514,None,98.7993989999959,98.81189891699614,100.80275024999719,,,,,,,,,,,,,,,,,,,,,,,,,,,,,,260207,001,2024-07-02_19h58.54.525,5-35,2024.1.4,None,2024-07-02 19h58.58.985649 +0900,
Images/Speaker1.jpg,Images/Speaker2.jpg,Images/Speaker3.jpg,Images/Speaker4.jpg,Audio/Speaker2_Per/P2-20-Per.wav,Speaker2,گوینده۲,,,,,,,,0,0,0,4,0,24,24,39,,,,,100.82527737499913,,,,,,,,,,,,,,,,,,,,,,,,,,,,,,,,,,,,,,,,,,,,,100.80338058399502,100.82527737499913,100.82527737499913,100.82527737499913,100.82527737499913,100.81924325066599,100.82527737499913,100.82527737499913,100.93048166699737,Incorrect! The correct answer is Speaker2. نادرست! پاسخ صحیح گوینده۲ است,0,1,1,0.10392837499966845,None,100.93473987499601,100.94726754199655,102.9351947499963,,,,,,,,,,,,,,,,,,,,,,,,,,,,,,260207,001,2024-07-02_19h58.54.525,5-35,2024.1.4,None,2024-07-02 19h58.58.985649 +0900,
Images/Speaker1.jpg,Images/Speaker2.jpg,Images/Speaker3.jpg,Images/Speaker4.jpg,Audio/Speaker1_Per/P1-13-Per.wav,Speaker1,گوینده ۱,,,,,,,,0,0,0,4,0,25,25,12,,,,,102.95750908400078,,,,,,,,,,,,,,,,,,,,,,,,,,,,,,,,,,,,,,,,,,,,,102.93577133399958,102.95750908400078,102.95750908400078,102.95750908400078,102.95750908400078,102.95167733366203,102.95750908400078,102.95750908400078,103.17069741700107,Correct! صحیح است,1,1,1,0.21208862499770476,None,103.17474075000064,103.18740099999559,105.17093074999866,105.19460016700032,,,,,,,,,,,,,,,,,,,,,,,,,,,,,260207,001,2024-07-02_19h58.54.525,5-35,2024.1.4,None,2024-07-02 19h58.58.985649 +0900,
Images/Speaker1.jpg,Images/Speaker2.jpg,Images/Speaker3.jpg,Images/Speaker4.jpg,Audio/Speaker1_Per/P1-11-Per.wav,Speaker1,گوینده ۱,,,,,,,,0,0,0,4,0,26,26,10,,,,,105.19460016700032,,,,,,,,,,,,,,,,,,,,,,,,,,,,,,,,,,,,,,,,,,,,,105.171957999999,105.19460016700032,105.19460016700032,105.19460016700032,105.19460016700032,105.20334966733256,105.19460016700032,105.19460016700032,105.37752916699537,Correct! صحیح است,1,1,1,0.17512991699913982,None,105.3814134589993,105.39042195899674,107.37740099999792,107.40146195899433,,,,,,,,,,,,,,,,,,,,,,,,,,,,,260207,001,2024-07-02_19h58.54.525,5-35,2024.1.4,None,2024-07-02 19h58.58.985649 +0900,
Images/Speaker1.jpg,Images/Speaker2.jpg,Images/Speaker3.jpg,Images/Speaker4.jpg,Audio/Speaker3_Per/P3-6-Per.wav,Speaker3,گوینده۳,,,,,,,,0,0,0,4,0,27,27,45,,,,,107.40146195899433,,,,,,,,,,,,,,,,,,,,,,,,,,,,,,,,,,,,,,,,,,,,,107.37757291700109,107.40146195899433,107.40146195899433,107.40146195899433,107.40146195899433,107.39325950066656,107.40146195899433,107.40146195899433,107.40208491699741,Incorrect! The correct answer is Speaker3. نادرست! پاسخ صحیح گوینده۳ است,0,1,1,2.1819938339976943,None,107.40600870899652,107.41626016699593,109.40110908399947,109.42263529199408,,,,,,,,,,,,,,,,,,,,,,,,,,,,,260207,001,2024-07-02_19h58.54.525,5-35,2024.1.4,None,2024-07-02 19h58.58.985649 +0900,
Images/Speaker1.jpg,Images/Speaker2.jpg,Images/Speaker3.jpg,Images/Speaker4.jpg,Audio/Speaker1_Per/P1-6-Per.wav,Speaker1,گوینده ۱,,,,,,,,0,0,0,4,0,28,28,5,,,,,109.42263529199408,,,,,,,,,,,,,,,,,,,,,,,,,,,,,,,,,,,,,,,,,,,,,109.40125883399742,109.42263529199408,109.42263529199408,109.42263529199408,109.42263529199408,109.41756675066087,109.42263529199408,109.42263529199408,109.57907287499984,Correct! صحیح است,1,1,1,0.15542324999842094,None,109.58291966699471,109.59366333399521,111.58495166699868,,,,,,,,,,,,,,,,,,,,,,,,,,,,,,260207,001,2024-07-02_19h58.54.525,5-35,2024.1.4,None,2024-07-02 19h58.58.985649 +0900,
Images/Speaker1.jpg,Images/Speaker2.jpg,Images/Speaker3.jpg,Images/Speaker4.jpg,Audio/Speaker4_Per/P4-13-Per.wav,Speaker4,گوینده۴,,,,,,,,0,0,0,4,0,29,29,72,,,,,111.60961633399711,,,,,,,,,,,,,,,,,,,,,,,,,,,,,,,,,,,,,,,,,,,,,111.58567941699584,111.60961633399711,111.60961633399711,111.60961633399711,111.60961633399711,111.61809262532964,111.60961633399711,111.60961633399711,111.72675508399698,Incorrect! The correct answer is Speaker4. نادرست! پاسخ صحیح گوینده۴ است,0,1,1,0.11615366700425511,None,111.73071954199986,111.7431805419983,113.72650012499798,113.74682791699888,,,,,,,,,,,,,,,,,,,,,,,,,,,,,260207,001,2024-07-02_19h58.54.525,5-35,2024.1.4,None,2024-07-02 19h58.58.985649 +0900,
Images/Speaker1.jpg,Images/Speaker2.jpg,Images/Speaker3.jpg,Images/Speaker4.jpg,Audio/Speaker2_Per/P2-7-Per.wav,Speaker2,گوینده۲,,,,,,,,0,0,0,4,0,30,30,26,,,,,113.74682791699888,,,,,,,,,,,,,,,,,,,,,,,,,,,,,,,,,,,,,,,,,,,,,113.72665974999836,113.74682791699888,113.74682791699888,113.74682791699888,113.74682791699888,113.74294904166551,113.74682791699888,113.74682791699888,113.96467429200129,Incorrect! The correct answer is Speaker2. نادرست! پاسخ صحیح گوینده۲ است,0,1,1,0.21660966600029496,None,113.96886033399642,113.98237549999612,115.97572399999626,,,,,,,,,,,,,,,,,,,,,,,,,,,,,,260207,001,2024-07-02_19h58.54.525,5-35,2024.1.4,None,2024-07-02 19h58.58.985649 +0900,
Images/Speaker1.jpg,Images/Speaker2.jpg,Images/Speaker3.jpg,Images/Speaker4.jpg,Audio/Speaker2_Per/P2-1-Per.wav,Speaker2,گوینده۲,,,,,,,,0,0,0,4,0,31,31,20,,,,,115.99735512500047,,,,,,,,,,,,,,,,,,,,,,,,,,,,,,,,,,,,,,,,,,,,,115.97589337499812,115.99735512500047,115.99735512500047,115.99735512500047,115.99735512500047,115.99235062566392,115.99735512500047,115.99735512500047,116.06829699999798,Incorrect! The correct answer is Speaker2. نادرست! پاسخ صحیح گوینده۲ است,0,1,1,0.05882854200172005,None,116.07229395899776,116.08474733399635,118.06901008400018,118.09042283400049,,,,,,,,,,,,,,,,,,,,,,,,,,,,,260207,001,2024-07-02_19h58.54.525,5-35,2024.1.4,None,2024-07-02 19h58.58.985649 +0900,
Images/Speaker1.jpg,Images/Speaker2.jpg,Images/Speaker3.jpg,Images/Speaker4.jpg,Audio/Speaker1_Per/P1-9-Per.wav,Speaker1,گوینده ۱,,,,,,,,0,0,0,4,0,32,32,8,,,,,118.09042283400049,,,,,,,,,,,,,,,,,,,,,,,,,,,,,,,,,,,,,,,,,,,,,118.06920970899955,118.09042283400049,118.09042283400049,118.09042283400049,118.09042283400049,118.08537100066702,118.09042283400049,118.09042283400049,118.23729591699521,Correct! صحیح است,1,1,1,0.14054700000269804,None,118.24139720899984,118.25264049999532,120.2457361669949,,,,,,,,,,,,,,,,,,,,,,,,,,,,,,260207,001,2024-07-02_19h58.54.525,5-35,2024.1.4,None,2024-07-02 19h58.58.985649 +0900,
Images/Speaker1.jpg,Images/Speaker2.jpg,Images/Speaker3.jpg,Images/Speaker4.jpg,Audio/Speaker1_Per/P1-2-Per.wav,Speaker1,گوینده ۱,,,,,,,,0,0,0,4,0,33,33,1,,,,,120.27242724999815,,,,,,,,,,,,,,,,,,,,,,,,,,,,,,,,,,,,,,,,,,,,,120.24639066699456,120.27242724999815,120.27242724999815,120.27242724999815,120.27242724999815,120.27888866733022,120.27242724999815,120.27242724999815,120.27307579199987,Correct! صحیح است,1,1,1,2.169288208002399,None,120.27354012499563,120.28206049999426,122.27151583399973,122.29291187499621,,,,,,,,,,,,,,,,,,,,,,,,,,,,,260207,001,2024-07-02_19h58.54.525,5-35,2024.1.4,None,2024-07-02 19h58.58.985649 +0900,
Images/Speaker1.jpg,Images/Speaker2.jpg,Images/Speaker3.jpg,Images/Speaker4.jpg,Audio/Speaker2_Per/P2-17-Per.wav,Speaker2,گوینده۲,,,,,,,,0,0,0,4,0,34,34,36,,,,,122.29291187499621,,,,,,,,,,,,,,,,,,,,,,,,,,,,,,,,,,,,,,,,,,,,,122.27258041699679,122.29291187499621,122.29291187499621,122.29291187499621,122.29291187499621,122.28741225066575,122.29291187499621,122.29291187499621,122.483252041995,Incorrect! The correct answer is Speaker2. نادرست! پاسخ صحیح گوینده۲ است,0,1,1,0.18918299999495503,None,122.48732770900097,122.49979058399913,124.48737629199604,124.51312699999835,,,,,,,,,,,,,,,,,,,,,,,,,,,,,260207,001,2024-07-02_19h58.54.525,5-35,2024.1.4,None,2024-07-02 19h58.58.985649 +0900,
Images/Speaker1.jpg,Images/Speaker2.jpg,Images/Speaker3.jpg,Images/Speaker4.jpg,Audio/Speaker4_Per/P4-17-Per.wav,Speaker4,گوینده۴,,,,,,,,0,0,0,4,0,35,35,76,,,,,124.51312699999835,,,,,,,,,,,,,,,,,,,,,,,,,,,,,,,,,,,,,,,,,,,,,124.48823212499701,124.51312699999835,124.51312699999835,124.51312699999835,124.51312699999835,124.51984575032887,124.51312699999835,124.51312699999835,124.66981154200039,Incorrect! The correct answer is Speaker4. نادرست! پاسخ صحیح گوینده۴ است,0,1,1,0.1535463339969283,None,124.67486358399765,124.68957949999458,126.68257516699668,,,,,,,,,,,,,,,,,,,,,,,,,,,,,,260207,001,2024-07-02_19h58.54.525,5-35,2024.1.4,None,2024-07-02 19h58.58.985649 +0900,
Images/Speaker1.jpg,Images/Speaker2.jpg,Images/Speaker3.jpg,Images/Speaker4.jpg,Audio/Speaker1_Per/P1-4-Per.wav,Speaker1,گوینده ۱,,,,,,,,0,0,0,4,0,36,36,3,,,,,126.70745824999904,,,,,,,,,,,,,,,,,,,,,,,,,,,,,,,,,,,,,,,,,,,,,126.68316962500103,126.70745824999904,126.70745824999904,126.70745824999904,126.70745824999904,126.71576558332939,126.70745824999904,126.70745824999904,126.7080377089951,Correct! صحیح است,1,1,1,2.0916307090010378,None,126.70824841699505,126.71609091699793,128.69927116699546,128.72062587500113,,,,,,,,,,,,,,,,,,,,,,,,,,,,,260207,001,2024-07-02_19h58.54.525,5-35,2024.1.4,None,2024-07-02 19h58.58.985649 +0900,
Images/Speaker1.jpg,Images/Speaker2.jpg,Images/Speaker3.jpg,Images/Speaker4.jpg,Audio/Speaker4_Per/P4-9-Per.wav,Speaker4,گوینده۴,,,,,,,,0,0,0,4,0,37,37,68,,,,,128.72062587500113,,,,,,,,,,,,,,,,,,,,,,,,,,,,,,,,,,,,,,,,,,,,,128.6994309590009,128.72062587500113,128.72062587500113,128.72062587500113,128.72062587500113,128.71563987566722,128.72062587500113,128.72062587500113,128.72124616699875,Incorrect! The correct answer is Speaker4. نادرست! پاسخ صحیح گوینده۴ است,0,1,1,1.9724679589999141,None,128.7254533749947,128.73524945900135,130.72716624999885,,,,,,,,,,,,,,,,,,,,,,,,,,,,,,260207,001,2024-07-02_19h58.54.525,5-35,2024.1.4,None,2024-07-02 19h58.58.985649 +0900,
Images/Speaker1.jpg,Images/Speaker2.jpg,Images/Speaker3.jpg,Images/Speaker4.jpg,Audio/Speaker3_Per/P3-13-Per.wav,Speaker3,گوینده۳,,,,,,,,0,0,0,4,0,38,38,52,,,,,130.75116429199988,,,,,,,,,,,,,,,,,,,,,,,,,,,,,,,,,,,,,,,,,,,,,130.7278792090001,130.75116429199988,130.75116429199988,130.75116429199988,130.75116429199988,130.76030000032966,130.75116429199988,130.75116429199988,130.80069791699498,Incorrect! The correct answer is Speaker3. نادرست! پاسخ صحیح گوینده۳ است,0,1,1,0.03836041699833004,None,130.80452366700047,130.81688949999807,132.8118169169975,,,,,,,,,,,,,,,,,,,,,,,,,,,,,,260207,001,2024-07-02_19h58.54.525,5-35,2024.1.4,None,2024-07-02 19h58.58.985649 +0900,
Images/Speaker1.jpg,Images/Speaker2.jpg,Images/Speaker3.jpg,Images/Speaker4.jpg,Audio/Speaker4_Per/P4-20-Per.wav,Speaker4,گوینده۴,,,,,,,,0,0,0,4,0,39,39,79,,,,,132.83578591699916,,,,,,,,,,,,,,,,,,,,,,,,,,,,,,,,,,,,,,,,,,,,,132.81240112499654,132.83578591699916,132.83578591699916,132.83578591699916,132.83578591699916,132.84496670833374,132.83578591699916,132.83578591699916,132.8853092499994,Incorrect! The correct answer is Speaker4. نادرست! پاسخ صحیح گوینده۴ است,0,1,1,0.040186625003116205,None,132.88955312499456,132.901692499996,134.8953552919993,,,,,,,,,,,,,,,,,,,,,,,,,,,,,,260207,001,2024-07-02_19h58.54.525,5-35,2024.1.4,None,2024-07-02 19h58.58.985649 +0900,
Images/Speaker1.jpg,Images/Speaker2.jpg,Images/Speaker3.jpg,Images/Speaker4.jpg,Audio/Speaker4_Per/P4-14-Per.wav,Speaker4,گوینده۴,,,,,,,,0,0,0,4,0,40,40,73,,,,,134.91723254200042,,,,,,,,,,,,,,,,,,,,,,,,,,,,,,,,,,,,,,,,,,,,,134.8955329169985,134.91723254200042,134.91723254200042,134.91723254200042,134.91723254200042,134.91199033366527,134.91723254200042,134.91723254200042,134.91784958399512,Incorrect! The correct answer is Speaker4. نادرست! پاسخ صحیح گوینده۴ است,0,1,1,1.988619125004334,None,134.9219961669951,134.93224370900134,136.9163568340009,136.9372541249977,,,,,,,,,,,,,,,,,,,,,,,,,,,,,260207,001,2024-07-02_19h58.54.525,5-35,2024.1.4,None,2024-07-02 19h58.58.985649 +0900,
Images/Speaker1.jpg,Images/Speaker2.jpg,Images/Speaker3.jpg,Images/Speaker4.jpg,Audio/Speaker1_Per/P1-16-Per.wav,Speaker1,گوینده ۱,,,,,,,,0,0,0,4,0,41,41,15,,,,,136.9372541249977,,,,,,,,,,,,,,,,,,,,,,,,,,,,,,,,,,,,,,,,,,,,,136.91652112500014,136.9372541249977,136.9372541249977,136.9372541249977,136.9372541249977,136.93273341666307,136.9372541249977,136.9372541249977,136.93782108400046,Correct! صحیح است,1,1,1,1.9793257500059553,None,136.94174345899955,136.95019345900073,138.94376070900034,,,,,,,,,,,,,,,,,,,,,,,,,,,,,,260207,001,2024-07-02_19h58.54.525,5-35,2024.1.4,None,2024-07-02 19h58.58.985649 +0900,
Images/Speaker1.jpg,Images/Speaker2.jpg,Images/Speaker3.jpg,Images/Speaker4.jpg,Audio/Speaker2_Per/P2-11-Per.wav,Speaker2,گوینده۲,,,,,,,,0,0,0,4,0,42,42,30,,,,,138.96521845900133,,,,,,,,,,,,,,,,,,,,,,,,,,,,,,,,,,,,,,,,,,,,,138.94397220899555,138.96521845900133,138.96521845900133,138.96521845900133,138.96521845900133,138.96039375066565,138.96521845900133,138.96521845900133,139.03617370899883,Incorrect! The correct answer is Speaker2. نادرست! پاسخ صحیح گوینده۲ است,0,1,1,0.06769099999655737,None,139.0400362500004,139.05258616699575,141.0381731669986,141.05962349999754,,,,,,,,,,,,,,,,,,,,,,,,,,,,,260207,001,2024-07-02_19h58.54.525,5-35,2024.1.4,None,2024-07-02 19h58.58.985649 +0900,
Images/Speaker1.jpg,Images/Speaker2.jpg,Images/Speaker3.jpg,Images/Speaker4.jpg,Audio/Speaker1_Per/P1-3-Per.wav,Speaker1,گوینده ۱,,,,,,,,0,0,0,4,0,43,43,2,,,,,141.05962349999754,,,,,,,,,,,,,,,,,,,,,,,,,,,,,,,,,,,,,,,,,,,,,141.03835595899727,141.05962349999754,141.05962349999754,141.05962349999754,141.05962349999754,141.05461504166695,141.05962349999754,141.05962349999754,141.17662270899746,Correct! صحیح است,1,1,1,0.11016745799861383,None,141.18053874999896,141.19159037499776,143.18355862499448,,,,,,,,,,,,,,,,,,,,,,,,,,,,,,260207,001,2024-07-02_19h58.54.525,5-35,2024.1.4,None,2024-07-02 19h58.58.985649 +0900,
Images/Speaker1.jpg,Images/Speaker2.jpg,Images/Speaker3.jpg,Images/Speaker4.jpg,Audio/Speaker1_Per/P1-18-Per.wav,Speaker1,گوینده ۱,,,,,,,,0,0,0,4,0,44,44,17,,,,,143.20408170899464,,,,,,,,,,,,,,,,,,,,,,,,,,,,,,,,,,,,,,,,,,,,,143.18371933399612,143.20408170899464,143.20408170899464,143.20408170899464,143.20408170899464,143.20019325066485,143.20408170899464,143.20408170899464,143.35980637499597,Correct! صحیح است,1,1,1,0.14882516600482631,None,143.36397845899774,143.3749654169951,145.36107704199821,145.38341149999906,,,,,,,,,,,,,,,,,,,,,,,,,,,,,260207,001,2024-07-02_19h58.54.525,5-35,2024.1.4,None,2024-07-02 19h58.58.985649 +0900,
Images/Speaker1.jpg,Images/Speaker2.jpg,Images/Speaker3.jpg,Images/Speaker4.jpg,Audio/Speaker1_Per/P1-7-Per.wav,Speaker1,گوینده ۱,,,,,,,,0,0,0,4,0,45,45,6,,,,,145.38341149999906,,,,,,,,,,,,,,,,,,,,,,,,,,,,,,,,,,,,,,,,,,,,,145.36164437499974,145.38341149999906,145.38341149999906,145.38341149999906,145.38341149999906,145.39347370833326,145.38341149999906,145.38341149999906,145.51391241699457,Correct! صحیح است,1,1,1,None,None,145.51817891699466,145.52717554199626,147.51587016700068,147.53721287499502,,,,,,,,,,,,,,,,,,,,,,,,,,,,,260207,001,2024-07-02_19h58.54.525,5-35,2024.1.4,None,2024-07-02 19h58.58.985649 +0900,
Images/Speaker1.jpg,Images/Speaker2.jpg,Images/Speaker3.jpg,Images/Speaker4.jpg,Audio/Speaker1_Per/P1-19-Per.wav,Speaker1,گوینده ۱,,,,,,,,0,0,0,4,0,46,46,18,,,,,147.53721287499502,,,,,,,,,,,,,,,,,,,,,,,,,,,,,,,,,,,,,,,,,,,,,147.51605641700007,147.53721287499502,147.53721287499502,147.53721287499502,147.53721287499502,147.532277833667,147.53721287499502,147.53721287499502,147.53795695900044,Correct! صحیح است,1,1,1,2.1242074170004344,None,147.54180891699798,147.55032208399643,149.54450437500054,,,,,,,,,,,,,,,,,,,,,,,,,,,,,,260207,001,2024-07-02_19h58.54.525,5-35,2024.1.4,None,2024-07-02 19h58.58.985649 +0900,
Images/Speaker1.jpg,Images/Speaker2.jpg,Images/Speaker3.jpg,Images/Speaker4.jpg,Audio/Speaker3_Per/P3-18-Per.wav,Speaker3,گوینده۳,,,,,,,,0,0,0,4,0,47,47,57,,,,,149.5683975419961,,,,,,,,,,,,,,,,,,,,,,,,,,,,,,,,,,,,,,,,,,,,,149.54520154199417,149.5683975419961,149.5683975419961,149.5683975419961,149.5683975419961,149.5776455003293,149.5683975419961,149.5683975419961,149.68528045899438,Incorrect! The correct answer is Speaker3. نادرست! پاسخ صحیح گوینده۳ است,0,1,1,0.11555820800276706,None,149.68933020899567,149.70201279199682,151.685861209,151.70989679199556,,,,,,,,,,,,,,,,,,,,,,,,,,,,,260207,001,2024-07-02_19h58.54.525,5-35,2024.1.4,None,2024-07-02 19h58.58.985649 +0900,
Images/Speaker1.jpg,Images/Speaker2.jpg,Images/Speaker3.jpg,Images/Speaker4.jpg,Audio/Speaker2_Per/P2-3-Per.wav,Speaker2,گوینده۲,,,,,,,,0,0,0,4,0,48,48,22,,,,,151.70989679199556,,,,,,,,,,,,,,,,,,,,,,,,,,,,,,,,,,,,,,,,,,,,,151.68643083400093,151.70989679199556,151.70989679199556,151.70989679199556,151.70989679199556,151.71821508333284,151.70989679199556,151.70989679199556,151.8269081670005,Incorrect! The correct answer is Speaker2. نادرست! پاسخ صحیح گوینده۲ است,0,1,1,0.1115067499995348,None,151.83056487499562,151.8425499169971,153.82929874999536,153.85054933399806,,,,,,,,,,,,,,,,,,,,,,,,,,,,,260207,001,2024-07-02_19h58.54.525,5-35,2024.1.4,None,2024-07-02 19h58.58.985649 +0900,
Images/Speaker1.jpg,Images/Speaker2.jpg,Images/Speaker3.jpg,Images/Speaker4.jpg,Audio/Speaker4_Per/P4-2-Per.wav,Speaker4,گوینده۴,,,,,,,,0,0,0,4,0,49,49,61,,,,,153.85054933399806,,,,,,,,,,,,,,,,,,,,,,,,,,,,,,,,,,,,,,,,,,,,,153.82947162499477,153.85054933399806,153.85054933399806,153.85054933399806,153.85054933399806,153.84569745866273,153.85054933399806,153.85054933399806,154.02387566700054,Incorrect! The correct answer is Speaker4. نادرست! پاسخ صحیح گوینده۴ است,0,1,1,0.17197420899901772,None,154.02831874999538,154.04245095900114,156.0254519999944,156.0469172499943,,,,,,,,,,,,,,,,,,,,,,,,,,,,,260207,001,2024-07-02_19h58.54.525,5-35,2024.1.4,None,2024-07-02 19h58.58.985649 +0900,
Images/Speaker1.jpg,Images/Speaker2.jpg,Images/Speaker3.jpg,Images/Speaker4.jpg,Audio/Speaker1_Per/P1-20-Per.wav,Speaker1,گوینده ۱,,,,,,,,0,0,0,4,0,50,50,19,,,,,156.0469172499943,,,,,,,,,,,,,,,,,,,,,,,,,,,,,,,,,,,,,,,,,,,,,156.02562362499884,156.0469172499943,156.0469172499943,156.0469172499943,156.0469172499943,156.04160708366206,156.0469172499943,156.0469172499943,156.20384654199734,Correct! صحیح است,1,1,1,0.15317020799557213,None,156.20810016700125,156.2198208339978,158.21014837500115,,,,,,,,,,,,,,,,,,,,,,,,,,,,,,260207,001,2024-07-02_19h58.54.525,5-35,2024.1.4,None,2024-07-02 19h58.58.985649 +0900,
Images/Speaker1.jpg,Images/Speaker2.jpg,Images/Speaker3.jpg,Images/Speaker4.jpg,Audio/Speaker4_Per/P4-18-Per.wav,Speaker4,گوینده۴,,,,,,,,0,0,0,4,0,51,51,77,,,,,158.23274795899488,,,,,,,,,,,,,,,,,,,,,,,,,,,,,,,,,,,,,,,,,,,,,158.2108112499991,158.23274795899488,158.23274795899488,158.23274795899488,158.23274795899488,158.22668820866627,158.23274795899488,158.23274795899488,158.25893862499652,Incorrect! The correct answer is Speaker4. نادرست! پاسخ صحیح گوینده۴ است,0,1,1,0.023992667003767565,None,158.26308837499528,158.27562620899698,160.26915012500103,,,,,,,,,,,,,,,,,,,,,,,,,,,,,,260207,001,2024-07-02_19h58.54.525,5-35,2024.1.4,None,2024-07-02 19h58.58.985649 +0900,
Images/Speaker1.jpg,Images/Speaker2.jpg,Images/Speaker3.jpg,Images/Speaker4.jpg,Audio/Speaker3_Per/P3-7-Per.wav,Speaker3,گوینده۳,,,,,,,,0,0,0,4,0,52,52,46,,,,,160.29266579199611,,,,,,,,,,,,,,,,,,,,,,,,,,,,,,,,,,,,,,,,,,,,,160.26977045899548,160.29266579199611,160.29266579199611,160.29266579199611,160.29266579199611,160.30227154232904,160.29266579199611,160.29266579199611,160.5175669589953,Incorrect! The correct answer is Speaker3. نادرست! پاسخ صحیح گوینده۳ است,0,1,1,0.22004150000429945,None,160.52159270899574,160.53437954199762,162.51859512499504,162.542762416997,,,,,,,,,,,,,,,,,,,,,,,,,,,,,260207,001,2024-07-02_19h58.54.525,5-35,2024.1.4,None,2024-07-02 19h58.58.985649 +0900,
Images/Speaker1.jpg,Images/Speaker2.jpg,Images/Speaker3.jpg,Images/Speaker4.jpg,Audio/Speaker3_Per/P3-17-Per.wav,Speaker3,گوینده۳,,,,,,,,0,0,0,4,0,53,53,56,,,,,162.542762416997,,,,,,,,,,,,,,,,,,,,,,,,,,,,,,,,,,,,,,,,,,,,,162.51875770899642,162.542762416997,162.542762416997,162.542762416997,162.542762416997,162.53497825066395,162.542762416997,162.542762416997,162.5434625419948,Incorrect! The correct answer is Speaker3. نادرست! پاسخ صحیح گوینده۳ است,0,1,1,2.239714292001736,None,162.5474954589954,162.55720795899833,164.54337512499478,164.56407224999566,,,,,,,,,,,,,,,,,,,,,,,,,,,,,260207,001,2024-07-02_19h58.54.525,5-35,2024.1.4,None,2024-07-02 19h58.58.985649 +0900,
Images/Speaker1.jpg,Images/Speaker2.jpg,Images/Speaker3.jpg,Images/Speaker4.jpg,Audio/Speaker2_Per/P2-5-Per.wav,Speaker2,گوینده۲,,,,,,,,0,0,0,4,0,54,54,24,,,,,164.56407224999566,,,,,,,,,,,,,,,,,,,,,,,,,,,,,,,,,,,,,,,,,,,,,164.54354266700102,164.56407224999566,164.56407224999566,164.56407224999566,164.56407224999566,164.55980879166262,164.56407224999566,164.56407224999566,164.7755352499953,Incorrect! The correct answer is Speaker2. نادرست! پاسخ صحیح گوینده۲ است,0,1,1,0.20944254100322723,None,164.7794961249965,164.79116287500074,166.78403204200004,,,,,,,,,,,,,,,,,,,,,,,,,,,,,,260207,001,2024-07-02_19h58.54.525,5-35,2024.1.4,None,2024-07-02 19h58.58.985649 +0900,
Images/Speaker1.jpg,Images/Speaker2.jpg,Images/Speaker3.jpg,Images/Speaker4.jpg,Audio/Speaker2_Per/P2-18-Per.wav,Speaker2,گوینده۲,,,,,,,,0,0,0,4,0,55,55,37,,,,,166.8082170839989,,,,,,,,,,,,,,,,,,,,,,,,,,,,,,,,,,,,,,,,,,,,,166.78471333399648,166.8082170839989,166.8082170839989,166.8082170839989,166.8082170839989,166.81719870833382,166.8082170839989,166.8082170839989,166.93428366699663,Incorrect! The correct answer is Speaker2. نادرست! پاسخ صحیح گوینده۲ است,0,1,1,0.11760712500108639,None,166.938475541996,166.95112874999904,168.94454270899587,,,,,,,,,,,,,,,,,,,,,,,,,,,,,,260207,001,2024-07-02_19h58.54.525,5-35,2024.1.4,None,2024-07-02 19h58.58.985649 +0900,
Images/Speaker1.jpg,Images/Speaker2.jpg,Images/Speaker3.jpg,Images/Speaker4.jpg,Audio/Speaker2_Per/P2-16-Per.wav,Speaker2,گوینده۲,,,,,,,,0,0,0,4,0,56,56,35,,,,,168.96816237500025,,,,,,,,,,,,,,,,,,,,,,,,,,,,,,,,,,,,,,,,,,,,,168.94513999999617,168.96816237500025,168.96816237500025,168.96816237500025,168.96816237500025,168.97766525032836,168.96816237500025,168.96816237500025,169.30851991699456,Incorrect! The correct answer is Speaker2. نادرست! پاسخ صحیح گوینده۲ است,0,1,1,0.3347531249964959,None,169.31226700000116,169.32474808400002,171.31771749999461,,,,,,,,,,,,,,,,,,,,,,,,,,,,,,260207,001,2024-07-02_19h58.54.525,5-35,2024.1.4,None,2024-07-02 19h58.58.985649 +0900,
Images/Speaker1.jpg,Images/Speaker2.jpg,Images/Speaker3.jpg,Images/Speaker4.jpg,Audio/Speaker1_Per/P1-5-Per.wav,Speaker1,گوینده ۱,,,,,,,,0,0,0,4,0,57,57,4,,,,,171.3390701669996,,,,,,,,,,,,,,,,,,,,,,,,,,,,,,,,,,,,,,,,,,,,,171.31788974999654,171.3390701669996,171.3390701669996,171.3390701669996,171.3390701669996,171.33435366666188,171.3390701669996,171.3390701669996,171.4493358749969,Correct! صحیح است,1,1,1,0.10540466700331308,None,171.45323300000018,171.46398733399838,173.45128575000126,173.47285374999774,,,,,,,,,,,,,,,,,,,,,,,,,,,,,260207,001,2024-07-02_19h58.54.525,5-35,2024.1.4,None,2024-07-02 19h58.58.985649 +0900,
Images/Speaker1.jpg,Images/Speaker2.jpg,Images/Speaker3.jpg,Images/Speaker4.jpg,Audio/Speaker2_Per/P2-19-Per.wav,Speaker2,گوینده۲,,,,,,,,0,0,0,4,0,58,58,38,,,,,173.47285374999774,,,,,,,,,,,,,,,,,,,,,,,,,,,,,,,,,,,,,,,,,,,,,173.45146899999963,173.47285374999774,173.47285374999774,173.47285374999774,173.47285374999774,173.46770495866465,173.47285374999774,173.47285374999774,173.68579029199464,Incorrect! The correct answer is Speaker2. نادرست! پاسخ صحیح گوینده۲ است,0,1,1,0.20865799999592127,None,173.69095533400105,173.70474933399964,175.69454425000004,,,,,,,,,,,,,,,,,,,,,,,,,,,,,,260207,001,2024-07-02_19h58.54.525,5-35,2024.1.4,None,2024-07-02 19h58.58.985649 +0900,
Images/Speaker1.jpg,Images/Speaker2.jpg,Images/Speaker3.jpg,Images/Speaker4.jpg,Audio/Speaker4_Per/P4-12-Per.wav,Speaker4,گوینده۴,,,,,,,,0,0,0,4,0,59,59,71,,,,,175.7177946669981,,,,,,,,,,,,,,,,,,,,,,,,,,,,,,,,,,,,,,,,,,,,,175.69511929199507,175.7177946669981,175.7177946669981,175.7177946669981,175.7177946669981,175.7276581253323,175.7177946669981,175.7177946669981,176.01011766699958,Incorrect! The correct answer is Speaker4. نادرست! پاسخ صحیح گوینده۴ است,0,1,1,0.27938250000443077,None,176.01384004199645,176.02442470900132,178.01645358400128,,,,,,,,,,,,,,,,,,,,,,,,,,,,,,260207,001,2024-07-02_19h58.54.525,5-35,2024.1.4,None,2024-07-02 19h58.58.985649 +0900,
Images/Speaker1.jpg,Images/Speaker2.jpg,Images/Speaker3.jpg,Images/Speaker4.jpg,Audio/Speaker2_Per/P2-9-Per.wav,Speaker2,گوینده۲,,,,,,,,0,0,0,4,0,60,60,28,,,,,178.0371784589952,,,,,,,,,,,,,,,,,,,,,,,,,,,,,,,,,,,,,,,,,,,,,178.01661149999563,178.0371784589952,178.0371784589952,178.0371784589952,178.0371784589952,178.03308245866745,178.0371784589952,178.0371784589952,179.2048558749957,Incorrect! The correct answer is Speaker2. نادرست! پاسخ صحیح گوینده۲ است,0,1,1,1.1648938750004163,None,179.20971687499696,179.22413770899584,181.20969758399588,181.230452374999,,,,,,,,,,,,,,,,,,,,,,,,,,,,,260207,001,2024-07-02_19h58.54.525,5-35,2024.1.4,None,2024-07-02 19h58.58.985649 +0900,
Images/Speaker1.jpg,Images/Speaker2.jpg,Images/Speaker3.jpg,Images/Speaker4.jpg,Audio/Speaker3_Per/P3-1-Per.wav,Speaker3,گوینده۳,,,,,,,,0,0,0,4,0,61,61,40,,,,,181.230452374999,,,,,,,,,,,,,,,,,,,,,,,,,,,,,,,,,,,,,,,,,,,,,181.20986658399488,181.230452374999,181.230452374999,181.230452374999,181.230452374999,181.22613991666393,181.230452374999,181.230452374999,181.63914999999542,Incorrect! The correct answer is Speaker3. نادرست! پاسخ صحیح گوینده۳ است,0,1,1,0.40633295900624944,None,181.64291558399418,181.65511308399437,183.63820224999654,183.659448624996,,,,,,,,,,,,,,,,,,,,,,,,,,,,,260207,001,2024-07-02_19h58.54.525,5-35,2024.1.4,None,2024-07-02 19h58.58.985649 +0900,
Images/Speaker1.jpg,Images/Speaker2.jpg,Images/Speaker3.jpg,Images/Speaker4.jpg,Audio/Speaker4_Per/P4-8-Per.wav,Speaker4,گوینده۴,,,,,,,,0,0,0,4,0,62,62,67,,,,,183.659448624996,,,,,,,,,,,,,,,,,,,,,,,,,,,,,,,,,,,,,,,,,,,,,183.63837599999533,183.659448624996,183.659448624996,183.659448624996,183.659448624996,183.65461041666666,183.659448624996,183.659448624996,183.73079824999877,Incorrect! The correct answer is Speaker4. نادرست! پاسخ صحیح گوینده۴ است,0,1,1,0.06959033299790462,None,183.7344723339993,183.74701999999525,185.7345576250009,,,,,,,,,,,,,,,,,,,,,,,,,,,,,,260207,001,2024-07-02_19h58.54.525,5-35,2024.1.4,None,2024-07-02 19h58.58.985649 +0900,
Images/Speaker1.jpg,Images/Speaker2.jpg,Images/Speaker3.jpg,Images/Speaker4.jpg,Audio/Speaker1_Per/P1-1-Per.wav,Speaker1,گوینده ۱,,,,,,,,0,0,0,4,0,63,63,0,,,,,185.75607616699563,,,,,,,,,,,,,,,,,,,,,,,,,,,,,,,,,,,,,,,,,,,,,185.73473908400047,185.75607616699563,185.75607616699563,185.75607616699563,185.75607616699563,185.7511822916679,185.75607616699563,185.75607616699563,185.8440408749957,Correct! صحیح است,1,1,1,0.07850583300023573,None,185.84822549999808,185.8588968749973,187.85333995899418,,,,,,,,,,,,,,,,,,,,,,,,,,,,,,260207,001,2024-07-02_19h58.54.525,5-35,2024.1.4,None,2024-07-02 19h58.58.985649 +0900,
Images/Speaker1.jpg,Images/Speaker2.jpg,Images/Speaker3.jpg,Images/Speaker4.jpg,Audio/Speaker1_Per/P1-4-Per.wav,Speaker1,گوینده ۱,,,,,,,,0,0,0,4,0,64,64,13,,,,,187.87761879200116,,,,,,,,,,,,,,,,,,,,,,,,,,,,,,,,,,,,,,,,,,,,,187.8539524999942,187.87761879200116,187.87761879200116,187.87761879200116,187.87761879200116,187.88649379232862,187.87761879200116,187.87761879200116,188.10668599999917,Correct! صحیح است,1,1,1,0.21705787500104634,None,188.11048233399924,188.12194274999638,190.10907320899423,190.13039437499538,,,,,,,,,,,,,,,,,,,,,,,,,,,,,260207,001,2024-07-02_19h58.54.525,5-35,2024.1.4,None,2024-07-02 19h58.58.985649 +0900,
Images/Speaker1.jpg,Images/Speaker2.jpg,Images/Speaker3.jpg,Images/Speaker4.jpg,Audio/Speaker3_Per/P3-9-Per.wav,Speaker3,گوینده۳,,,,,,,,0,0,0,4,0,65,65,48,,,,,190.13039437499538,,,,,,,,,,,,,,,,,,,,,,,,,,,,,,,,,,,,,,,,,,,,,190.10923879199981,190.13039437499538,190.13039437499538,190.13039437499538,190.13039437499538,190.12541987566172,190.13039437499538,190.13039437499538,190.21854491699924,Incorrect! The correct answer is Speaker3. نادرست! پاسخ صحیح گوینده۳ است,0,1,1,0.08307220799906645,None,190.22233533399412,190.2350896249991,192.21861687499768,192.2398347089984,,,,,,,,,,,,,,,,,,,,,,,,,,,,,260207,001,2024-07-02_19h58.54.525,5-35,2024.1.4,None,2024-07-02 19h58.58.985649 +0900,
Images/Speaker1.jpg,Images/Speaker2.jpg,Images/Speaker3.jpg,Images/Speaker4.jpg,Audio/Speaker3_Per/P3-8-Per.wav,Speaker3,گوینده۳,,,,,,,,0,0,0,4,0,66,66,47,,,,,192.2398347089984,,,,,,,,,,,,,,,,,,,,,,,,,,,,,,,,,,,,,,,,,,,,,192.2188495839946,192.2398347089984,192.2398347089984,192.2398347089984,192.2398347089984,192.23507533366163,192.2398347089984,192.2398347089984,192.40316016699944,Incorrect! The correct answer is Speaker3. نادرست! پاسخ صحیح گوینده۳ است,0,1,1,0.15387824999925215,None,192.40703224999743,192.41990212499513,194.41025762500067,,,,,,,,,,,,,,,,,,,,,,,,,,,,,,260207,001,2024-07-02_19h58.54.525,5-35,2024.1.4,None,2024-07-02 19h58.58.985649 +0900,
Images/Speaker1.jpg,Images/Speaker2.jpg,Images/Speaker3.jpg,Images/Speaker4.jpg,Audio/Speaker3_Per/P3-10-Per.wav,Speaker3,گوینده۳,,,,,,,,0,0,0,4,0,67,67,49,,,,,194.4318625839951,,,,,,,,,,,,,,,,,,,,,,,,,,,,,,,,,,,,,,,,,,,,,194.41045674999623,194.4318625839951,194.4318625839951,194.4318625839951,194.4318625839951,194.42688420866423,194.4318625839951,194.4318625839951,194.59772908399464,Incorrect! The correct answer is Speaker3. نادرست! پاسخ صحیح گوینده۳ است,0,1,1,0.16294754199770978,None,194.60199595899758,194.61461966699426,196.61201495899877,,,,,,,,,,,,,,,,,,,,,,,,,,,,,,260207,001,2024-07-02_19h58.54.525,5-35,2024.1.4,None,2024-07-02 19h58.58.985649 +0900,
Images/Speaker1.jpg,Images/Speaker2.jpg,Images/Speaker3.jpg,Images/Speaker4.jpg,Audio/Speaker1_Per/P1-15-Per.wav,Speaker1,گوینده ۱,,,,,,,,0,0,0,4,0,68,68,14,,,,,196.63712716699956,,,,,,,,,,,,,,,,,,,,,,,,,,,,,,,,,,,,,,,,,,,,,196.61262991699914,196.63712716699956,196.63712716699956,196.63712716699956,196.63712716699956,196.64517800033406,196.63712716699956,196.63712716699956,196.86356504199648,Correct! صحیح است,1,1,1,0.21969004199490882,None,196.86857862499892,196.87924770899554,198.86438358399755,198.88606216699554,,,,,,,,,,,,,,,,,,,,,,,,,,,,,260207,001,2024-07-02_19h58.54.525,5-35,2024.1.4,None,2024-07-02 19h58.58.985649 +0900,
Images/Speaker1.jpg,Images/Speaker2.jpg,Images/Speaker3.jpg,Images/Speaker4.jpg,Audio/Speaker1_Per/P1-8-Per.wav,Speaker1,گوینده ۱,,,,,,,,0,0,0,4,0,69,69,7,,,,,198.88606216699554,,,,,,,,,,,,,,,,,,,,,,,,,,,,,,,,,,,,,,,,,,,,,198.86456058399926,198.88606216699554,198.88606216699554,198.88606216699554,198.88606216699554,198.88081337566499,198.88606216699554,198.88606216699554,198.9743352919977,Correct! صحیح است,1,1,1,0.08390133299690206,None,198.9783493340001,198.98931541699858,200.97407608399953,200.99525320899556,,,,,,,,,,,,,,,,,,,,,,,,,,,,,260207,001,2024-07-02_19h58.54.525,5-35,2024.1.4,None,2024-07-02 19h58.58.985649 +0900,
Images/Speaker1.jpg,Images/Speaker2.jpg,Images/Speaker3.jpg,Images/Speaker4.jpg,Audio/Speaker4_Per/P4-16-Per.wav,Speaker4,گوینده۴,,,,,,,,0,0,0,4,0,70,70,75,,,,,200.99525320899556,,,,,,,,,,,,,,,,,,,,,,,,,,,,,,,,,,,,,,,,,,,,,200.9742554589975,200.99525320899556,200.99525320899556,200.99525320899556,200.99525320899556,200.9904809166658,200.99525320899556,200.99525320899556,201.16892887499853,Incorrect! The correct answer is Speaker4. نادرست! پاسخ صحیح گوینده۴ است,0,1,1,0.16051874999538995,None,201.1730219999954,201.1836312499945,203.17722245899495,,,,,,,,,,,,,,,,,,,,,,,,,,,,,,260207,001,2024-07-02_19h58.54.525,5-35,2024.1.4,None,2024-07-02 19h58.58.985649 +0900,
Images/Speaker1.jpg,Images/Speaker2.jpg,Images/Speaker3.jpg,Images/Speaker4.jpg,Audio/Speaker4_Per/P4-5-Per.wav,Speaker4,گوینده۴,,,,,,,,0,0,0,4,0,71,71,64,,,,,203.20213837499614,,,,,,,,,,,,,,,,,,,,,,,,,,,,,,,,,,,,,,,,,,,,,203.17792349999945,203.20213837499614,203.20213837499614,203.20213837499614,203.20213837499614,203.21036420833167,203.20213837499614,203.20213837499614,203.37677458399412,Incorrect! The correct answer is Speaker4. نادرست! پاسخ صحیح گوینده۴ است,0,1,1,0.16371124999568565,None,203.3805340839972,203.3936762089943,205.38065474999894,,,,,,,,,,,,,,,,,,,,,,,,,,,,,,260207,001,2024-07-02_19h58.54.525,5-35,2024.1.4,None,2024-07-02 19h58.58.985649 +0900,
Images/Speaker1.jpg,Images/Speaker2.jpg,Images/Speaker3.jpg,Images/Speaker4.jpg,Audio/Speaker2_Per/P2-4-Per.wav,Speaker2,گوینده۲,,,,,,,,0,0,0,4,0,72,72,23,,,,,205.40233041699685,,,,,,,,,,,,,,,,,,,,,,,,,,,,,,,,,,,,,,,,,,,,,205.3808432500009,205.40233041699685,205.40233041699685,205.40233041699685,205.40233041699685,205.3972654166612,205.40233041699685,205.40233041699685,205.40300504199695,Incorrect! The correct answer is Speaker2. نادرست! پاسخ صحیح گوینده۲ است,0,1,1,2.1673421659943415,None,205.40675541699602,205.41664241699618,207.41156958400097,,,,,,,,,,,,,,,,,,,,,,,,,,,,,,260207,001,2024-07-02_19h58.54.525,5-35,2024.1.4,None,2024-07-02 19h58.58.985649 +0900,
Images/Speaker1.jpg,Images/Speaker2.jpg,Images/Speaker3.jpg,Images/Speaker4.jpg,Audio/Speaker3_Per/P3-5-Per.wav,Speaker3,گوینده۳,,,,,,,,0,0,0,4,0,73,73,44,,,,,207.43689029199595,,,,,,,,,,,,,,,,,,,,,,,,,,,,,,,,,,,,,,,,,,,,,207.41219437499967,207.43689029199595,207.43689029199595,207.43689029199595,207.43689029199595,207.4447392503285,207.43689029199595,207.43689029199595,207.55923641700065,Incorrect! The correct answer is Speaker3. نادرست! پاسخ صحیح گوینده۳ است,0,1,1,0.117133042003843,None,207.56300587499572,207.57519112499722,209.55928083400067,209.57977016699442,,,,,,,,,,,,,,,,,,,,,,,,,,,,,260207,001,2024-07-02_19h58.54.525,5-35,2024.1.4,None,2024-07-02 19h58.58.985649 +0900,
Images/Speaker1.jpg,Images/Speaker2.jpg,Images/Speaker3.jpg,Images/Speaker4.jpg,Audio/Speaker4_Per/P4-4-Per.wav,Speaker4,گوینده۴,,,,,,,,0,0,0,4,0,74,74,63,,,,,209.57977016699442,,,,,,,,,,,,,,,,,,,,,,,,,,,,,,,,,,,,,,,,,,,,,209.5594739589942,209.57977016699442,209.57977016699442,209.57977016699442,209.57977016699442,209.57570983366557,209.57977016699442,209.57977016699442,209.80731716699665,Incorrect! The correct answer is Speaker4. نادرست! پاسخ صحیح گوینده۴ است,0,1,1,0.21783445800247137,None,209.81147475000034,209.8242705839948,211.8080189589964,211.82939766699565,,,,,,,,,,,,,,,,,,,,,,,,,,,,,260207,001,2024-07-02_19h58.54.525,5-35,2024.1.4,None,2024-07-02 19h58.58.985649 +0900,
Images/Speaker1.jpg,Images/Speaker2.jpg,Images/Speaker3.jpg,Images/Speaker4.jpg,Audio/Speaker2_Per/P2-14-Per.wav,Speaker2,گوینده۲,,,,,,,,0,0,0,4,0,75,75,33,,,,,211.82939766699565,,,,,,,,,,,,,,,,,,,,,,,,,,,,,,,,,,,,,,,,,,,,,211.80817879199458,211.82939766699565,211.82939766699565,211.82939766699565,211.82939766699565,211.82443633366736,211.82939766699565,211.82939766699565,212.08954458399967,Incorrect! The correct answer is Speaker2. نادرست! پاسخ صحیح گوینده۲ است,0,1,1,0.2566616670010262,None,212.09335495899722,212.10593308399984,214.09352608399786,214.1151889169996,,,,,,,,,,,,,,,,,,,,,,,,,,,,,260207,001,2024-07-02_19h58.54.525,5-35,2024.1.4,None,2024-07-02 19h58.58.985649 +0900,
Images/Speaker1.jpg,Images/Speaker2.jpg,Images/Speaker3.jpg,Images/Speaker4.jpg,Audio/Speaker2_Per/P2-2-Per.wav,Speaker2,گوینده۲,,,,,,,,0,0,0,4,0,76,76,21,,,,,214.1151889169996,,,,,,,,,,,,,,,,,,,,,,,,,,,,,,,,,,,,,,,,,,,,,214.093739584001,214.1151889169996,214.1151889169996,214.1151889169996,214.1151889169996,214.10995116666552,214.1151889169996,214.1151889169996,214.31040162499994,Incorrect! The correct answer is Speaker2. نادرست! پاسخ صحیح گوینده۲ است,0,1,1,0.1895702500041807,None,214.31431062499905,214.32729304199893,216.31133937499544,216.33865545899607,,,,,,,,,,,,,,,,,,,,,,,,,,,,,260207,001,2024-07-02_19h58.54.525,5-35,2024.1.4,None,2024-07-02 19h58.58.985649 +0900,
Images/Speaker1.jpg,Images/Speaker2.jpg,Images/Speaker3.jpg,Images/Speaker4.jpg,Audio/Speaker4_Per/P4-7-Per.wav,Speaker4,گوینده۴,,,,,,,,0,0,0,4,0,77,77,66,,,,,216.33865545899607,,,,,,,,,,,,,,,,,,,,,,,,,,,,,,,,,,,,,,,,,,,,,216.3119127089958,216.33865545899607,216.33865545899607,216.33865545899607,216.33865545899607,216.34373504233423,216.33865545899607,216.33865545899607,216.33931116700114,Incorrect! The correct answer is Speaker4. نادرست! پاسخ صحیح گوینده۴ است,0,1,1,2.2102538330000243,None,216.339628583999,216.35001574999478,218.3389016250003,218.3632486669958,,,,,,,,,,,,,,,,,,,,,,,,,,,,,260207,001,2024-07-02_19h58.54.525,5-35,2024.1.4,None,2024-07-02 19h58.58.985649 +0900,
Images/Speaker1.jpg,Images/Speaker2.jpg,Images/Speaker3.jpg,Images/Speaker4.jpg,Audio/Speaker3_Per/P3-19-Per.wav,Speaker3,گوینده۳,,,,,,,,0,0,0,4,0,78,78,58,,,,,218.3632486669958,,,,,,,,,,,,,,,,,,,,,,,,,,,,,,,,,,,,,,,,,,,,,218.33985508399928,218.3632486669958,218.3632486669958,218.3632486669958,218.3632486669958,218.37129375033015,218.3632486669958,218.3632486669958,218.59328945900052,Incorrect! The correct answer is Speaker3. نادرست! پاسخ صحیح گوینده۳ است,0,1,1,0.22597541700088186,None,218.59716533399478,218.61012508400017,220.59297516699735,220.61451454199414,,,,,,,,,,,,,,,,,,,,,,,,,,,,,260207,001,2024-07-02_19h58.54.525,5-35,2024.1.4,None,2024-07-02 19h58.58.985649 +0900,
Images/Speaker1.jpg,Images/Speaker2.jpg,Images/Speaker3.jpg,Images/Speaker4.jpg,Audio/Speaker4_Per/P4-6-Per.wav,Speaker4,گوینده۴,,,,,,,,0,0,0,4,0,79,79,65,,,,,220.61451454199414,,,,,,,,,,,,,,,,,,,,,,,,,,,,,,,,,,,,,,,,,,,,,220.5931679589994,220.61451454199414,220.61451454199414,220.61451454199414,220.61451454199414,220.6094183756616,220.61451454199414,220.61451454199414,221.90468841699476,Incorrect! The correct answer is Speaker4. نادرست! پاسخ صحیح گوینده۴ است,0,1,1,1.287222582999675,None,221.90960516699852,221.9240808339964,223.9102756669963,,,,,,,,,,,,,,,,,,,,,,,,,,,,,,260207,001,2024-07-02_19h58.54.525,5-35,2024.1.4,None,2024-07-02 19h58.58.985649 +0900,
Images/Speaker1.jpg,Images/Speaker2.jpg,Images/Speaker3.jpg,Images/Speaker4.jpg,Audio/Speaker1_Per/P1-5-Per.wav,Speaker1,گوینده ۱,,,,,,,,0,0,0,4,,,,,,,,,,,,,,,,,,,,,,,,,,,,,,,,,,,,,,,,,,,,,,,,,,,,,,,,,,,,,,,,,,,,,,,,,223.91035970899975,0.0,False,223.91059924999718,,,,,,,,,,,,,,,,,,,,,,,,,260207,001,2024-07-02_19h58.54.525,5-35,2024.1.4,None,2024-07-02 19h58.58.985649 +0900,
Images/Speaker1.jpg,Images/Speaker2.jpg,Images/Speaker3.jpg,Images/Speaker4.jpg,Audio/Speaker2_Per/P2-1-Per.wav,Speaker2,گوینده۲,,,,,,,,0,1,1,50,0,0,0,20,,,,,223.95379245899676,,,,,,,,,,,,,,,,,,,,,,,,,,,,,,,,,,,,,,,,,,,,,223.93250979200093,223.95379245899676,223.95379245899676,223.95379245899676,223.95379245899676,223.9602303749969,223.95379245899676,223.95379245899676,229.1739549999984,Correct! صحیح است,1,1,2,5.217340916999092,None,229.17437937499926,229.18569437499536,231.1683640839983,231.18867054199654,,,,,,,,,,,,,,,,,,,,,,,,,,,,,260207,001,2024-07-02_19h58.54.525,5-35,2024.1.4,None,2024-07-02 19h58.58.985649 +0900,
Images/Speaker1.jpg,Images/Speaker2.jpg,Images/Speaker3.jpg,Images/Speaker4.jpg,Audio/Speaker2_Per/P2-17-Per.wav,Speaker2,گوینده۲,,,,,,,,0,1,1,50,0,1,1,36,,,,,231.18867054199654,,,,,,,,,,,,,,,,,,,,,,,,,,,,,,,,,,,,,,,,,,,,,231.1685282499966,231.18867054199654,231.18867054199654,231.18867054199654,231.18867054199654,231.1848128336608,231.18867054199654,231.18867054199654,233.02565929199773,Correct! صحیح است,1,1,2,1.8257402500021271,None,233.02947454199602,233.0384583749983,235.02463366699521,235.04645304199948,,,,,,,,,,,,,,,,,,,,,,,,,,,,,260207,001,2024-07-02_19h58.54.525,5-35,2024.1.4,None,2024-07-02 19h58.58.985649 +0900,
Images/Speaker1.jpg,Images/Speaker2.jpg,Images/Speaker3.jpg,Images/Speaker4.jpg,Audio/Speaker4_Per/P4-11-Per.wav,Speaker4,گوینده۴,,,,,,,,0,1,1,50,0,2,2,70,,,,,235.04645304199948,,,,,,,,,,,,,,,,,,,,,,,,,,,,,,,,,,,,,,,,,,,,,235.02481779200025,235.04645304199948,235.04645304199948,235.04645304199948,235.04645304199948,235.04101154166372,235.04645304199948,235.04645304199948,237.07863920900127,Correct! صحیح است,1,1,4,2.023374791999231,None,237.08261916699848,237.09445129199594,239.08169387499947,239.10313362499437,,,,,,,,,,,,,,,,,,,,,,,,,,,,,260207,001,2024-07-02_19h58.54.525,5-35,2024.1.4,None,2024-07-02 19h58.58.985649 +0900,
Images/Speaker1.jpg,Images/Speaker2.jpg,Images/Speaker3.jpg,Images/Speaker4.jpg,Audio/Speaker3_Per/P3-11-Per.wav,Speaker3,گوینده۳,,,,,,,,0,1,1,50,0,3,3,50,,,,,239.10313362499437,,,,,,,,,,,,,,,,,,,,,,,,,,,,,,,,,,,,,,,,,,,,,239.0818938339944,239.10313362499437,239.10313362499437,239.10313362499437,239.10313362499437,239.09806566666182,239.10313362499437,239.10313362499437,240.51164674999745,Correct! صحیح است,1,1,3,1.4031697919999715,None,240.51539279199642,240.52755604199774,242.5121158749971,242.53257866700005,,,,,,,,,,,,,,,,,,,,,,,,,,,,,260207,001,2024-07-02_19h58.54.525,5-35,2024.1.4,None,2024-07-02 19h58.58.985649 +0900,
Images/Speaker1.jpg,Images/Speaker2.jpg,Images/Speaker3.jpg,Images/Speaker4.jpg,Audio/Speaker4_Per/P4-20-Per.wav,Speaker4,گوینده۴,,,,,,,,0,1,1,50,0,4,4,79,,,,,242.53257866700005,,,,,,,,,,,,,,,,,,,,,,,,,,,,,,,,,,,,,,,,,,,,,242.512292333995,242.53257866700005,242.53257866700005,242.53257866700005,242.53257866700005,242.52856812566122,242.53257866700005,242.53257866700005,243.97335029199894,Correct! صحیح است,1,1,4,1.4389276250003604,None,243.97888016700017,243.9907772919978,245.97741916700033,246.00006287499855,,,,,,,,,,,,,,,,,,,,,,,,,,,,,260207,001,2024-07-02_19h58.54.525,5-35,2024.1.4,None,2024-07-02 19h58.58.985649 +0900,
Images/Speaker1.jpg,Images/Speaker2.jpg,Images/Speaker3.jpg,Images/Speaker4.jpg,Audio/Speaker3_Per/P3-18-Per.wav,Speaker3,گوینده۳,,,,,,,,0,1,1,50,0,5,5,57,,,,,246.00006287499855,,,,,,,,,,,,,,,,,,,,,,,,,,,,,,,,,,,,,,,,,,,,,245.97798887499812,246.00006287499855,246.00006287499855,246.00006287499855,246.00006287499855,246.00997975032857,246.00006287499855,246.00006287499855,247.28371733400127,Correct! صحیح است,1,1,3,1.27300845800346,None,247.2875926669949,247.2989090419942,249.29025283399824,,,,,,,,,,,,,,,,,,,,,,,,,,,,,,260207,001,2024-07-02_19h58.54.525,5-35,2024.1.4,None,2024-07-02 19h58.58.985649 +0900,
Images/Speaker1.jpg,Images/Speaker2.jpg,Images/Speaker3.jpg,Images/Speaker4.jpg,Audio/Speaker1_Per/P1-4-Per.wav,Speaker1,گوینده ۱,,,,,,,,0,1,1,50,0,6,6,13,,,,,249.31189591699513,,,,,,,,,,,,,,,,,,,,,,,,,,,,,,,,,,,,,,,,,,,,,249.29043591699883,249.31189591699513,249.31189591699513,249.31189591699513,249.31189591699513,249.30687687566777,249.31189591699513,249.31189591699513,250.5482394589999,Correct! صحیح است,1,1,1,1.231327458001033,None,250.5520051249987,250.56345716699434,252.5509627499996,252.571855958995,,,,,,,,,,,,,,,,,,,,,,,,,,,,,260207,001,2024-07-02_19h58.54.525,5-35,2024.1.4,None,2024-07-02 19h58.58.985649 +0900,
Images/Speaker1.jpg,Images/Speaker2.jpg,Images/Speaker3.jpg,Images/Speaker4.jpg,Audio/Speaker2_Per/P2-20-Per.wav,Speaker2,گوینده۲,,,,,,,,0,1,1,50,0,7,7,39,,,,,252.571855958995,,,,,,,,,,,,,,,,,,,,,,,,,,,,,,,,,,,,,,,,,,,,,252.55115841699444,252.571855958995,252.571855958995,252.571855958995,252.571855958995,252.56733883366203,252.571855958995,252.571855958995,253.71449216699693,Correct! صحیح است,1,1,2,1.1338066250027623,None,253.71828874999483,253.72760883400042,255.71243920899724,255.7337706670005,,,,,,,,,,,,,,,,,,,,,,,,,,,,,260207,001,2024-07-02_19h58.54.525,5-35,2024.1.4,None,2024-07-02 19h58.58.985649 +0900,
Images/Speaker1.jpg,Images/Speaker2.jpg,Images/Speaker3.jpg,Images/Speaker4.jpg,Audio/Speaker4_Per/P4-17-Per.wav,Speaker4,گوینده۴,,,,,,,,0,1,1,50,0,8,8,76,,,,,255.7337706670005,,,,,,,,,,,,,,,,,,,,,,,,,,,,,,,,,,,,,,,,,,,,,255.7126113339982,255.7337706670005,255.7337706670005,255.7337706670005,255.7337706670005,255.72884208366693,255.7337706670005,255.7337706670005,256.9542702499966,Correct! صحیح است,1,1,4,1.2112924170069164,None,256.9585362500002,256.97002291699755,258.958285834,258.9798578339978,,,,,,,,,,,,,,,,,,,,,,,,,,,,,260207,001,2024-07-02_19h58.54.525,5-35,2024.1.4,None,2024-07-02 19h58.58.985649 +0900,
Images/Speaker1.jpg,Images/Speaker2.jpg,Images/Speaker3.jpg,Images/Speaker4.jpg,Audio/Speaker3_Per/P3-7-Per.wav,Speaker3,گوینده۳,,,,,,,,0,1,1,50,0,9,9,46,,,,,258.9798578339978,,,,,,,,,,,,,,,,,,,,,,,,,,,,,,,,,,,,,,,,,,,,,258.95848541699525,258.9798578339978,258.9798578339978,258.9798578339978,258.9798578339978,258.97465412566476,258.9798578339978,258.9798578339978,260.38951470900065,Correct! صحیح است,1,1,3,1.4085605419968488,None,260.39361033399473,260.40498933399795,262.393126541996,262.415429708999,,,,,,,,,,,,,,,,,,,,,,,,,,,,,260207,001,2024-07-02_19h58.54.525,5-35,2024.1.4,None,2024-07-02 19h58.58.985649 +0900,
Images/Speaker1.jpg,Images/Speaker2.jpg,Images/Speaker3.jpg,Images/Speaker4.jpg,Audio/Speaker4_Per/P4-6-Per.wav,Speaker4,گوینده۴,,,,,,,,0,1,1,50,0,10,10,65,,,,,262.415429708999,,,,,,,,,,,,,,,,,,,,,,,,,,,,,,,,,,,,,,,,,,,,,262.3933270839989,262.415429708999,262.415429708999,262.415429708999,262.415429708999,262.40954479166635,262.415429708999,262.415429708999,263.80142620900006,Correct! صحیح است,1,1,4,1.3802655410036095,None,263.8055054590004,263.8169307089993,265.8134673749955,,,,,,,,,,,,,,,,,,,,,,,,,,,,,,260207,001,2024-07-02_19h58.54.525,5-35,2024.1.4,None,2024-07-02 19h58.58.985649 +0900,
Images/Speaker1.jpg,Images/Speaker2.jpg,Images/Speaker3.jpg,Images/Speaker4.jpg,Audio/Speaker1_Per/P1-18-Per.wav,Speaker1,گوینده ۱,,,,,,,,0,1,1,50,0,11,11,17,,,,,265.8394924999957,,,,,,,,,,,,,,,,,,,,,,,,,,,,,,,,,,,,,,,,,,,,,265.8142622499945,265.8394924999957,265.8394924999957,265.8394924999957,265.8394924999957,265.8466389173341,265.8394924999957,265.8394924999957,267.07659091700043,Correct! صحیح است,1,1,1,1.2290147919993615,None,267.08054716699553,267.09166433399514,269.07995512499474,269.1019981249992,,,,,,,,,,,,,,,,,,,,,,,,,,,,,260207,001,2024-07-02_19h58.54.525,5-35,2024.1.4,None,2024-07-02 19h58.58.985649 +0900,
Images/Speaker1.jpg,Images/Speaker2.jpg,Images/Speaker3.jpg,Images/Speaker4.jpg,Audio/Speaker2_Per/P2-2-Per.wav,Speaker2,گوینده۲,,,,,,,,0,1,1,50,0,12,12,21,,,,,269.1019981249992,,,,,,,,,,,,,,,,,,,,,,,,,,,,,,,,,,,,,,,,,,,,,269.0808587089996,269.1019981249992,269.1019981249992,269.1019981249992,269.1019981249992,269.0956392506671,269.1019981249992,269.1019981249992,270.27402691699535,Correct! صحیح است,1,1,2,1.1696486670043669,None,270.2781077920008,270.28973949999636,272.2845577499975,,,,,,,,,,,,,,,,,,,,,,,,,,,,,,260207,001,2024-07-02_19h58.54.525,5-35,2024.1.4,None,2024-07-02 19h58.58.985649 +0900,
Images/Speaker1.jpg,Images/Speaker2.jpg,Images/Speaker3.jpg,Images/Speaker4.jpg,Audio/Speaker4_Per/P4-8-Per.wav,Speaker4,گوینده۴,,,,,,,,0,1,1,50,0,13,13,67,,,,,272.3061725000007,,,,,,,,,,,,,,,,,,,,,,,,,,,,,,,,,,,,,,,,,,,,,272.28471875000105,272.3061725000007,272.3061725000007,272.3061725000007,272.3061725000007,272.3011876666608,272.3061725000007,272.3061725000007,273.522491249998,Correct! صحیح است,1,1,4,1.2142255409999052,None,273.5267858340012,273.53766175000055,275.5288112089984,,,,,,,,,,,,,,,,,,,,,,,,,,,,,,260207,001,2024-07-02_19h58.54.525,5-35,2024.1.4,None,2024-07-02 19h58.58.985649 +0900,
Images/Speaker1.jpg,Images/Speaker2.jpg,Images/Speaker3.jpg,Images/Speaker4.jpg,Audio/Speaker2_Per/P2-14-Per.wav,Speaker2,گوینده۲,,,,,,,,0,1,1,50,0,14,14,33,,,,,275.5508747499989,,,,,,,,,,,,,,,,,,,,,,,,,,,,,,,,,,,,,,,,,,,,,275.5290014589991,275.5508747499989,275.5508747499989,275.5508747499989,275.5508747499989,275.54542537566545,275.5508747499989,275.5508747499989,276.87158062499657,Correct! صحیح است,1,1,2,1.3161392500041984,None,276.87594108399935,276.887733167001,278.87826579199464,,,,,,,,,,,,,,,,,,,,,,,,,,,,,,260207,001,2024-07-02_19h58.54.525,5-35,2024.1.4,None,2024-07-02 19h58.58.985649 +0900,
Images/Speaker1.jpg,Images/Speaker2.jpg,Images/Speaker3.jpg,Images/Speaker4.jpg,Audio/Speaker4_Per/P4-5-Per.wav,Speaker4,گوینده۴,,,,,,,,0,1,1,50,0,15,15,64,,,,,278.90463995900063,,,,,,,,,,,,,,,,,,,,,,,,,,,,,,,,,,,,,,,,,,,,,278.87890341699676,278.90463995900063,278.90463995900063,278.90463995900063,278.90463995900063,278.91143745833006,278.90463995900063,278.90463995900063,280.9526973339962,Correct! صحیح است,1,1,4,2.04415062499902,None,280.9565572089996,280.9680651249946,282.95685304200015,,,,,,,,,,,,,,,,,,,,,,,,,,,,,,260207,001,2024-07-02_19h58.54.525,5-35,2024.1.4,None,2024-07-02 19h58.58.985649 +0900,
Images/Speaker1.jpg,Images/Speaker2.jpg,Images/Speaker3.jpg,Images/Speaker4.jpg,Audio/Speaker1_Per/P1-13-Per.wav,Speaker1,گوینده ۱,,,,,,,,0,1,1,50,0,16,16,12,,,,,282.9780498339969,,,,,,,,,,,,,,,,,,,,,,,,,,,,,,,,,,,,,,,,,,,,,282.9570285000009,282.9780498339969,282.9780498339969,282.9780498339969,282.9780498339969,282.9734858756676,282.9780498339969,282.9780498339969,285.81861191699863,Correct! صحیح است,1,1,1,2.837637000004179,None,285.82249183399836,285.8352444999982,287.829212042001,,,,,,,,,,,,,,,,,,,,,,,,,,,,,,260207,001,2024-07-02_19h58.54.525,5-35,2024.1.4,None,2024-07-02 19h58.58.985649 +0900,
Images/Speaker1.jpg,Images/Speaker2.jpg,Images/Speaker3.jpg,Images/Speaker4.jpg,Audio/Speaker2_Per/P2-7-Per.wav,Speaker2,گوینده۲,,,,,,,,0,1,1,50,0,17,17,26,,,,,287.8539320839991,,,,,,,,,,,,,,,,,,,,,,,,,,,,,,,,,,,,,,,,,,,,,287.8299104999969,287.8539320839991,287.8539320839991,287.8539320839991,287.8539320839991,287.8623947503297,287.8539320839991,287.8539320839991,289.4383108339971,Correct! صحیح است,1,1,2,1.5831090830033645,None,289.44345862499904,289.45680779199756,291.44240508399525,291.463854499998,,,,,,,,,,,,,,,,,,,,,,,,,,,,,260207,001,2024-07-02_19h58.54.525,5-35,2024.1.4,None,2024-07-02 19h58.58.985649 +0900,
Images/Speaker1.jpg,Images/Speaker2.jpg,Images/Speaker3.jpg,Images/Speaker4.jpg,Audio/Speaker1_Per/P1-5-Per.wav,Speaker1,گوینده ۱,,,,,,,,0,1,1,50,0,18,18,4,,,,,291.463854499998,,,,,,,,,,,,,,,,,,,,,,,,,,,,,,,,,,,,,,,,,,,,,291.44256612499885,291.463854499998,291.463854499998,291.463854499998,291.463854499998,291.45880416666137,291.463854499998,291.463854499998,294.42297824999696,Correct! صحیح است,1,1,1,2.9557274999970105,None,294.4269014589954,294.4382778340005,296.42731204199663,,,,,,,,,,,,,,,,,,,,,,,,,,,,,,260207,001,2024-07-02_19h58.54.525,5-35,2024.1.4,None,2024-07-02 19h58.58.985649 +0900,
Images/Speaker1.jpg,Images/Speaker2.jpg,Images/Speaker3.jpg,Images/Speaker4.jpg,Audio/Speaker4_Per/P4-16-Per.wav,Speaker4,گوینده۴,,,,,,,,0,1,1,50,0,19,19,75,,,,,296.44844254199415,,,,,,,,,,,,,,,,,,,,,,,,,,,,,,,,,,,,,,,,,,,,,296.4275026670002,296.44844254199415,296.44844254199415,296.44844254199415,296.44844254199415,296.4439237086665,296.44844254199415,296.44844254199415,297.70338049999555,Correct! صحیح است,1,1,4,1.2458063750018482,None,297.7075471249991,297.7188172499955,299.7092609589963,,,,,,,,,,,,,,,,,,,,,,,,,,,,,,260207,001,2024-07-02_19h58.54.525,5-35,2024.1.4,None,2024-07-02 19h58.58.985649 +0900,
Images/Speaker1.jpg,Images/Speaker2.jpg,Images/Speaker3.jpg,Images/Speaker4.jpg,Audio/Speaker3_Per/P3-17-Per.wav,Speaker3,گوینده۳,,,,,,,,0,1,1,50,0,20,20,56,,,,,299.73185520900006,,,,,,,,,,,,,,,,,,,,,,,,,,,,,,,,,,,,,,,,,,,,,299.7098368340012,299.73185520900006,299.73185520900006,299.73185520900006,299.73185520900006,299.72578295866356,299.73185520900006,299.73185520900006,300.9840283339945,Correct! صحیح است,1,1,3,1.247775666997768,None,300.98811233399465,300.9993239999967,302.9861340419957,303.00795066700084,,,,,,,,,,,,,,,,,,,,,,,,,,,,,260207,001,2024-07-02_19h58.54.525,5-35,2024.1.4,None,2024-07-02 19h58.58.985649 +0900,
Images/Speaker1.jpg,Images/Speaker2.jpg,Images/Speaker3.jpg,Images/Speaker4.jpg,Audio/Speaker3_Per/P3-14-Per.wav,Speaker3,گوینده۳,,,,,,,,0,1,1,50,0,21,21,53,,,,,303.00795066700084,,,,,,,,,,,,,,,,,,,,,,,,,,,,,,,,,,,,,,,,,,,,,302.98630708400015,303.00795066700084,303.00795066700084,303.00795066700084,303.00795066700084,303.0025003756639,303.00795066700084,303.00795066700084,305.2077377089954,Correct! صحیح است,1,1,3,2.1978139170023496,None,305.2118399589963,305.2232103749993,307.2126662919982,,,,,,,,,,,,,,,,,,,,,,,,,,,,,,260207,001,2024-07-02_19h58.54.525,5-35,2024.1.4,None,2024-07-02 19h58.58.985649 +0900,
Images/Speaker1.jpg,Images/Speaker2.jpg,Images/Speaker3.jpg,Images/Speaker4.jpg,Audio/Speaker1_Per/P1-10-Per.wav,Speaker1,گوینده ۱,,,,,,,,0,1,1,50,0,22,22,9,,,,,307.2373129589978,,,,,,,,,,,,,,,,,,,,,,,,,,,,,,,,,,,,,,,,,,,,,307.2133539169954,307.2373129589978,307.2373129589978,307.2373129589978,307.2373129589978,307.2458340423332,307.2373129589978,307.2373129589978,308.40629379199527,Correct! صحیح است,1,1,1,1.167892874997051,None,308.4100752499944,308.4217043749959,310.40920058399934,310.4305697499949,,,,,,,,,,,,,,,,,,,,,,,,,,,,,260207,001,2024-07-02_19h58.54.525,5-35,2024.1.4,None,2024-07-02 19h58.58.985649 +0900,
Images/Speaker1.jpg,Images/Speaker2.jpg,Images/Speaker3.jpg,Images/Speaker4.jpg,Audio/Speaker1_Per/P1-19-Per.wav,Speaker1,گوینده ۱,,,,,,,,0,1,1,50,0,23,23,18,,,,,310.4305697499949,,,,,,,,,,,,,,,,,,,,,,,,,,,,,,,,,,,,,,,,,,,,,310.4093687919958,310.4305697499949,310.4305697499949,310.4305697499949,310.4305697499949,310.4255806666663,310.4305697499949,310.4305697499949,311.7558545419961,Correct! صحیح است,1,1,1,1.3241140840036678,None,311.75988420900103,311.77108345899615,313.759014999996,313.78202733399667,,,,,,,,,,,,,,,,,,,,,,,,,,,,,260207,001,2024-07-02_19h58.54.525,5-35,2024.1.4,None,2024-07-02 19h58.58.985649 +0900,
Images/Speaker1.jpg,Images/Speaker2.jpg,Images/Speaker3.jpg,Images/Speaker4.jpg,Audio/Speaker3_Per/P3-2-Per.wav,Speaker3,گوینده۳,,,,,,,,0,1,1,50,0,24,24,41,,,,,313.78202733399667,,,,,,,,,,,,,,,,,,,,,,,,,,,,,,,,,,,,,,,,,,,,,313.75919620900095,313.78202733399667,313.78202733399667,313.78202733399667,313.78202733399667,313.77541237566425,313.78202733399667,313.78202733399667,315.37730670900055,Correct! صحیح است,1,1,3,1.5898572500009323,None,315.3820205419979,315.39492754199455,317.385097499995,,,,,,,,,,,,,,,,,,,,,,,,,,,,,,260207,001,2024-07-02_19h58.54.525,5-35,2024.1.4,None,2024-07-02 19h58.58.985649 +0900,
Images/Speaker1.jpg,Images/Speaker2.jpg,Images/Speaker3.jpg,Images/Speaker4.jpg,Audio/Speaker2_Per/P2-12-Per.wav,Speaker2,گوینده۲,,,,,,,,0,1,1,50,0,25,25,31,,,,,317.4067412919976,,,,,,,,,,,,,,,,,,,,,,,,,,,,,,,,,,,,,,,,,,,,,317.3852753749961,317.4067412919976,317.4067412919976,317.4067412919976,317.4067412919976,317.40172887566246,317.4067412919976,317.4067412919976,318.91731654199975,Correct! صحیح است,1,1,2,1.507194249999884,None,318.92107583399775,318.9327021249992,320.9195299169951,320.94205233400135,,,,,,,,,,,,,,,,,,,,,,,,,,,,,260207,001,2024-07-02_19h58.54.525,5-35,2024.1.4,None,2024-07-02 19h58.58.985649 +0900,
Images/Speaker1.jpg,Images/Speaker2.jpg,Images/Speaker3.jpg,Images/Speaker4.jpg,Audio/Speaker4_Per/P4-9-Per.wav,Speaker4,گوینده۴,,,,,,,,0,1,1,50,0,26,26,68,,,,,320.94205233400135,,,,,,,,,,,,,,,,,,,,,,,,,,,,,,,,,,,,,,,,,,,,,320.920082042001,320.94205233400135,320.94205233400135,320.94205233400135,320.94205233400135,320.9359222506648,320.94205233400135,320.94205233400135,323.38408908400015,Incorrect! The correct answer is Speaker4. نادرست! پاسخ صحیح گوینده۴ است,0,1,3,2.4333250420022523,None,323.3883033749953,323.40169470899855,325.39437391699903,,,,,,,,,,,,,,,,,,,,,,,,,,,,,,260207,001,2024-07-02_19h58.54.525,5-35,2024.1.4,None,2024-07-02 19h58.58.985649 +0900,
Images/Speaker1.jpg,Images/Speaker2.jpg,Images/Speaker3.jpg,Images/Speaker4.jpg,Audio/Speaker4_Per/P4-2-Per.wav,Speaker4,گوینده۴,,,,,,,,0,1,1,50,0,27,27,61,,,,,325.4185359999974,,,,,,,,,,,,,,,,,,,,,,,,,,,,,,,,,,,,,,,,,,,,,325.3949718750009,325.4185359999974,325.4185359999974,325.4185359999974,325.4185359999974,325.42752420833176,325.4185359999974,325.4185359999974,328.0623848749965,Correct! صحیح است,1,1,4,2.6406645829993067,None,328.06644550000055,328.07840395899984,330.0679340419956,,,,,,,,,,,,,,,,,,,,,,,,,,,,,,260207,001,2024-07-02_19h58.54.525,5-35,2024.1.4,None,2024-07-02 19h58.58.985649 +0900,
Images/Speaker1.jpg,Images/Speaker2.jpg,Images/Speaker3.jpg,Images/Speaker4.jpg,Audio/Speaker4_Per/P4-3-Per.wav,Speaker4,گوینده۴,,,,,,,,0,1,1,50,0,28,28,62,,,,,330.08821349999926,,,,,,,,,,,,,,,,,,,,,,,,,,,,,,,,,,,,,,,,,,,,,330.06811295900116,330.08821349999926,330.08821349999926,330.08821349999926,330.08821349999926,330.08456591666277,330.08821349999926,330.08821349999926,331.36017779199756,Correct! صحیح است,1,1,4,1.269308374998218,None,331.3648758749987,331.3765591249976,333.3690589170001,,,,,,,,,,,,,,,,,,,,,,,,,,,,,,260207,001,2024-07-02_19h58.54.525,5-35,2024.1.4,None,2024-07-02 19h58.58.985649 +0900,
Images/Speaker1.jpg,Images/Speaker2.jpg,Images/Speaker3.jpg,Images/Speaker4.jpg,Audio/Speaker3_Per/P3-4-Per.wav,Speaker3,گوینده۳,,,,,,,,0,1,1,50,0,29,29,43,,,,,333.39253299999837,,,,,,,,,,,,,,,,,,,,,,,,,,,,,,,,,,,,,,,,,,,,,333.36983920900093,333.39253299999837,333.39253299999837,333.39253299999837,333.39253299999837,333.4022223333309,333.39253299999837,333.39253299999837,334.6926607919959,Correct! صحیح است,1,1,3,1.296596791005868,None,334.6973318339951,334.710596500001,336.6984799999991,,,,,,,,,,,,,,,,,,,,,,,,,,,,,,260207,001,2024-07-02_19h58.54.525,5-35,2024.1.4,None,2024-07-02 19h58.58.985649 +0900,
Images/Speaker1.jpg,Images/Speaker2.jpg,Images/Speaker3.jpg,Images/Speaker4.jpg,Audio/Speaker2_Per/P2-5-Per.wav,Speaker2,گوینده۲,,,,,,,,0,1,1,50,0,30,30,24,,,,,336.7205600839952,,,,,,,,,,,,,,,,,,,,,,,,,,,,,,,,,,,,,,,,,,,,,336.6986823749976,336.7205600839952,336.7205600839952,336.7205600839952,336.7205600839952,336.7151023756635,336.7205600839952,336.7205600839952,338.73418362499797,Correct! صحیح است,1,1,2,2.005739292006183,None,338.7390288339957,338.7519269589975,340.7391222090009,340.760551374995,,,,,,,,,,,,,,,,,,,,,,,,,,,,,260207,001,2024-07-02_19h58.54.525,5-35,2024.1.4,None,2024-07-02 19h58.58.985649 +0900,
Images/Speaker1.jpg,Images/Speaker2.jpg,Images/Speaker3.jpg,Images/Speaker4.jpg,Audio/Speaker2_Per/P2-8-Per.wav,Speaker2,گوینده۲,,,,,,,,0,1,1,50,0,31,31,27,,,,,340.760551374995,,,,,,,,,,,,,,,,,,,,,,,,,,,,,,,,,,,,,,,,,,,,,340.7393284589998,340.760551374995,340.760551374995,340.760551374995,340.760551374995,340.7555145836634,340.760551374995,340.760551374995,342.31743033399835,Correct! صحیح است,1,1,2,1.5529478329990525,None,342.32246999999916,342.3352322089995,344.32766820899997,,,,,,,,,,,,,,,,,,,,,,,,,,,,,,260207,001,2024-07-02_19h58.54.525,5-35,2024.1.4,None,2024-07-02 19h58.58.985649 +0900,
Images/Speaker1.jpg,Images/Speaker2.jpg,Images/Speaker3.jpg,Images/Speaker4.jpg,Audio/Speaker1_Per/P1-1-Per.wav,Speaker1,گوینده ۱,,,,,,,,0,1,1,50,0,32,32,0,,,,,344.35068920900085,,,,,,,,,,,,,,,,,,,,,,,,,,,,,,,,,,,,,,,,,,,,,344.32832320899615,344.35068920900085,344.35068920900085,344.35068920900085,344.35068920900085,344.34414041666264,344.35068920900085,344.35068920900085,345.4761127919992,Correct! صحیح است,1,1,1,1.1222586250005406,None,345.48000799999863,345.49140174999775,347.4797346669948,347.5014520420009,,,,,,,,,,,,,,,,,,,,,,,,,,,,,260207,001,2024-07-02_19h58.54.525,5-35,2024.1.4,None,2024-07-02 19h58.58.985649 +0900,
Images/Speaker1.jpg,Images/Speaker2.jpg,Images/Speaker3.jpg,Images/Speaker4.jpg,Audio/Speaker4_Per/P4-10-Per.wav,Speaker4,گوینده۴,,,,,,,,0,1,1,50,0,33,33,69,,,,,347.5014520420009,,,,,,,,,,,,,,,,,,,,,,,,,,,,,,,,,,,,,,,,,,,,,347.47991524999816,347.5014520420009,347.5014520420009,347.5014520420009,347.5014520420009,347.49600725066216,347.5014520420009,347.5014520420009,350.0064340839963,Correct! صحیح است,1,1,4,2.496270416006155,None,350.0103094590013,350.0188603339993,352.00982754199504,352.0311918340012,,,,,,,,,,,,,,,,,,,,,,,,,,,,,260207,001,2024-07-02_19h58.54.525,5-35,2024.1.4,None,2024-07-02 19h58.58.985649 +0900,
Images/Speaker1.jpg,Images/Speaker2.jpg,Images/Speaker3.jpg,Images/Speaker4.jpg,Audio/Speaker1_Per/P1-20-Per.wav,Speaker1,گوینده ۱,,,,,,,,0,1,1,50,0,34,34,19,,,,,352.0311918340012,,,,,,,,,,,,,,,,,,,,,,,,,,,,,,,,,,,,,,,,,,,,,352.00998541699664,352.0311918340012,352.0311918340012,352.0311918340012,352.0311918340012,352.026194500668,352.0311918340012,352.0311918340012,353.25460329199996,Correct! صحیح است,1,1,1,1.2149182080029277,None,353.2587654999952,353.2674277499973,355.2608331250012,,,,,,,,,,,,,,,,,,,,,,,,,,,,,,260207,001,2024-07-02_19h58.54.525,5-35,2024.1.4,None,2024-07-02 19h58.58.985649 +0900,
Images/Speaker1.jpg,Images/Speaker2.jpg,Images/Speaker3.jpg,Images/Speaker4.jpg,Audio/Speaker3_Per/P3-19-Per.wav,Speaker3,گوینده۳,,,,,,,,0,1,1,50,0,35,35,58,,,,,355.2863437499982,,,,,,,,,,,,,,,,,,,,,,,,,,,,,,,,,,,,,,,,,,,,,355.2615217499988,355.2863437499982,355.2863437499982,355.2863437499982,355.2863437499982,355.2939787503278,355.2863437499982,355.2863437499982,357.59976870899845,Correct! صحیح است,1,1,3,2.3045480830041924,None,357.6038357090001,357.61487508400023,359.6041451669953,,,,,,,,,,,,,,,,,,,,,,,,,,,,,,260207,001,2024-07-02_19h58.54.525,5-35,2024.1.4,None,2024-07-02 19h58.58.985649 +0900,
Images/Speaker1.jpg,Images/Speaker2.jpg,Images/Speaker3.jpg,Images/Speaker4.jpg,Audio/Speaker1_Per/P1-2-Per.wav,Speaker1,گوینده ۱,,,,,,,,0,1,1,50,0,36,36,1,,,,,359.62902487500105,,,,,,,,,,,,,,,,,,,,,,,,,,,,,,,,,,,,,,,,,,,,,359.6047574589975,359.62902487500105,359.62902487500105,359.62902487500105,359.62902487500105,359.63731645832786,359.62902487500105,359.62902487500105,360.9523992089962,Correct! صحیح است,1,1,1,1.3152215410009376,None,360.95728045899887,360.96948908399645,362.9596989999991,,,,,,,,,,,,,,,,,,,,,,,,,,,,,,260207,001,2024-07-02_19h58.54.525,5-35,2024.1.4,None,2024-07-02 19h58.58.985649 +0900,
Images/Speaker1.jpg,Images/Speaker2.jpg,Images/Speaker3.jpg,Images/Speaker4.jpg,Audio/Speaker3_Per/P3-6-Per.wav,Speaker3,گوینده۳,,,,,,,,0,1,1,50,0,37,37,45,,,,,362.98095716699754,,,,,,,,,,,,,,,,,,,,,,,,,,,,,,,,,,,,,,,,,,,,,362.9598607500011,362.98095716699754,362.98095716699754,362.98095716699754,362.98095716699754,362.9763314586637,362.98095716699754,362.98095716699754,364.7057264169998,Correct! صحیح است,1,1,3,1.7088923339979374,None,364.710106833998,364.7221004169987,366.7088385839961,366.73057579199667,,,,,,,,,,,,,,,,,,,,,,,,,,,,,260207,001,2024-07-02_19h58.54.525,5-35,2024.1.4,None,2024-07-02 19h58.58.985649 +0900,
Images/Speaker1.jpg,Images/Speaker2.jpg,Images/Speaker3.jpg,Images/Speaker4.jpg,Audio/Speaker1_Per/P1-11-Per.wav,Speaker1,گوینده ۱,,,,,,,,0,1,1,50,0,38,38,10,,,,,366.73057579199667,,,,,,,,,,,,,,,,,,,,,,,,,,,,,,,,,,,,,,,,,,,,,366.7090419169981,366.73057579199667,366.73057579199667,366.73057579199667,366.73057579199667,366.72513158366587,366.73057579199667,366.73057579199667,368.01618737499666,Correct! صحیح است,1,1,1,1.2790197499998612,None,368.02050254200003,368.0317282499964,370.02913641699706,,,,,,,,,,,,,,,,,,,,,,,,,,,,,,260207,001,2024-07-02_19h58.54.525,5-35,2024.1.4,None,2024-07-02 19h58.58.985649 +0900,
Images/Speaker1.jpg,Images/Speaker2.jpg,Images/Speaker3.jpg,Images/Speaker4.jpg,Audio/Speaker4_Per/P4-12-Per.wav,Speaker4,گوینده۴,,,,,,,,0,1,1,50,0,39,39,71,,,,,370.05310641699907,,,,,,,,,,,,,,,,,,,,,,,,,,,,,,,,,,,,,,,,,,,,,370.02972774999944,370.05310641699907,370.05310641699907,370.05310641699907,370.05310641699907,370.06231008333316,370.05310641699907,370.05310641699907,371.4669276669956,Correct! صحیح است,1,1,4,1.405303458996059,None,371.4706844999964,371.479363583996,373.4623621669962,373.4848579169993,,,,,,,,,,,,,,,,,,,,,,,,,,,,,260207,001,2024-07-02_19h58.54.525,5-35,2024.1.4,None,2024-07-02 19h58.58.985649 +0900,
Images/Speaker1.jpg,Images/Speaker2.jpg,Images/Speaker3.jpg,Images/Speaker4.jpg,Audio/Speaker4_Per/P4-15-Per.wav,Speaker4,گوینده۴,,,,,,,,0,1,1,50,0,40,40,74,,,,,373.4848579169993,,,,,,,,,,,,,,,,,,,,,,,,,,,,,,,,,,,,,,,,,,,,,373.4625439589945,373.4848579169993,373.4848579169993,373.4848579169993,373.4848579169993,373.47879441666396,373.4848579169993,373.4848579169993,375.69248237499414,Correct! صحیح است,1,1,4,2.2041976250038715,None,375.69634162500006,375.7080647920011,377.6940089169948,377.7169531670006,,,,,,,,,,,,,,,,,,,,,,,,,,,,,260207,001,2024-07-02_19h58.54.525,5-35,2024.1.4,None,2024-07-02 19h58.58.985649 +0900,
Images/Speaker1.jpg,Images/Speaker2.jpg,Images/Speaker3.jpg,Images/Speaker4.jpg,Audio/Speaker3_Per/P3-10-Per.wav,Speaker3,گوینده۳,,,,,,,,0,1,1,50,0,41,41,49,,,,,377.7169531670006,,,,,,,,,,,,,,,,,,,,,,,,,,,,,,,,,,,,,,,,,,,,,377.69458516699524,377.7169531670006,377.7169531670006,377.7169531670006,377.7169531670006,377.72636112532973,377.7169531670006,377.7169531670006,380.5027253340013,Correct! صحیح است,1,1,3,2.782456207998621,None,380.5066964590005,380.51810837499943,382.5022459169995,382.5236117089953,,,,,,,,,,,,,,,,,,,,,,,,,,,,,260207,001,2024-07-02_19h58.54.525,5-35,2024.1.4,None,2024-07-02 19h58.58.985649 +0900,
Images/Speaker1.jpg,Images/Speaker2.jpg,Images/Speaker3.jpg,Images/Speaker4.jpg,Audio/Speaker1_Per/P1-8-Per.wav,Speaker1,گوینده ۱,,,,,,,,0,1,1,50,0,42,42,7,,,,,382.5236117089953,,,,,,,,,,,,,,,,,,,,,,,,,,,,,,,,,,,,,,,,,,,,,382.5024717499982,382.5236117089953,382.5236117089953,382.5236117089953,382.5236117089953,382.51860883366703,382.5236117089953,382.5236117089953,384.4619978339979,Correct! صحیح است,1,1,1,1.9268437499995343,None,384.46576133399503,384.47853074999875,386.4673744169995,,,,,,,,,,,,,,,,,,,,,,,,,,,,,,260207,001,2024-07-02_19h58.54.525,5-35,2024.1.4,None,2024-07-02 19h58.58.985649 +0900,
Images/Speaker1.jpg,Images/Speaker2.jpg,Images/Speaker3.jpg,Images/Speaker4.jpg,Audio/Speaker2_Per/P2-16-Per.wav,Speaker2,گوینده۲,,,,,,,,0,1,1,50,0,43,43,35,,,,,386.4882894170005,,,,,,,,,,,,,,,,,,,,,,,,,,,,,,,,,,,,,,,,,,,,,386.4675603750002,386.4882894170005,386.4882894170005,386.4882894170005,386.4882894170005,386.4839826256614,386.4882894170005,386.4882894170005,387.81382933399436,Correct! صحیح است,1,1,2,1.3223972500054515,None,387.81796687499445,387.829406208999,389.8126187499947,389.8340496669989,,,,,,,,,,,,,,,,,,,,,,,,,,,,,260207,001,2024-07-02_19h58.54.525,5-35,2024.1.4,None,2024-07-02 19h58.58.985649 +0900,
Images/Speaker1.jpg,Images/Speaker2.jpg,Images/Speaker3.jpg,Images/Speaker4.jpg,Audio/Speaker4_Per/P4-14-Per.wav,Speaker4,گوینده۴,,,,,,,,0,1,1,50,0,44,44,73,,,,,389.8340496669989,,,,,,,,,,,,,,,,,,,,,,,,,,,,,,,,,,,,,,,,,,,,,389.8128061669995,389.8340496669989,389.8340496669989,389.8340496669989,389.8340496669989,389.82905995866554,389.8340496669989,389.8340496669989,392.23237941700063,Correct! صحیح است,1,1,4,2.392854500001704,None,392.23674695899535,392.24797187499644,394.2371672090012,,,,,,,,,,,,,,,,,,,,,,,,,,,,,,260207,001,2024-07-02_19h58.54.525,5-35,2024.1.4,None,2024-07-02 19h58.58.985649 +0900,
Images/Speaker1.jpg,Images/Speaker2.jpg,Images/Speaker3.jpg,Images/Speaker4.jpg,Audio/Speaker1_Per/P1-16-Per.wav,Speaker1,گوینده ۱,,,,,,,,0,1,1,50,0,45,45,15,,,,,394.2613798749953,,,,,,,,,,,,,,,,,,,,,,,,,,,,,,,,,,,,,,,,,,,,,394.2377564999988,394.2613798749953,394.2613798749953,394.2613798749953,394.2613798749953,394.27033050033106,394.2613798749953,394.2613798749953,395.7067831249951,Correct! صحیح است,1,1,1,1.440104124994832,None,395.7111157920008,395.72269754199806,397.71334041699447,,,,,,,,,,,,,,,,,,,,,,,,,,,,,,260207,001,2024-07-02_19h58.54.525,5-35,2024.1.4,None,2024-07-02 19h58.58.985649 +0900,
Images/Speaker1.jpg,Images/Speaker2.jpg,Images/Speaker3.jpg,Images/Speaker4.jpg,Audio/Speaker3_Per/P3-12-Per.wav,Speaker3,گوینده۳,,,,,,,,0,1,1,50,0,46,46,51,,,,,397.73824404199695,,,,,,,,,,,,,,,,,,,,,,,,,,,,,,,,,,,,,,,,,,,,,397.71394408399647,397.73824404199695,397.73824404199695,397.73824404199695,397.73824404199695,397.7464907503313,397.73824404199695,397.73824404199695,399.68395008399966,Correct! صحیح است,1,1,3,1.9445795830033603,None,399.6876706249968,399.6992430839964,401.68867716699606,401.71222399999533,,,,,,,,,,,,,,,,,,,,,,,,,,,,,260207,001,2024-07-02_19h58.54.525,5-35,2024.1.4,None,2024-07-02 19h58.58.985649 +0900,
Images/Speaker1.jpg,Images/Speaker2.jpg,Images/Speaker3.jpg,Images/Speaker4.jpg,Audio/Speaker3_Per/P3-8-Per.wav,Speaker3,گوینده۳,,,,,,,,0,1,1,50,0,47,47,47,,,,,401.71222399999533,,,,,,,,,,,,,,,,,,,,,,,,,,,,,,,,,,,,,,,,,,,,,401.68964770899765,401.71222399999533,401.71222399999533,401.71222399999533,401.71222399999533,401.7207634583324,401.71222399999533,401.71222399999533,403.18425437499536,Correct! صحیح است,1,1,3,1.4643857500050217,None,403.1879953339958,403.19974612499936,405.18458895899676,405.20589566700073,,,,,,,,,,,,,,,,,,,,,,,,,,,,,260207,001,2024-07-02_19h58.54.525,5-35,2024.1.4,None,2024-07-02 19h58.58.985649 +0900,
Images/Speaker1.jpg,Images/Speaker2.jpg,Images/Speaker3.jpg,Images/Speaker4.jpg,Audio/Speaker4_Per/P4-4-Per.wav,Speaker4,گوینده۴,,,,,,,,0,1,1,50,0,48,48,63,,,,,405.20589566700073,,,,,,,,,,,,,,,,,,,,,,,,,,,,,,,,,,,,,,,,,,,,,405.1847826249941,405.20589566700073,405.20589566700073,405.20589566700073,405.20589566700073,405.2009153756628,405.20589566700073,405.20589566700073,407.2301712499975,Correct! صحیح است,1,1,4,2.0157344580002245,None,407.2350402919983,407.24747158399987,409.23584691699944,,,,,,,,,,,,,,,,,,,,,,,,,,,,,,260207,001,2024-07-02_19h58.54.525,5-35,2024.1.4,None,2024-07-02 19h58.58.985649 +0900,
Images/Speaker1.jpg,Images/Speaker2.jpg,Images/Speaker3.jpg,Images/Speaker4.jpg,Audio/Speaker3_Per/P3-5-Per.wav,Speaker3,گوینده۳,,,,,,,,0,1,1,50,0,49,49,44,,,,,409.2597786670012,,,,,,,,,,,,,,,,,,,,,,,,,,,,,,,,,,,,,,,,,,,,,409.23652379199484,409.2597786670012,409.2597786670012,409.2597786670012,409.2597786670012,409.26899579232895,409.2597786670012,409.2597786670012,411.1059968339978,Correct! صحیح است,1,1,3,1.844938624999486,None,411.1102587919959,411.1215712089979,413.1092939999944,413.13187887499953,,,,,,,,,,,,,,,,,,,,,,,,,,,,,260207,001,2024-07-02_19h58.54.525,5-35,2024.1.4,None,2024-07-02 19h58.58.985649 +0900,
Images/Speaker1.jpg,Images/Speaker2.jpg,Images/Speaker3.jpg,Images/Speaker4.jpg,Audio/Speaker3_Per/P3-9-Per.wav,Speaker3,گوینده۳,,,,,,,,0,1,1,50,0,50,50,48,,,,,413.13187887499953,,,,,,,,,,,,,,,,,,,,,,,,,,,,,,,,,,,,,,,,,,,,,413.1095019169952,413.13187887499953,413.13187887499953,413.13187887499953,413.13187887499953,413.12571320866505,413.13187887499953,413.13187887499953,414.3976994170007,Correct! صحیح است,1,1,3,1.26102341600199,None,414.4015199589994,414.41298287500103,416.3958080839948,416.41798687499977,,,,,,,,,,,,,,,,,,,,,,,,,,,,,260207,001,2024-07-02_19h58.54.525,5-35,2024.1.4,None,2024-07-02 19h58.58.985649 +0900,
Images/Speaker1.jpg,Images/Speaker2.jpg,Images/Speaker3.jpg,Images/Speaker4.jpg,Audio/Speaker4_Per/P4-1-Per.wav,Speaker4,گوینده۴,,,,,,,,0,1,1,50,0,51,51,60,,,,,416.41798687499977,,,,,,,,,,,,,,,,,,,,,,,,,,,,,,,,,,,,,,,,,,,,,416.39599045900104,416.41798687499977,416.41798687499977,416.41798687499977,416.41798687499977,416.41220329166777,416.41798687499977,416.41798687499977,418.2631330419972,Correct! صحیح است,1,1,4,1.8356850419950206,None,418.2671823749988,418.2765305419962,420.27203216699854,,,,,,,,,,,,,,,,,,,,,,,,,,,,,,260207,001,2024-07-02_19h58.54.525,5-35,2024.1.4,None,2024-07-02 19h58.58.985649 +0900,
Images/Speaker1.jpg,Images/Speaker2.jpg,Images/Speaker3.jpg,Images/Speaker4.jpg,Audio/Speaker3_Per/P3-13-Per.wav,Speaker3,گوینده۳,,,,,,,,0,1,1,50,0,52,52,52,,,,,420.29463262499485,,,,,,,,,,,,,,,,,,,,,,,,,,,,,,,,,,,,,,,,,,,,,420.2727071669942,420.29463262499485,420.29463262499485,420.29463262499485,420.29463262499485,420.30520425033365,420.29463262499485,420.29463262499485,421.8347387499962,Correct! صحیح است,1,1,3,1.5377369999987422,None,421.83904549999716,421.8506794999994,423.84665595899423,,,,,,,,,,,,,,,,,,,,,,,,,,,,,,260207,001,2024-07-02_19h58.54.525,5-35,2024.1.4,None,2024-07-02 19h58.58.985649 +0900,
Images/Speaker1.jpg,Images/Speaker2.jpg,Images/Speaker3.jpg,Images/Speaker4.jpg,Audio/Speaker1_Per/P1-6-Per.wav,Speaker1,گوینده ۱,,,,,,,,0,1,1,50,0,53,53,5,,,,,423.86956020900107,,,,,,,,,,,,,,,,,,,,,,,,,,,,,,,,,,,,,,,,,,,,,423.84732000000076,423.86956020900107,423.86956020900107,423.86956020900107,423.86956020900107,423.8631511256647,423.86956020900107,423.86956020900107,425.098108416998,Correct! صحیح است,1,1,1,1.2259373749984661,None,425.10186925000016,425.1130872089998,427.09699700000056,427.12065029199584,,,,,,,,,,,,,,,,,,,,,,,,,,,,,260207,001,2024-07-02_19h58.54.525,5-35,2024.1.4,None,2024-07-02 19h58.58.985649 +0900,
Images/Speaker1.jpg,Images/Speaker2.jpg,Images/Speaker3.jpg,Images/Speaker4.jpg,Audio/Speaker2_Per/P2-10-Per.wav,Speaker2,گوینده۲,,,,,,,,0,1,1,50,0,54,54,29,,,,,427.12065029199584,,,,,,,,,,,,,,,,,,,,,,,,,,,,,,,,,,,,,,,,,,,,,427.09794249999686,427.12065029199584,427.12065029199584,427.12065029199584,427.12065029199584,427.1291496673298,427.12065029199584,427.12065029199584,428.40717629199935,Correct! صحیح است,1,1,2,1.2842747079994297,None,428.41097399999853,428.42246395899565,430.4053233749946,430.4269602919958,,,,,,,,,,,,,,,,,,,,,,,,,,,,,260207,001,2024-07-02_19h58.54.525,5-35,2024.1.4,None,2024-07-02 19h58.58.985649 +0900,
Images/Speaker1.jpg,Images/Speaker2.jpg,Images/Speaker3.jpg,Images/Speaker4.jpg,Audio/Speaker2_Per/P2-3-Per.wav,Speaker2,گوینده۲,,,,,,,,0,1,1,50,0,55,55,22,,,,,430.4269602919958,,,,,,,,,,,,,,,,,,,,,,,,,,,,,,,,,,,,,,,,,,,,,430.40553004200046,430.4269602919958,430.4269602919958,430.4269602919958,430.4269602919958,430.42176987566586,430.4269602919958,430.4269602919958,431.8412825839987,Correct! صحیح است,1,1,2,1.4100645840007928,None,431.84510912499536,431.85786324999935,433.84630249999464,,,,,,,,,,,,,,,,,,,,,,,,,,,,,,260207,001,2024-07-02_19h58.54.525,5-35,2024.1.4,None,2024-07-02 19h58.58.985649 +0900,
Images/Speaker1.jpg,Images/Speaker2.jpg,Images/Speaker3.jpg,Images/Speaker4.jpg,Audio/Speaker3_Per/P3-15-Per.wav,Speaker3,گوینده۳,,,,,,,,0,1,1,50,0,56,56,54,,,,,433.8676767919969,,,,,,,,,,,,,,,,,,,,,,,,,,,,,,,,,,,,,,,,,,,,,433.8465057919966,433.8676767919969,433.8676767919969,433.8676767919969,433.8676767919969,433.8628870836658,433.8676767919969,433.8676767919969,435.5179946249991,Correct! صحیح است,1,1,3,1.6459855839930242,None,435.5219308339947,435.53307454199967,437.5165662500003,437.53741924999485,,,,,,,,,,,,,,,,,,,,,,,,,,,,,260207,001,2024-07-02_19h58.54.525,5-35,2024.1.4,None,2024-07-02 19h58.58.985649 +0900,
Images/Speaker1.jpg,Images/Speaker2.jpg,Images/Speaker3.jpg,Images/Speaker4.jpg,Audio/Speaker2_Per/P2-18-Per.wav,Speaker2,گوینده۲,,,,,,,,0,1,1,50,0,57,57,37,,,,,437.53741924999485,,,,,,,,,,,,,,,,,,,,,,,,,,,,,,,,,,,,,,,,,,,,,437.5167631250006,437.53741924999485,437.53741924999485,437.53741924999485,437.53741924999485,437.5329040416657,437.53741924999485,437.53741924999485,439.02793820900115,Correct! صحیح است,1,1,2,1.4834464579980704,None,439.03315733400086,439.04660512499686,441.0327020839977,441.05432474999543,,,,,,,,,,,,,,,,,,,,,,,,,,,,,260207,001,2024-07-02_19h58.54.525,5-35,2024.1.4,None,2024-07-02 19h58.58.985649 +0900,
Images/Speaker1.jpg,Images/Speaker2.jpg,Images/Speaker3.jpg,Images/Speaker4.jpg,Audio/Speaker3_Per/P3-3-Per.wav,Speaker3,گوینده۳,,,,,,,,0,1,1,50,0,58,58,42,,,,,441.05432474999543,,,,,,,,,,,,,,,,,,,,,,,,,,,,,,,,,,,,,,,,,,,,,441.0328703339983,441.05432474999543,441.05432474999543,441.05432474999543,441.05432474999543,441.049072875667,441.05432474999543,441.05432474999543,442.829837917001,Correct! صحیح است,1,1,3,1.7653707919962471,None,442.83418920899567,442.8472591669997,444.82984099999885,444.85178462499607,,,,,,,,,,,,,,,,,,,,,,,,,,,,,260207,001,2024-07-02_19h58.54.525,5-35,2024.1.4,None,2024-07-02 19h58.58.985649 +0900,
Images/Speaker1.jpg,Images/Speaker2.jpg,Images/Speaker3.jpg,Images/Speaker4.jpg,Audio/Speaker2_Per/P2-15-Per.wav,Speaker2,گوینده۲,,,,,,,,0,1,1,50,0,59,59,34,,,,,444.85178462499607,,,,,,,,,,,,,,,,,,,,,,,,,,,,,,,,,,,,,,,,,,,,,444.830018583998,444.85178462499607,444.85178462499607,444.85178462499607,444.85178462499607,444.8462815416608,444.85178462499607,444.85178462499607,446.1077883339967,Correct! صحیح است,1,1,2,1.252654416995938,None,446.1119895839947,446.12332533399604,448.11990341699857,,,,,,,,,,,,,,,,,,,,,,,,,,,,,,260207,001,2024-07-02_19h58.54.525,5-35,2024.1.4,None,2024-07-02 19h58.58.985649 +0900,
Images/Speaker1.jpg,Images/Speaker2.jpg,Images/Speaker3.jpg,Images/Speaker4.jpg,Audio/Speaker2_Per/P2-4-Per.wav,Speaker2,گوینده۲,,,,,,,,0,1,1,50,0,60,60,23,,,,,448.14153379199706,,,,,,,,,,,,,,,,,,,,,,,,,,,,,,,,,,,,,,,,,,,,,448.1200833749972,448.14153379199706,448.14153379199706,448.14153379199706,448.14153379199706,448.1365336256679,448.14153379199706,448.14153379199706,449.42841433399735,Correct! صحیح است,1,1,2,1.2788659580037347,None,449.4326054589983,449.4415524169963,451.4369242920002,,,,,,,,,,,,,,,,,,,,,,,,,,,,,,260207,001,2024-07-02_19h58.54.525,5-35,2024.1.4,None,2024-07-02 19h58.58.985649 +0900,
Images/Speaker1.jpg,Images/Speaker2.jpg,Images/Speaker3.jpg,Images/Speaker4.jpg,Audio/Speaker4_Per/P4-7-Per.wav,Speaker4,گوینده۴,,,,,,,,0,1,1,50,0,61,61,66,,,,,451.4604668749962,,,,,,,,,,,,,,,,,,,,,,,,,,,,,,,,,,,,,,,,,,,,,451.43751420899935,451.4604668749962,451.4604668749962,451.4604668749962,451.4604668749962,451.4700849583319,451.4604668749962,451.4604668749962,453.1351090839962,Correct! صحیح است,1,1,4,1.6663647080058581,None,453.1388942919948,453.15005979199486,455.1426992919951,,,,,,,,,,,,,,,,,,,,,,,,,,,,,,260207,001,2024-07-02_19h58.54.525,5-35,2024.1.4,None,2024-07-02 19h58.58.985649 +0900,
Images/Speaker1.jpg,Images/Speaker2.jpg,Images/Speaker3.jpg,Images/Speaker4.jpg,Audio/Speaker1_Per/P1-7-Per.wav,Speaker1,گوینده ۱,,,,,,,,0,1,1,50,0,62,62,6,,,,,455.16410441699554,,,,,,,,,,,,,,,,,,,,,,,,,,,,,,,,,,,,,,,,,,,,,455.1428720420008,455.16410441699554,455.16410441699554,455.16410441699554,455.16410441699554,455.15932987566725,455.16410441699554,455.16410441699554,456.868217833995,Correct! صحیح است,1,1,1,1.7024494579964085,None,456.87204437499895,456.8853547499966,458.8719293749964,458.89670508400013,,,,,,,,,,,,,,,,,,,,,,,,,,,,,260207,001,2024-07-02_19h58.54.525,5-35,2024.1.4,None,2024-07-02 19h58.58.985649 +0900,
Images/Speaker1.jpg,Images/Speaker2.jpg,Images/Speaker3.jpg,Images/Speaker4.jpg,Audio/Speaker2_Per/P2-11-Per.wav,Speaker2,گوینده۲,,,,,,,,0,1,1,50,0,63,63,30,,,,,458.89670508400013,,,,,,,,,,,,,,,,,,,,,,,,,,,,,,,,,,,,,,,,,,,,,458.8729402089957,458.89670508400013,458.89670508400013,458.89670508400013,458.89670508400013,458.9040856673314,458.89670508400013,458.89670508400013,460.36065520899865,Correct! صحیح است,1,1,2,1.4547924580037943,None,460.36487058399507,460.37417941699823,462.3591304590009,462.3803439999974,,,,,,,,,,,,,,,,,,,,,,,,,,,,,260207,001,2024-07-02_19h58.54.525,5-35,2024.1.4,None,2024-07-02 19h58.58.985649 +0900,
Images/Speaker1.jpg,Images/Speaker2.jpg,Images/Speaker3.jpg,Images/Speaker4.jpg,Audio/Speaker4_Per/P4-18-Per.wav,Speaker4,گوینده۴,,,,,,,,0,1,1,50,0,64,64,77,,,,,462.3803439999974,,,,,,,,,,,,,,,,,,,,,,,,,,,,,,,,,,,,,,,,,,,,,462.35929795899574,462.3803439999974,462.3803439999974,462.3803439999974,462.3803439999974,462.3755550006647,462.3803439999974,462.3803439999974,464.1752481250005,Correct! صحیح است,1,1,4,1.7929251669993391,None,464.17921266699705,464.1907775419968,466.18434304199764,,,,,,,,,,,,,,,,,,,,,,,,,,,,,,260207,001,2024-07-02_19h58.54.525,5-35,2024.1.4,None,2024-07-02 19h58.58.985649 +0900,
Images/Speaker1.jpg,Images/Speaker2.jpg,Images/Speaker3.jpg,Images/Speaker4.jpg,Audio/Speaker1_Per/P1-15-Per.wav,Speaker1,گوینده ۱,,,,,,,,0,1,1,50,0,65,65,14,,,,,466.206071624998,,,,,,,,,,,,,,,,,,,,,,,,,,,,,,,,,,,,,,,,,,,,,466.1845090419956,466.206071624998,466.206071624998,466.206071624998,466.206071624998,466.20097391666445,466.206071624998,466.206071624998,467.4309654999961,Correct! صحیح است,1,1,1,1.221546542001306,None,467.43486808399757,467.4461378749984,469.43569395899976,,,,,,,,,,,,,,,,,,,,,,,,,,,,,,260207,001,2024-07-02_19h58.54.525,5-35,2024.1.4,None,2024-07-02 19h58.58.985649 +0900,
Images/Speaker1.jpg,Images/Speaker2.jpg,Images/Speaker3.jpg,Images/Speaker4.jpg,Audio/Speaker4_Per/P4-19-Per.wav,Speaker4,گوینده۴,,,,,,,,0,1,1,50,0,66,66,78,,,,,469.45914574999915,,,,,,,,,,,,,,,,,,,,,,,,,,,,,,,,,,,,,,,,,,,,,469.43637487499655,469.45914574999915,469.45914574999915,469.45914574999915,469.45914574999915,469.4688378753276,469.45914574999915,469.45914574999915,471.7436370419964,Correct! صحیح است,1,1,4,2.2738575840048725,None,471.7474387089969,471.7567789589957,473.74235679199774,473.7642686249965,,,,,,,,,,,,,,,,,,,,,,,,,,,,,260207,001,2024-07-02_19h58.54.525,5-35,2024.1.4,None,2024-07-02 19h58.58.985649 +0900,
Images/Speaker1.jpg,Images/Speaker2.jpg,Images/Speaker3.jpg,Images/Speaker4.jpg,Audio/Speaker1_Per/P1-4-Per.wav,Speaker1,گوینده ۱,,,,,,,,0,1,1,50,0,67,67,3,,,,,473.7642686249965,,,,,,,,,,,,,,,,,,,,,,,,,,,,,,,,,,,,,,,,,,,,,473.74253883399797,473.7642686249965,473.7642686249965,473.7642686249965,473.7642686249965,473.75878458366446,473.7642686249965,473.7642686249965,475.1270496249999,Correct! صحیح است,1,1,1,1.3539028339946526,None,475.1321176669953,475.14444312499836,477.1302541670011,477.15209183399566,,,,,,,,,,,,,,,,,,,,,,,,,,,,,260207,001,2024-07-02_19h58.54.525,5-35,2024.1.4,None,2024-07-02 19h58.58.985649 +0900,
