SpeakerImage1,SpeakerImage2,SpeakerImage3,SpeakerImage4,TrainingSound,EnglishCorrectAnswer,PersianCorrectAnswer,repeated_TrainingLoopGroup1.thisRepN,repeated_TrainingLoopGroup1.thisTrialN,repeated_TrainingLoopGroup1.thisN,repeated_TrainingLoopGroup1.thisIndex,TrainingLoopGroup1.thisRepN,TrainingLoopGroup1.thisTrialN,TrainingLoopGroup1.thisN,TrainingLoopGroup1.thisIndex,thisRow.t,notes,trial.started,trial.stopped,GroupSelection.started,GroupInstructions.started,key_resp.started,GroupSelection.stopped,key_resp.keys,key_resp.rt,key_resp.duration,Introduction.started,text_2.started,image.started,sound_7.started,text_4.started,text_2.stopped,sound_8.started,image.stopped,text_4.stopped,image_7.started,sound_9.started,text_5.started,sound_10.started,image_7.stopped,text_5.stopped,image_8.started,sound_11.started,text_6.started,sound_12.started,image_8.stopped,text_6.stopped,image_9.started,sound_13.started,text_7.started,sound_14.started,image_9.stopped,text_7.stopped,Introduction.stopped,InitializeExperiment.started,InitializeExperiment.stopped,CheckAccuracy1.started,accuracy_group1,proceed_to_test_group1,CheckAccuracy1.stopped,participant,session,date,expName,psychopyVersion,frameRate,expStart,
,,,,,,,,,,,,,,,,,0.011319375000311993,0.0117231250005716,,,,,,,,,,,,,,,,,,,,,,,,,,,,,,,,,,,,,,,,,,265277,001,2024-07-01_23h43.59.611,5-29,2024.1.4,None,2024-07-01 23h44.04.454226 +0900,
,,,,,,,,,,,,,,,,,,,0.011739292000129353,0.01619970800311421,0.01619970800311421,0.763708417001908,3,0.7126696669984085,None,,,,,,,,,,,,,,,,,,,,,,,,,,,,,,,,,,,265277,001,2024-07-01_23h43.59.611,5-29,2024.1.4,None,2024-07-01 23h44.04.454226 +0900,
,,,,,,,,,,,,,,,,,,,,,,,,,,0.7637458330027584,0.8196113750018412,5.7574424170015845,5.76705974966923,5.7574424170015845,5.818198000000848,10.764861333668039,15.746068833002937,15.746068833002937,15.752898083002947,15.762735499669605,15.752898083002947,20.77254829166874,25.743191375000606,25.743191375000606,25.762935292001202,25.773109708669168,25.762935292001202,30.77458120866892,35.75655329200163,35.75655329200163,35.76443583300352,35.77321995866829,35.76443583300352,40.76328770866918,67.1996667500025,67.1996667500025,45.7491550420018,,,,,,,265277,001,2024-07-01_23h43.59.611,5-29,2024.1.4,None,2024-07-01 23h44.04.454226 +0900,
,,,,,,,,,,,,,,,,,,,,,,,,,,,,,,,,,,,,,,,,,,,,,,,,,,,,,,45.74920679200295,45.74952512500022,,,,,265277,001,2024-07-01_23h43.59.611,5-29,2024.1.4,None,2024-07-01 23h44.04.454226 +0900,
Images/Speaker1.jpg,Images/Speaker2.jpg,Images/Speaker3.jpg,Images/Speaker4.jpg,Audio/Speaker2_Per/P2-1-Per.wav,Speaker2,گوینده۲,0,0,0,20,,,,,67.1996667500025,,,,,,,,,,,,,,,,,,,,,,,,,,,,,,,,,,,,,,,,,45.80278883300343,0.0,False,45.8031186670014,265277,001,2024-07-01_23h43.59.611,5-29,2024.1.4,None,2024-07-01 23h44.04.454226 +0900,
Images/Speaker1.jpg,Images/Speaker2.jpg,Images/Speaker3.jpg,Images/Speaker4.jpg,Audio/Speaker1_Per/P1-5-Per.wav,Speaker1,گوینده ۱,0,1,1,4,,,,,67.1996667500025,,,,,,,,,,,,,,,,,,,,,,,,,,,,,,,,,,,,,,,,,45.82157954200011,0.0,False,45.82179087500117,265277,001,2024-07-01_23h43.59.611,5-29,2024.1.4,None,2024-07-01 23h44.04.454226 +0900,
Images/Speaker1.jpg,Images/Speaker2.jpg,Images/Speaker3.jpg,Images/Speaker4.jpg,Audio/Speaker2_Per/P2-9-Per.wav,Speaker2,گوینده۲,0,2,2,28,,,,,67.1996667500025,,,,,,,,,,,,,,,,,,,,,,,,,,,,,,,,,,,,,,,,,45.83936112500305,0.0,False,45.839623500000016,265277,001,2024-07-01_23h43.59.611,5-29,2024.1.4,None,2024-07-01 23h44.04.454226 +0900,
Images/Speaker1.jpg,Images/Speaker2.jpg,Images/Speaker3.jpg,Images/Speaker4.jpg,Audio/Speaker2_Per/P2-17-Per.wav,Speaker2,گوینده۲,0,3,3,36,,,,,67.1996667500025,,,,,,,,,,,,,,,,,,,,,,,,,,,,,,,,,,,,,,,,,45.85669166700245,0.0,False,45.85693204200288,265277,001,2024-07-01_23h43.59.611,5-29,2024.1.4,None,2024-07-01 23h44.04.454226 +0900,
Images/Speaker1.jpg,Images/Speaker2.jpg,Images/Speaker3.jpg,Images/Speaker4.jpg,Audio/Speaker2_Per/P2-3-Per.wav,Speaker2,گوینده۲,0,4,4,22,,,,,67.1996667500025,,,,,,,,,,,,,,,,,,,,,,,,,,,,,,,,,,,,,,,,,45.87296070800221,0.0,False,45.8731370830028,265277,001,2024-07-01_23h43.59.611,5-29,2024.1.4,None,2024-07-01 23h44.04.454226 +0900,
Images/Speaker1.jpg,Images/Speaker2.jpg,Images/Speaker3.jpg,Images/Speaker4.jpg,Audio/Speaker4_Per/P4-5-Per.wav,Speaker4,گوینده۴,0,5,5,64,,,,,67.1996667500025,,,,,,,,,,,,,,,,,,,,,,,,,,,,,,,,,,,,,,,,,45.88891591700303,0.0,False,45.88909520800007,265277,001,2024-07-01_23h43.59.611,5-29,2024.1.4,None,2024-07-01 23h44.04.454226 +0900,
Images/Speaker1.jpg,Images/Speaker2.jpg,Images/Speaker3.jpg,Images/Speaker4.jpg,Audio/Speaker1_Per/P1-20-Per.wav,Speaker1,گوینده ۱,0,6,6,19,,,,,67.1996667500025,,,,,,,,,,,,,,,,,,,,,,,,,,,,,,,,,,,,,,,,,45.905021875001694,0.0,False,45.90520450000258,265277,001,2024-07-01_23h43.59.611,5-29,2024.1.4,None,2024-07-01 23h44.04.454226 +0900,
Images/Speaker1.jpg,Images/Speaker2.jpg,Images/Speaker3.jpg,Images/Speaker4.jpg,Audio/Speaker4_Per/P4-10-Per.wav,Speaker4,گوینده۴,0,7,7,69,,,,,67.1996667500025,,,,,,,,,,,,,,,,,,,,,,,,,,,,,,,,,,,,,,,,,45.92168845800188,0.0,False,45.921866750002664,265277,001,2024-07-01_23h43.59.611,5-29,2024.1.4,None,2024-07-01 23h44.04.454226 +0900,
Images/Speaker1.jpg,Images/Speaker2.jpg,Images/Speaker3.jpg,Images/Speaker4.jpg,Audio/Speaker3_Per/P3-16-Per.wav,Speaker3,گوینده۳,0,8,8,55,,,,,67.1996667500025,,,,,,,,,,,,,,,,,,,,,,,,,,,,,,,,,,,,,,,,,45.937809792001644,0.0,False,45.937984916999994,265277,001,2024-07-01_23h43.59.611,5-29,2024.1.4,None,2024-07-01 23h44.04.454226 +0900,
Images/Speaker1.jpg,Images/Speaker2.jpg,Images/Speaker3.jpg,Images/Speaker4.jpg,Audio/Speaker1_Per/P1-4-Per.wav,Speaker1,گوینده ۱,0,9,9,13,,,,,67.1996667500025,,,,,,,,,,,,,,,,,,,,,,,,,,,,,,,,,,,,,,,,,45.95366037500207,0.0,False,45.95386016700286,265277,001,2024-07-01_23h43.59.611,5-29,2024.1.4,None,2024-07-01 23h44.04.454226 +0900,
Images/Speaker1.jpg,Images/Speaker2.jpg,Images/Speaker3.jpg,Images/Speaker4.jpg,Audio/Speaker4_Per/P4-11-Per.wav,Speaker4,گوینده۴,0,10,10,70,,,,,67.1996667500025,,,,,,,,,,,,,,,,,,,,,,,,,,,,,,,,,,,,,,,,,45.96961758300313,0.0,False,45.9697765000019,265277,001,2024-07-01_23h43.59.611,5-29,2024.1.4,None,2024-07-01 23h44.04.454226 +0900,
Images/Speaker1.jpg,Images/Speaker2.jpg,Images/Speaker3.jpg,Images/Speaker4.jpg,Audio/Speaker1_Per/P1-12-Per.wav,Speaker1,گوینده ۱,0,11,11,11,,,,,67.1996667500025,,,,,,,,,,,,,,,,,,,,,,,,,,,,,,,,,,,,,,,,,45.98630362500262,0.0,False,45.98648258300091,265277,001,2024-07-01_23h43.59.611,5-29,2024.1.4,None,2024-07-01 23h44.04.454226 +0900,
Images/Speaker1.jpg,Images/Speaker2.jpg,Images/Speaker3.jpg,Images/Speaker4.jpg,Audio/Speaker2_Per/P2-11-Per.wav,Speaker2,گوینده۲,0,12,12,30,,,,,67.1996667500025,,,,,,,,,,,,,,,,,,,,,,,,,,,,,,,,,,,,,,,,,46.00239641700318,0.0,False,46.00255379200098,265277,001,2024-07-01_23h43.59.611,5-29,2024.1.4,None,2024-07-01 23h44.04.454226 +0900,
Images/Speaker1.jpg,Images/Speaker2.jpg,Images/Speaker3.jpg,Images/Speaker4.jpg,Audio/Speaker1_Per/P1-15-Per.wav,Speaker1,گوینده ۱,0,13,13,14,,,,,67.1996667500025,,,,,,,,,,,,,,,,,,,,,,,,,,,,,,,,,,,,,,,,,46.01834345800307,0.0,False,46.01854370800356,265277,001,2024-07-01_23h43.59.611,5-29,2024.1.4,None,2024-07-01 23h44.04.454226 +0900,
Images/Speaker1.jpg,Images/Speaker2.jpg,Images/Speaker3.jpg,Images/Speaker4.jpg,Audio/Speaker3_Per/P3-3-Per.wav,Speaker3,گوینده۳,0,14,14,42,,,,,67.1996667500025,,,,,,,,,,,,,,,,,,,,,,,,,,,,,,,,,,,,,,,,,46.034372292000626,0.0,False,46.03459612500228,265277,001,2024-07-01_23h43.59.611,5-29,2024.1.4,None,2024-07-01 23h44.04.454226 +0900,
Images/Speaker1.jpg,Images/Speaker2.jpg,Images/Speaker3.jpg,Images/Speaker4.jpg,Audio/Speaker4_Per/P4-20-Per.wav,Speaker4,گوینده۴,0,15,15,79,,,,,67.1996667500025,,,,,,,,,,,,,,,,,,,,,,,,,,,,,,,,,,,,,,,,,46.05087037500198,0.0,False,46.051033917003224,265277,001,2024-07-01_23h43.59.611,5-29,2024.1.4,None,2024-07-01 23h44.04.454226 +0900,
Images/Speaker1.jpg,Images/Speaker2.jpg,Images/Speaker3.jpg,Images/Speaker4.jpg,Audio/Speaker2_Per/P2-16-Per.wav,Speaker2,گوینده۲,0,16,16,35,,,,,67.1996667500025,,,,,,,,,,,,,,,,,,,,,,,,,,,,,,,,,,,,,,,,,46.06684225000208,0.0,False,46.067016375000094,265277,001,2024-07-01_23h43.59.611,5-29,2024.1.4,None,2024-07-01 23h44.04.454226 +0900,
Images/Speaker1.jpg,Images/Speaker2.jpg,Images/Speaker3.jpg,Images/Speaker4.jpg,Audio/Speaker2_Per/P2-19-Per.wav,Speaker2,گوینده۲,0,17,17,38,,,,,67.1996667500025,,,,,,,,,,,,,,,,,,,,,,,,,,,,,,,,,,,,,,,,,46.082905250001204,0.0,False,46.08307720800076,265277,001,2024-07-01_23h43.59.611,5-29,2024.1.4,None,2024-07-01 23h44.04.454226 +0900,
Images/Speaker1.jpg,Images/Speaker2.jpg,Images/Speaker3.jpg,Images/Speaker4.jpg,Audio/Speaker2_Per/P2-10-Per.wav,Speaker2,گوینده۲,0,18,18,29,,,,,67.1996667500025,,,,,,,,,,,,,,,,,,,,,,,,,,,,,,,,,,,,,,,,,46.098910000000615,0.0,False,46.09914595800001,265277,001,2024-07-01_23h43.59.611,5-29,2024.1.4,None,2024-07-01 23h44.04.454226 +0900,
Images/Speaker1.jpg,Images/Speaker2.jpg,Images/Speaker3.jpg,Images/Speaker4.jpg,Audio/Speaker1_Per/P1-3-Per.wav,Speaker1,گوینده ۱,0,19,19,2,,,,,67.1996667500025,,,,,,,,,,,,,,,,,,,,,,,,,,,,,,,,,,,,,,,,,46.115740292003466,0.0,False,46.11592954200023,265277,001,2024-07-01_23h43.59.611,5-29,2024.1.4,None,2024-07-01 23h44.04.454226 +0900,
Images/Speaker1.jpg,Images/Speaker2.jpg,Images/Speaker3.jpg,Images/Speaker4.jpg,Audio/Speaker3_Per/P3-15-Per.wav,Speaker3,گوینده۳,0,20,20,54,,,,,67.1996667500025,,,,,,,,,,,,,,,,,,,,,,,,,,,,,,,,,,,,,,,,,46.13202558300327,0.0,False,46.13221187500312,265277,001,2024-07-01_23h43.59.611,5-29,2024.1.4,None,2024-07-01 23h44.04.454226 +0900,
Images/Speaker1.jpg,Images/Speaker2.jpg,Images/Speaker3.jpg,Images/Speaker4.jpg,Audio/Speaker4_Per/P4-3-Per.wav,Speaker4,گوینده۴,0,21,21,62,,,,,67.1996667500025,,,,,,,,,,,,,,,,,,,,,,,,,,,,,,,,,,,,,,,,,46.14800154200202,0.0,False,46.14821312500135,265277,001,2024-07-01_23h43.59.611,5-29,2024.1.4,None,2024-07-01 23h44.04.454226 +0900,
Images/Speaker1.jpg,Images/Speaker2.jpg,Images/Speaker3.jpg,Images/Speaker4.jpg,Audio/Speaker3_Per/P3-12-Per.wav,Speaker3,گوینده۳,0,22,22,51,,,,,67.1996667500025,,,,,,,,,,,,,,,,,,,,,,,,,,,,,,,,,,,,,,,,,46.16388333300347,0.0,False,46.16411366700049,265277,001,2024-07-01_23h43.59.611,5-29,2024.1.4,None,2024-07-01 23h44.04.454226 +0900,
Images/Speaker1.jpg,Images/Speaker2.jpg,Images/Speaker3.jpg,Images/Speaker4.jpg,Audio/Speaker2_Per/P2-6-Per.wav,Speaker2,گوینده۲,0,23,23,25,,,,,67.1996667500025,,,,,,,,,,,,,,,,,,,,,,,,,,,,,,,,,,,,,,,,,46.18043754200335,0.0,False,46.18062262500098,265277,001,2024-07-01_23h43.59.611,5-29,2024.1.4,None,2024-07-01 23h44.04.454226 +0900,
Images/Speaker1.jpg,Images/Speaker2.jpg,Images/Speaker3.jpg,Images/Speaker4.jpg,Audio/Speaker3_Per/P3-19-Per.wav,Speaker3,گوینده۳,0,24,24,58,,,,,67.1996667500025,,,,,,,,,,,,,,,,,,,,,,,,,,,,,,,,,,,,,,,,,46.19640787500248,0.0,False,46.19657358300174,265277,001,2024-07-01_23h43.59.611,5-29,2024.1.4,None,2024-07-01 23h44.04.454226 +0900,
Images/Speaker1.jpg,Images/Speaker2.jpg,Images/Speaker3.jpg,Images/Speaker4.jpg,Audio/Speaker4_Per/P4-14-Per.wav,Speaker4,گوینده۴,0,25,25,73,,,,,67.1996667500025,,,,,,,,,,,,,,,,,,,,,,,,,,,,,,,,,,,,,,,,,46.212306750003336,0.0,False,46.2125025000023,265277,001,2024-07-01_23h43.59.611,5-29,2024.1.4,None,2024-07-01 23h44.04.454226 +0900,
Images/Speaker1.jpg,Images/Speaker2.jpg,Images/Speaker3.jpg,Images/Speaker4.jpg,Audio/Speaker3_Per/P3-18-Per.wav,Speaker3,گوینده۳,0,26,26,57,,,,,67.1996667500025,,,,,,,,,,,,,,,,,,,,,,,,,,,,,,,,,,,,,,,,,46.228504958002304,0.0,False,46.228672167002514,265277,001,2024-07-01_23h43.59.611,5-29,2024.1.4,None,2024-07-01 23h44.04.454226 +0900,
Images/Speaker1.jpg,Images/Speaker2.jpg,Images/Speaker3.jpg,Images/Speaker4.jpg,Audio/Speaker3_Per/P3-14-Per.wav,Speaker3,گوینده۳,0,27,27,53,,,,,67.1996667500025,,,,,,,,,,,,,,,,,,,,,,,,,,,,,,,,,,,,,,,,,46.24509812500037,0.0,False,46.2452755000013,265277,001,2024-07-01_23h43.59.611,5-29,2024.1.4,None,2024-07-01 23h44.04.454226 +0900,
Images/Speaker1.jpg,Images/Speaker2.jpg,Images/Speaker3.jpg,Images/Speaker4.jpg,Audio/Speaker1_Per/P1-9-Per.wav,Speaker1,گوینده ۱,0,28,28,8,,,,,67.1996667500025,,,,,,,,,,,,,,,,,,,,,,,,,,,,,,,,,,,,,,,,,46.26090812500115,0.0,False,46.26107216700257,265277,001,2024-07-01_23h43.59.611,5-29,2024.1.4,None,2024-07-01 23h44.04.454226 +0900,
Images/Speaker1.jpg,Images/Speaker2.jpg,Images/Speaker3.jpg,Images/Speaker4.jpg,Audio/Speaker2_Per/P2-14-Per.wav,Speaker2,گوینده۲,0,29,29,33,,,,,67.1996667500025,,,,,,,,,,,,,,,,,,,,,,,,,,,,,,,,,,,,,,,,,46.27692062500137,0.0,False,46.277096750000055,265277,001,2024-07-01_23h43.59.611,5-29,2024.1.4,None,2024-07-01 23h44.04.454226 +0900,
Images/Speaker1.jpg,Images/Speaker2.jpg,Images/Speaker3.jpg,Images/Speaker4.jpg,Audio/Speaker4_Per/P4-4-Per.wav,Speaker4,گوینده۴,0,30,30,63,,,,,67.1996667500025,,,,,,,,,,,,,,,,,,,,,,,,,,,,,,,,,,,,,,,,,46.29283200000282,0.0,False,46.29300020800292,265277,001,2024-07-01_23h43.59.611,5-29,2024.1.4,None,2024-07-01 23h44.04.454226 +0900,
Images/Speaker1.jpg,Images/Speaker2.jpg,Images/Speaker3.jpg,Images/Speaker4.jpg,Audio/Speaker1_Per/P1-16-Per.wav,Speaker1,گوینده ۱,0,31,31,15,,,,,67.1996667500025,,,,,,,,,,,,,,,,,,,,,,,,,,,,,,,,,,,,,,,,,46.30944754200027,0.0,False,46.30961145800029,265277,001,2024-07-01_23h43.59.611,5-29,2024.1.4,None,2024-07-01 23h44.04.454226 +0900,
Images/Speaker1.jpg,Images/Speaker2.jpg,Images/Speaker3.jpg,Images/Speaker4.jpg,Audio/Speaker1_Per/P1-2-Per.wav,Speaker1,گوینده ۱,0,32,32,1,,,,,67.1996667500025,,,,,,,,,,,,,,,,,,,,,,,,,,,,,,,,,,,,,,,,,46.325449833002494,0.0,False,46.32562512500226,265277,001,2024-07-01_23h43.59.611,5-29,2024.1.4,None,2024-07-01 23h44.04.454226 +0900,
Images/Speaker1.jpg,Images/Speaker2.jpg,Images/Speaker3.jpg,Images/Speaker4.jpg,Audio/Speaker4_Per/P4-18-Per.wav,Speaker4,گوینده۴,0,33,33,77,,,,,67.1996667500025,,,,,,,,,,,,,,,,,,,,,,,,,,,,,,,,,,,,,,,,,46.341364333002275,0.0,False,46.341544208000414,265277,001,2024-07-01_23h43.59.611,5-29,2024.1.4,None,2024-07-01 23h44.04.454226 +0900,
Images/Speaker1.jpg,Images/Speaker2.jpg,Images/Speaker3.jpg,Images/Speaker4.jpg,Audio/Speaker4_Per/P4-12-Per.wav,Speaker4,گوینده۴,0,34,34,71,,,,,67.1996667500025,,,,,,,,,,,,,,,,,,,,,,,,,,,,,,,,,,,,,,,,,46.357299582999985,0.0,False,46.35747200000333,265277,001,2024-07-01_23h43.59.611,5-29,2024.1.4,None,2024-07-01 23h44.04.454226 +0900,
Images/Speaker1.jpg,Images/Speaker2.jpg,Images/Speaker3.jpg,Images/Speaker4.jpg,Audio/Speaker1_Per/P1-18-Per.wav,Speaker1,گوینده ۱,0,35,35,17,,,,,67.1996667500025,,,,,,,,,,,,,,,,,,,,,,,,,,,,,,,,,,,,,,,,,46.37387575000321,0.0,False,46.37405987500097,265277,001,2024-07-01_23h43.59.611,5-29,2024.1.4,None,2024-07-01 23h44.04.454226 +0900,
Images/Speaker1.jpg,Images/Speaker2.jpg,Images/Speaker3.jpg,Images/Speaker4.jpg,Audio/Speaker2_Per/P2-20-Per.wav,Speaker2,گوینده۲,0,36,36,39,,,,,67.1996667500025,,,,,,,,,,,,,,,,,,,,,,,,,,,,,,,,,,,,,,,,,46.38982304200181,0.0,False,46.38999912500003,265277,001,2024-07-01_23h43.59.611,5-29,2024.1.4,None,2024-07-01 23h44.04.454226 +0900,
Images/Speaker1.jpg,Images/Speaker2.jpg,Images/Speaker3.jpg,Images/Speaker4.jpg,Audio/Speaker3_Per/P3-6-Per.wav,Speaker3,گوینده۳,0,37,37,45,,,,,67.1996667500025,,,,,,,,,,,,,,,,,,,,,,,,,,,,,,,,,,,,,,,,,46.405832917000225,0.0,False,46.40599362500143,265277,001,2024-07-01_23h43.59.611,5-29,2024.1.4,None,2024-07-01 23h44.04.454226 +0900,
Images/Speaker1.jpg,Images/Speaker2.jpg,Images/Speaker3.jpg,Images/Speaker4.jpg,Audio/Speaker2_Per/P2-2-Per.wav,Speaker2,گوینده۲,0,38,38,21,,,,,67.1996667500025,,,,,,,,,,,,,,,,,,,,,,,,,,,,,,,,,,,,,,,,,46.42178787500234,0.0,False,46.421950917003414,265277,001,2024-07-01_23h43.59.611,5-29,2024.1.4,None,2024-07-01 23h44.04.454226 +0900,
Images/Speaker1.jpg,Images/Speaker2.jpg,Images/Speaker3.jpg,Images/Speaker4.jpg,Audio/Speaker3_Per/P3-17-Per.wav,Speaker3,گوینده۳,0,39,39,56,,,,,67.1996667500025,,,,,,,,,,,,,,,,,,,,,,,,,,,,,,,,,,,,,,,,,46.43833891700342,0.0,False,46.43851125000219,265277,001,2024-07-01_23h43.59.611,5-29,2024.1.4,None,2024-07-01 23h44.04.454226 +0900,
Images/Speaker1.jpg,Images/Speaker2.jpg,Images/Speaker3.jpg,Images/Speaker4.jpg,Audio/Speaker1_Per/P1-1-Per.wav,Speaker1,گوینده ۱,0,40,40,0,,,,,67.1996667500025,,,,,,,,,,,,,,,,,,,,,,,,,,,,,,,,,,,,,,,,,46.45433175000289,0.0,False,46.45448941700306,265277,001,2024-07-01_23h43.59.611,5-29,2024.1.4,None,2024-07-01 23h44.04.454226 +0900,
Images/Speaker1.jpg,Images/Speaker2.jpg,Images/Speaker3.jpg,Images/Speaker4.jpg,Audio/Speaker1_Per/P1-6-Per.wav,Speaker1,گوینده ۱,0,41,41,5,,,,,67.1996667500025,,,,,,,,,,,,,,,,,,,,,,,,,,,,,,,,,,,,,,,,,46.470123000002786,0.0,False,46.47030837500279,265277,001,2024-07-01_23h43.59.611,5-29,2024.1.4,None,2024-07-01 23h44.04.454226 +0900,
Images/Speaker1.jpg,Images/Speaker2.jpg,Images/Speaker3.jpg,Images/Speaker4.jpg,Audio/Speaker3_Per/P3-7-Per.wav,Speaker3,گوینده۳,0,42,42,46,,,,,67.1996667500025,,,,,,,,,,,,,,,,,,,,,,,,,,,,,,,,,,,,,,,,,46.48603958300009,0.0,False,46.48621420800191,265277,001,2024-07-01_23h43.59.611,5-29,2024.1.4,None,2024-07-01 23h44.04.454226 +0900,
Images/Speaker1.jpg,Images/Speaker2.jpg,Images/Speaker3.jpg,Images/Speaker4.jpg,Audio/Speaker4_Per/P4-17-Per.wav,Speaker4,گوینده۴,0,43,43,76,,,,,67.1996667500025,,,,,,,,,,,,,,,,,,,,,,,,,,,,,,,,,,,,,,,,,46.502506542001356,0.0,False,46.50267120800345,265277,001,2024-07-01_23h43.59.611,5-29,2024.1.4,None,2024-07-01 23h44.04.454226 +0900,
Images/Speaker1.jpg,Images/Speaker2.jpg,Images/Speaker3.jpg,Images/Speaker4.jpg,Audio/Speaker1_Per/P1-7-Per.wav,Speaker1,گوینده ۱,0,44,44,6,,,,,67.1996667500025,,,,,,,,,,,,,,,,,,,,,,,,,,,,,,,,,,,,,,,,,46.51850129200102,0.0,False,46.5186702500032,265277,001,2024-07-01_23h43.59.611,5-29,2024.1.4,None,2024-07-01 23h44.04.454226 +0900,
Images/Speaker1.jpg,Images/Speaker2.jpg,Images/Speaker3.jpg,Images/Speaker4.jpg,Audio/Speaker4_Per/P4-1-Per.wav,Speaker4,گوینده۴,0,45,45,60,,,,,67.1996667500025,,,,,,,,,,,,,,,,,,,,,,,,,,,,,,,,,,,,,,,,,46.53444291699998,0.0,False,46.53460900000209,265277,001,2024-07-01_23h43.59.611,5-29,2024.1.4,None,2024-07-01 23h44.04.454226 +0900,
Images/Speaker1.jpg,Images/Speaker2.jpg,Images/Speaker3.jpg,Images/Speaker4.jpg,Audio/Speaker2_Per/P2-18-Per.wav,Speaker2,گوینده۲,0,46,46,37,,,,,67.1996667500025,,,,,,,,,,,,,,,,,,,,,,,,,,,,,,,,,,,,,,,,,46.550331875001575,0.0,False,46.55048879200331,265277,001,2024-07-01_23h43.59.611,5-29,2024.1.4,None,2024-07-01 23h44.04.454226 +0900,
Images/Speaker1.jpg,Images/Speaker2.jpg,Images/Speaker3.jpg,Images/Speaker4.jpg,Audio/Speaker2_Per/P2-13-Per.wav,Speaker2,گوینده۲,0,47,47,32,,,,,67.1996667500025,,,,,,,,,,,,,,,,,,,,,,,,,,,,,,,,,,,,,,,,,46.56684425000276,0.0,False,46.567008500001975,265277,001,2024-07-01_23h43.59.611,5-29,2024.1.4,None,2024-07-01 23h44.04.454226 +0900,
Images/Speaker1.jpg,Images/Speaker2.jpg,Images/Speaker3.jpg,Images/Speaker4.jpg,Audio/Speaker1_Per/P1-11-Per.wav,Speaker1,گوینده ۱,0,48,48,10,,,,,67.1996667500025,,,,,,,,,,,,,,,,,,,,,,,,,,,,,,,,,,,,,,,,,46.582729625002685,0.0,False,46.58290300000226,265277,001,2024-07-01_23h43.59.611,5-29,2024.1.4,None,2024-07-01 23h44.04.454226 +0900,
Images/Speaker1.jpg,Images/Speaker2.jpg,Images/Speaker3.jpg,Images/Speaker4.jpg,Audio/Speaker1_Per/P1-19-Per.wav,Speaker1,گوینده ۱,0,49,49,18,,,,,67.1996667500025,,,,,,,,,,,,,,,,,,,,,,,,,,,,,,,,,,,,,,,,,46.5986840000005,0.0,False,46.59887937500025,265277,001,2024-07-01_23h43.59.611,5-29,2024.1.4,None,2024-07-01 23h44.04.454226 +0900,
Images/Speaker1.jpg,Images/Speaker2.jpg,Images/Speaker3.jpg,Images/Speaker4.jpg,Audio/Speaker3_Per/P3-13-Per.wav,Speaker3,گوینده۳,0,50,50,52,,,,,67.1996667500025,,,,,,,,,,,,,,,,,,,,,,,,,,,,,,,,,,,,,,,,,46.61477370800276,0.0,False,46.614950333001616,265277,001,2024-07-01_23h43.59.611,5-29,2024.1.4,None,2024-07-01 23h44.04.454226 +0900,
Images/Speaker1.jpg,Images/Speaker2.jpg,Images/Speaker3.jpg,Images/Speaker4.jpg,Audio/Speaker2_Per/P2-15-Per.wav,Speaker2,گوینده۲,0,51,51,34,,,,,67.1996667500025,,,,,,,,,,,,,,,,,,,,,,,,,,,,,,,,,,,,,,,,,46.631215583001904,0.0,False,46.63138812500256,265277,001,2024-07-01_23h43.59.611,5-29,2024.1.4,None,2024-07-01 23h44.04.454226 +0900,
Images/Speaker1.jpg,Images/Speaker2.jpg,Images/Speaker3.jpg,Images/Speaker4.jpg,Audio/Speaker1_Per/P1-8-Per.wav,Speaker1,گوینده ۱,0,52,52,7,,,,,67.1996667500025,,,,,,,,,,,,,,,,,,,,,,,,,,,,,,,,,,,,,,,,,46.6471655000023,0.0,False,46.647333583001455,265277,001,2024-07-01_23h43.59.611,5-29,2024.1.4,None,2024-07-01 23h44.04.454226 +0900,
Images/Speaker1.jpg,Images/Speaker2.jpg,Images/Speaker3.jpg,Images/Speaker4.jpg,Audio/Speaker1_Per/P1-10-Per.wav,Speaker1,گوینده ۱,0,53,53,9,,,,,67.1996667500025,,,,,,,,,,,,,,,,,,,,,,,,,,,,,,,,,,,,,,,,,46.66324975000316,0.0,False,46.66342666700075,265277,001,2024-07-01_23h43.59.611,5-29,2024.1.4,None,2024-07-01 23h44.04.454226 +0900,
Images/Speaker1.jpg,Images/Speaker2.jpg,Images/Speaker3.jpg,Images/Speaker4.jpg,Audio/Speaker4_Per/P4-13-Per.wav,Speaker4,گوینده۴,0,54,54,72,,,,,67.1996667500025,,,,,,,,,,,,,,,,,,,,,,,,,,,,,,,,,,,,,,,,,46.67898866700125,0.0,False,46.67919825000354,265277,001,2024-07-01_23h43.59.611,5-29,2024.1.4,None,2024-07-01 23h44.04.454226 +0900,
Images/Speaker1.jpg,Images/Speaker2.jpg,Images/Speaker3.jpg,Images/Speaker4.jpg,Audio/Speaker2_Per/P2-4-Per.wav,Speaker2,گوینده۲,0,55,55,23,,,,,67.1996667500025,,,,,,,,,,,,,,,,,,,,,,,,,,,,,,,,,,,,,,,,,46.69553862500106,0.0,False,46.695722667001974,265277,001,2024-07-01_23h43.59.611,5-29,2024.1.4,None,2024-07-01 23h44.04.454226 +0900,
Images/Speaker1.jpg,Images/Speaker2.jpg,Images/Speaker3.jpg,Images/Speaker4.jpg,Audio/Speaker4_Per/P4-6-Per.wav,Speaker4,گوینده۴,0,56,56,65,,,,,67.1996667500025,,,,,,,,,,,,,,,,,,,,,,,,,,,,,,,,,,,,,,,,,46.71142808300283,0.0,False,46.711606792003295,265277,001,2024-07-01_23h43.59.611,5-29,2024.1.4,None,2024-07-01 23h44.04.454226 +0900,
Images/Speaker1.jpg,Images/Speaker2.jpg,Images/Speaker3.jpg,Images/Speaker4.jpg,Audio/Speaker3_Per/P3-9-Per.wav,Speaker3,گوینده۳,0,57,57,48,,,,,67.1996667500025,,,,,,,,,,,,,,,,,,,,,,,,,,,,,,,,,,,,,,,,,46.727215208000416,0.0,False,46.727382000000944,265277,001,2024-07-01_23h43.59.611,5-29,2024.1.4,None,2024-07-01 23h44.04.454226 +0900,
Images/Speaker1.jpg,Images/Speaker2.jpg,Images/Speaker3.jpg,Images/Speaker4.jpg,Audio/Speaker2_Per/P2-12-Per.wav,Speaker2,گوینده۲,0,58,58,31,,,,,67.1996667500025,,,,,,,,,,,,,,,,,,,,,,,,,,,,,,,,,,,,,,,,,46.74318900000071,0.0,False,46.74341091700262,265277,001,2024-07-01_23h43.59.611,5-29,2024.1.4,None,2024-07-01 23h44.04.454226 +0900,
Images/Speaker1.jpg,Images/Speaker2.jpg,Images/Speaker3.jpg,Images/Speaker4.jpg,Audio/Speaker3_Per/P3-20-Per.wav,Speaker3,گوینده۳,0,59,59,59,,,,,67.1996667500025,,,,,,,,,,,,,,,,,,,,,,,,,,,,,,,,,,,,,,,,,46.75982775000011,0.0,False,46.7599915000028,265277,001,2024-07-01_23h43.59.611,5-29,2024.1.4,None,2024-07-01 23h44.04.454226 +0900,
Images/Speaker1.jpg,Images/Speaker2.jpg,Images/Speaker3.jpg,Images/Speaker4.jpg,Audio/Speaker3_Per/P3-5-Per.wav,Speaker3,گوینده۳,0,60,60,44,,,,,67.1996667500025,,,,,,,,,,,,,,,,,,,,,,,,,,,,,,,,,,,,,,,,,46.7756551670027,0.0,False,46.77581887500128,265277,001,2024-07-01_23h43.59.611,5-29,2024.1.4,None,2024-07-01 23h44.04.454226 +0900,
Images/Speaker1.jpg,Images/Speaker2.jpg,Images/Speaker3.jpg,Images/Speaker4.jpg,Audio/Speaker3_Per/P3-2-Per.wav,Speaker3,گوینده۳,0,61,61,41,,,,,67.1996667500025,,,,,,,,,,,,,,,,,,,,,,,,,,,,,,,,,,,,,,,,,46.79154216700044,0.0,False,46.79171041700101,265277,001,2024-07-01_23h43.59.611,5-29,2024.1.4,None,2024-07-01 23h44.04.454226 +0900,
Images/Speaker1.jpg,Images/Speaker2.jpg,Images/Speaker3.jpg,Images/Speaker4.jpg,Audio/Speaker3_Per/P3-1-Per.wav,Speaker3,گوینده۳,0,62,62,40,,,,,67.1996667500025,,,,,,,,,,,,,,,,,,,,,,,,,,,,,,,,,,,,,,,,,46.80749450000076,0.0,False,46.80765204199997,265277,001,2024-07-01_23h43.59.611,5-29,2024.1.4,None,2024-07-01 23h44.04.454226 +0900,
Images/Speaker1.jpg,Images/Speaker2.jpg,Images/Speaker3.jpg,Images/Speaker4.jpg,Audio/Speaker4_Per/P4-19-Per.wav,Speaker4,گوینده۴,0,63,63,78,,,,,67.1996667500025,,,,,,,,,,,,,,,,,,,,,,,,,,,,,,,,,,,,,,,,,46.82393716700244,0.0,False,46.82408900000155,265277,001,2024-07-01_23h43.59.611,5-29,2024.1.4,None,2024-07-01 23h44.04.454226 +0900,
Images/Speaker1.jpg,Images/Speaker2.jpg,Images/Speaker3.jpg,Images/Speaker4.jpg,Audio/Speaker4_Per/P4-2-Per.wav,Speaker4,گوینده۴,0,64,64,61,,,,,67.1996667500025,,,,,,,,,,,,,,,,,,,,,,,,,,,,,,,,,,,,,,,,,46.83984208300171,0.0,False,46.84002566700292,265277,001,2024-07-01_23h43.59.611,5-29,2024.1.4,None,2024-07-01 23h44.04.454226 +0900,
Images/Speaker1.jpg,Images/Speaker2.jpg,Images/Speaker3.jpg,Images/Speaker4.jpg,Audio/Speaker2_Per/P2-7-Per.wav,Speaker2,گوینده۲,0,65,65,26,,,,,67.1996667500025,,,,,,,,,,,,,,,,,,,,,,,,,,,,,,,,,,,,,,,,,46.8556606250022,0.0,False,46.85586562500248,265277,001,2024-07-01_23h43.59.611,5-29,2024.1.4,None,2024-07-01 23h44.04.454226 +0900,
Images/Speaker1.jpg,Images/Speaker2.jpg,Images/Speaker3.jpg,Images/Speaker4.jpg,Audio/Speaker4_Per/P4-9-Per.wav,Speaker4,گوینده۴,0,66,66,68,,,,,67.1996667500025,,,,,,,,,,,,,,,,,,,,,,,,,,,,,,,,,,,,,,,,,46.87141333300315,0.0,False,46.871636750001926,265277,001,2024-07-01_23h43.59.611,5-29,2024.1.4,None,2024-07-01 23h44.04.454226 +0900,
Images/Speaker1.jpg,Images/Speaker2.jpg,Images/Speaker3.jpg,Images/Speaker4.jpg,Audio/Speaker1_Per/P1-13-Per.wav,Speaker1,گوینده ۱,0,67,67,12,,,,,67.1996667500025,,,,,,,,,,,,,,,,,,,,,,,,,,,,,,,,,,,,,,,,,46.88792283300063,0.0,False,46.888129000002664,265277,001,2024-07-01_23h43.59.611,5-29,2024.1.4,None,2024-07-01 23h44.04.454226 +0900,
Images/Speaker1.jpg,Images/Speaker2.jpg,Images/Speaker3.jpg,Images/Speaker4.jpg,Audio/Speaker3_Per/P3-8-Per.wav,Speaker3,گوینده۳,0,68,68,47,,,,,67.1996667500025,,,,,,,,,,,,,,,,,,,,,,,,,,,,,,,,,,,,,,,,,46.90391837500283,0.0,False,46.9040930830015,265277,001,2024-07-01_23h43.59.611,5-29,2024.1.4,None,2024-07-01 23h44.04.454226 +0900,
Images/Speaker1.jpg,Images/Speaker2.jpg,Images/Speaker3.jpg,Images/Speaker4.jpg,Audio/Speaker3_Per/P3-4-Per.wav,Speaker3,گوینده۳,0,69,69,43,,,,,67.1996667500025,,,,,,,,,,,,,,,,,,,,,,,,,,,,,,,,,,,,,,,,,46.919956167002965,0.0,False,46.920175375002145,265277,001,2024-07-01_23h43.59.611,5-29,2024.1.4,None,2024-07-01 23h44.04.454226 +0900,
Images/Speaker1.jpg,Images/Speaker2.jpg,Images/Speaker3.jpg,Images/Speaker4.jpg,Audio/Speaker1_Per/P1-4-Per.wav,Speaker1,گوینده ۱,0,70,70,3,,,,,67.1996667500025,,,,,,,,,,,,,,,,,,,,,,,,,,,,,,,,,,,,,,,,,46.935672333002,0.0,False,46.93585433300177,265277,001,2024-07-01_23h43.59.611,5-29,2024.1.4,None,2024-07-01 23h44.04.454226 +0900,
Images/Speaker1.jpg,Images/Speaker2.jpg,Images/Speaker3.jpg,Images/Speaker4.jpg,Audio/Speaker4_Per/P4-15-Per.wav,Speaker4,گوینده۴,0,71,71,74,,,,,67.1996667500025,,,,,,,,,,,,,,,,,,,,,,,,,,,,,,,,,,,,,,,,,46.95227737500318,0.0,False,46.952451542001654,265277,001,2024-07-01_23h43.59.611,5-29,2024.1.4,None,2024-07-01 23h44.04.454226 +0900,
Images/Speaker1.jpg,Images/Speaker2.jpg,Images/Speaker3.jpg,Images/Speaker4.jpg,Audio/Speaker1_Per/P1-17-Per.wav,Speaker1,گوینده ۱,0,72,72,16,,,,,67.1996667500025,,,,,,,,,,,,,,,,,,,,,,,,,,,,,,,,,,,,,,,,,46.96813587500219,0.0,False,46.96830612500344,265277,001,2024-07-01_23h43.59.611,5-29,2024.1.4,None,2024-07-01 23h44.04.454226 +0900,
Images/Speaker1.jpg,Images/Speaker2.jpg,Images/Speaker3.jpg,Images/Speaker4.jpg,Audio/Speaker3_Per/P3-10-Per.wav,Speaker3,گوینده۳,0,73,73,49,,,,,67.1996667500025,,,,,,,,,,,,,,,,,,,,,,,,,,,,,,,,,,,,,,,,,46.98410787500325,0.0,False,46.98428845800299,265277,001,2024-07-01_23h43.59.611,5-29,2024.1.4,None,2024-07-01 23h44.04.454226 +0900,
Images/Speaker1.jpg,Images/Speaker2.jpg,Images/Speaker3.jpg,Images/Speaker4.jpg,Audio/Speaker3_Per/P3-11-Per.wav,Speaker3,گوینده۳,0,74,74,50,,,,,67.1996667500025,,,,,,,,,,,,,,,,,,,,,,,,,,,,,,,,,,,,,,,,,47.00002283300273,0.0,False,47.0001918750022,265277,001,2024-07-01_23h43.59.611,5-29,2024.1.4,None,2024-07-01 23h44.04.454226 +0900,
Images/Speaker1.jpg,Images/Speaker2.jpg,Images/Speaker3.jpg,Images/Speaker4.jpg,Audio/Speaker2_Per/P2-5-Per.wav,Speaker2,گوینده۲,0,75,75,24,,,,,67.1996667500025,,,,,,,,,,,,,,,,,,,,,,,,,,,,,,,,,,,,,,,,,47.01662170800046,0.0,False,47.01680062500236,265277,001,2024-07-01_23h43.59.611,5-29,2024.1.4,None,2024-07-01 23h44.04.454226 +0900,
Images/Speaker1.jpg,Images/Speaker2.jpg,Images/Speaker3.jpg,Images/Speaker4.jpg,Audio/Speaker4_Per/P4-8-Per.wav,Speaker4,گوینده۴,0,76,76,67,,,,,67.1996667500025,,,,,,,,,,,,,,,,,,,,,,,,,,,,,,,,,,,,,,,,,47.03263616700133,0.0,False,47.03282437500093,265277,001,2024-07-01_23h43.59.611,5-29,2024.1.4,None,2024-07-01 23h44.04.454226 +0900,
Images/Speaker1.jpg,Images/Speaker2.jpg,Images/Speaker3.jpg,Images/Speaker4.jpg,Audio/Speaker2_Per/P2-8-Per.wav,Speaker2,گوینده۲,0,77,77,27,,,,,67.1996667500025,,,,,,,,,,,,,,,,,,,,,,,,,,,,,,,,,,,,,,,,,47.04852679200121,0.0,False,47.04869020800106,265277,001,2024-07-01_23h43.59.611,5-29,2024.1.4,None,2024-07-01 23h44.04.454226 +0900,
Images/Speaker1.jpg,Images/Speaker2.jpg,Images/Speaker3.jpg,Images/Speaker4.jpg,Audio/Speaker4_Per/P4-7-Per.wav,Speaker4,گوینده۴,0,78,78,66,,,,,67.1996667500025,,,,,,,,,,,,,,,,,,,,,,,,,,,,,,,,,,,,,,,,,47.06441137500224,0.0,False,47.06456820800304,265277,001,2024-07-01_23h43.59.611,5-29,2024.1.4,None,2024-07-01 23h44.04.454226 +0900,
Images/Speaker1.jpg,Images/Speaker2.jpg,Images/Speaker3.jpg,Images/Speaker4.jpg,Audio/Speaker4_Per/P4-16-Per.wav,Speaker4,گوینده۴,0,79,79,75,,,,,67.1996667500025,,,,,,,,,,,,,,,,,,,,,,,,,,,,,,,,,,,,,,,,,47.08107883300181,0.0,False,47.08125829200071,265277,001,2024-07-01_23h43.59.611,5-29,2024.1.4,None,2024-07-01 23h44.04.454226 +0900,
Images/Speaker1.jpg,Images/Speaker2.jpg,Images/Speaker3.jpg,Images/Speaker4.jpg,Audio/Speaker3_Per/P3-18-Per.wav,Speaker3,گوینده۳,1,0,80,57,,,,,67.1996667500025,,,,,,,,,,,,,,,,,,,,,,,,,,,,,,,,,,,,,,,,,47.09682333300225,0.0,False,47.09704070800217,265277,001,2024-07-01_23h43.59.611,5-29,2024.1.4,None,2024-07-01 23h44.04.454226 +0900,
Images/Speaker1.jpg,Images/Speaker2.jpg,Images/Speaker3.jpg,Images/Speaker4.jpg,Audio/Speaker4_Per/P4-4-Per.wav,Speaker4,گوینده۴,1,1,81,63,,,,,67.1996667500025,,,,,,,,,,,,,,,,,,,,,,,,,,,,,,,,,,,,,,,,,47.11295316700125,0.0,False,47.1131664170025,265277,001,2024-07-01_23h43.59.611,5-29,2024.1.4,None,2024-07-01 23h44.04.454226 +0900,
Images/Speaker1.jpg,Images/Speaker2.jpg,Images/Speaker3.jpg,Images/Speaker4.jpg,Audio/Speaker4_Per/P4-11-Per.wav,Speaker4,گوینده۴,1,2,82,70,,,,,67.1996667500025,,,,,,,,,,,,,,,,,,,,,,,,,,,,,,,,,,,,,,,,,47.12921991700205,0.0,False,47.129429208001966,265277,001,2024-07-01_23h43.59.611,5-29,2024.1.4,None,2024-07-01 23h44.04.454226 +0900,
Images/Speaker1.jpg,Images/Speaker2.jpg,Images/Speaker3.jpg,Images/Speaker4.jpg,Audio/Speaker2_Per/P2-13-Per.wav,Speaker2,گوینده۲,1,3,83,32,,,,,67.1996667500025,,,,,,,,,,,,,,,,,,,,,,,,,,,,,,,,,,,,,,,,,47.14588016700145,0.0,False,47.146064583001134,265277,001,2024-07-01_23h43.59.611,5-29,2024.1.4,None,2024-07-01 23h44.04.454226 +0900,
Images/Speaker1.jpg,Images/Speaker2.jpg,Images/Speaker3.jpg,Images/Speaker4.jpg,Audio/Speaker1_Per/P1-11-Per.wav,Speaker1,گوینده ۱,1,4,84,10,,,,,67.1996667500025,,,,,,,,,,,,,,,,,,,,,,,,,,,,,,,,,,,,,,,,,47.16187779200118,0.0,False,47.162045333003334,265277,001,2024-07-01_23h43.59.611,5-29,2024.1.4,None,2024-07-01 23h44.04.454226 +0900,
Images/Speaker1.jpg,Images/Speaker2.jpg,Images/Speaker3.jpg,Images/Speaker4.jpg,Audio/Speaker3_Per/P3-1-Per.wav,Speaker3,گوینده۳,1,5,85,40,,,,,67.1996667500025,,,,,,,,,,,,,,,,,,,,,,,,,,,,,,,,,,,,,,,,,47.17761283300206,0.0,False,47.177796417003265,265277,001,2024-07-01_23h43.59.611,5-29,2024.1.4,None,2024-07-01 23h44.04.454226 +0900,
Images/Speaker1.jpg,Images/Speaker2.jpg,Images/Speaker3.jpg,Images/Speaker4.jpg,Audio/Speaker2_Per/P2-5-Per.wav,Speaker2,گوینده۲,1,6,86,24,,,,,67.1996667500025,,,,,,,,,,,,,,,,,,,,,,,,,,,,,,,,,,,,,,,,,47.19362287500189,0.0,False,47.193821125001705,265277,001,2024-07-01_23h43.59.611,5-29,2024.1.4,None,2024-07-01 23h44.04.454226 +0900,
Images/Speaker1.jpg,Images/Speaker2.jpg,Images/Speaker3.jpg,Images/Speaker4.jpg,Audio/Speaker3_Per/P3-20-Per.wav,Speaker3,گوینده۳,1,7,87,59,,,,,67.1996667500025,,,,,,,,,,,,,,,,,,,,,,,,,,,,,,,,,,,,,,,,,47.21014162500069,0.0,False,47.21030691700071,265277,001,2024-07-01_23h43.59.611,5-29,2024.1.4,None,2024-07-01 23h44.04.454226 +0900,
Images/Speaker1.jpg,Images/Speaker2.jpg,Images/Speaker3.jpg,Images/Speaker4.jpg,Audio/Speaker3_Per/P3-2-Per.wav,Speaker3,گوینده۳,1,8,88,41,,,,,67.1996667500025,,,,,,,,,,,,,,,,,,,,,,,,,,,,,,,,,,,,,,,,,47.22615420800139,0.0,False,47.226326458003314,265277,001,2024-07-01_23h43.59.611,5-29,2024.1.4,None,2024-07-01 23h44.04.454226 +0900,
Images/Speaker1.jpg,Images/Speaker2.jpg,Images/Speaker3.jpg,Images/Speaker4.jpg,Audio/Speaker2_Per/P2-2-Per.wav,Speaker2,گوینده۲,1,9,89,21,,,,,67.1996667500025,,,,,,,,,,,,,,,,,,,,,,,,,,,,,,,,,,,,,,,,,47.242018500000995,0.0,False,47.24218900000051,265277,001,2024-07-01_23h43.59.611,5-29,2024.1.4,None,2024-07-01 23h44.04.454226 +0900,
Images/Speaker1.jpg,Images/Speaker2.jpg,Images/Speaker3.jpg,Images/Speaker4.jpg,Audio/Speaker2_Per/P2-15-Per.wav,Speaker2,گوینده۲,1,10,90,34,,,,,67.1996667500025,,,,,,,,,,,,,,,,,,,,,,,,,,,,,,,,,,,,,,,,,47.25796516700211,0.0,False,47.258143167000526,265277,001,2024-07-01_23h43.59.611,5-29,2024.1.4,None,2024-07-01 23h44.04.454226 +0900,
Images/Speaker1.jpg,Images/Speaker2.jpg,Images/Speaker3.jpg,Images/Speaker4.jpg,Audio/Speaker1_Per/P1-20-Per.wav,Speaker1,گوینده ۱,1,11,91,19,,,,,67.1996667500025,,,,,,,,,,,,,,,,,,,,,,,,,,,,,,,,,,,,,,,,,47.27438366700153,0.0,False,47.274553708000894,265277,001,2024-07-01_23h43.59.611,5-29,2024.1.4,None,2024-07-01 23h44.04.454226 +0900,
Images/Speaker1.jpg,Images/Speaker2.jpg,Images/Speaker3.jpg,Images/Speaker4.jpg,Audio/Speaker2_Per/P2-17-Per.wav,Speaker2,گوینده۲,1,12,92,36,,,,,67.1996667500025,,,,,,,,,,,,,,,,,,,,,,,,,,,,,,,,,,,,,,,,,47.2903610420035,0.0,False,47.29058866700143,265277,001,2024-07-01_23h43.59.611,5-29,2024.1.4,None,2024-07-01 23h44.04.454226 +0900,
Images/Speaker1.jpg,Images/Speaker2.jpg,Images/Speaker3.jpg,Images/Speaker4.jpg,Audio/Speaker2_Per/P2-7-Per.wav,Speaker2,گوینده۲,1,13,93,26,,,,,67.1996667500025,,,,,,,,,,,,,,,,,,,,,,,,,,,,,,,,,,,,,,,,,47.30625262500325,0.0,False,47.30646875000093,265277,001,2024-07-01_23h43.59.611,5-29,2024.1.4,None,2024-07-01 23h44.04.454226 +0900,
Images/Speaker1.jpg,Images/Speaker2.jpg,Images/Speaker3.jpg,Images/Speaker4.jpg,Audio/Speaker1_Per/P1-1-Per.wav,Speaker1,گوینده ۱,1,14,94,0,,,,,67.1996667500025,,,,,,,,,,,,,,,,,,,,,,,,,,,,,,,,,,,,,,,,,47.322249167002155,0.0,False,47.322476708002796,265277,001,2024-07-01_23h43.59.611,5-29,2024.1.4,None,2024-07-01 23h44.04.454226 +0900,
Images/Speaker1.jpg,Images/Speaker2.jpg,Images/Speaker3.jpg,Images/Speaker4.jpg,Audio/Speaker1_Per/P1-4-Per.wav,Speaker1,گوینده ۱,1,15,95,3,,,,,67.1996667500025,,,,,,,,,,,,,,,,,,,,,,,,,,,,,,,,,,,,,,,,,47.33884087500337,0.0,False,47.33901162500115,265277,001,2024-07-01_23h43.59.611,5-29,2024.1.4,None,2024-07-01 23h44.04.454226 +0900,
Images/Speaker1.jpg,Images/Speaker2.jpg,Images/Speaker3.jpg,Images/Speaker4.jpg,Audio/Speaker1_Per/P1-19-Per.wav,Speaker1,گوینده ۱,1,16,96,18,,,,,67.1996667500025,,,,,,,,,,,,,,,,,,,,,,,,,,,,,,,,,,,,,,,,,47.354783875001885,0.0,False,47.3549481250011,265277,001,2024-07-01_23h43.59.611,5-29,2024.1.4,None,2024-07-01 23h44.04.454226 +0900,
Images/Speaker1.jpg,Images/Speaker2.jpg,Images/Speaker3.jpg,Images/Speaker4.jpg,Audio/Speaker3_Per/P3-14-Per.wav,Speaker3,گوینده۳,1,17,97,53,,,,,67.1996667500025,,,,,,,,,,,,,,,,,,,,,,,,,,,,,,,,,,,,,,,,,47.370726917000866,0.0,False,47.370892542003276,265277,001,2024-07-01_23h43.59.611,5-29,2024.1.4,None,2024-07-01 23h44.04.454226 +0900,
Images/Speaker1.jpg,Images/Speaker2.jpg,Images/Speaker3.jpg,Images/Speaker4.jpg,Audio/Speaker1_Per/P1-4-Per.wav,Speaker1,گوینده ۱,1,18,98,13,,,,,67.1996667500025,,,,,,,,,,,,,,,,,,,,,,,,,,,,,,,,,,,,,,,,,47.38663937500314,0.0,False,47.38679454200246,265277,001,2024-07-01_23h43.59.611,5-29,2024.1.4,None,2024-07-01 23h44.04.454226 +0900,
Images/Speaker1.jpg,Images/Speaker2.jpg,Images/Speaker3.jpg,Images/Speaker4.jpg,Audio/Speaker2_Per/P2-3-Per.wav,Speaker2,گوینده۲,1,19,99,22,,,,,67.1996667500025,,,,,,,,,,,,,,,,,,,,,,,,,,,,,,,,,,,,,,,,,47.40316300000268,0.0,False,47.403323208000074,265277,001,2024-07-01_23h43.59.611,5-29,2024.1.4,None,2024-07-01 23h44.04.454226 +0900,
Images/Speaker1.jpg,Images/Speaker2.jpg,Images/Speaker3.jpg,Images/Speaker4.jpg,Audio/Speaker1_Per/P1-3-Per.wav,Speaker1,گوینده ۱,1,20,100,2,,,,,67.1996667500025,,,,,,,,,,,,,,,,,,,,,,,,,,,,,,,,,,,,,,,,,47.41902375000063,0.0,False,47.41919366700313,265277,001,2024-07-01_23h43.59.611,5-29,2024.1.4,None,2024-07-01 23h44.04.454226 +0900,
Images/Speaker1.jpg,Images/Speaker2.jpg,Images/Speaker3.jpg,Images/Speaker4.jpg,Audio/Speaker1_Per/P1-8-Per.wav,Speaker1,گوینده ۱,1,21,101,7,,,,,67.1996667500025,,,,,,,,,,,,,,,,,,,,,,,,,,,,,,,,,,,,,,,,,47.43511658300122,0.0,False,47.43527429200185,265277,001,2024-07-01_23h43.59.611,5-29,2024.1.4,None,2024-07-01 23h44.04.454226 +0900,
Images/Speaker1.jpg,Images/Speaker2.jpg,Images/Speaker3.jpg,Images/Speaker4.jpg,Audio/Speaker3_Per/P3-16-Per.wav,Speaker3,گوینده۳,1,22,102,55,,,,,67.1996667500025,,,,,,,,,,,,,,,,,,,,,,,,,,,,,,,,,,,,,,,,,47.45112954200158,0.0,False,47.45132875000127,265277,001,2024-07-01_23h43.59.611,5-29,2024.1.4,None,2024-07-01 23h44.04.454226 +0900,
Images/Speaker1.jpg,Images/Speaker2.jpg,Images/Speaker3.jpg,Images/Speaker4.jpg,Audio/Speaker4_Per/P4-1-Per.wav,Speaker4,گوینده۴,1,23,103,60,,,,,67.1996667500025,,,,,,,,,,,,,,,,,,,,,,,,,,,,,,,,,,,,,,,,,47.46756879200257,0.0,False,47.46773704200314,265277,001,2024-07-01_23h43.59.611,5-29,2024.1.4,None,2024-07-01 23h44.04.454226 +0900,
Images/Speaker1.jpg,Images/Speaker2.jpg,Images/Speaker3.jpg,Images/Speaker4.jpg,Audio/Speaker1_Per/P1-18-Per.wav,Speaker1,گوینده ۱,1,24,104,17,,,,,67.1996667500025,,,,,,,,,,,,,,,,,,,,,,,,,,,,,,,,,,,,,,,,,47.48349204200349,0.0,False,47.48366637500294,265277,001,2024-07-01_23h43.59.611,5-29,2024.1.4,None,2024-07-01 23h44.04.454226 +0900,
Images/Speaker1.jpg,Images/Speaker2.jpg,Images/Speaker3.jpg,Images/Speaker4.jpg,Audio/Speaker2_Per/P2-1-Per.wav,Speaker2,گوینده۲,1,25,105,20,,,,,67.1996667500025,,,,,,,,,,,,,,,,,,,,,,,,,,,,,,,,,,,,,,,,,47.49947841700123,0.0,False,47.49965400000292,265277,001,2024-07-01_23h43.59.611,5-29,2024.1.4,None,2024-07-01 23h44.04.454226 +0900,
Images/Speaker1.jpg,Images/Speaker2.jpg,Images/Speaker3.jpg,Images/Speaker4.jpg,Audio/Speaker2_Per/P2-18-Per.wav,Speaker2,گوینده۲,1,26,106,37,,,,,67.1996667500025,,,,,,,,,,,,,,,,,,,,,,,,,,,,,,,,,,,,,,,,,47.51538237500063,0.0,False,47.515550333002466,265277,001,2024-07-01_23h43.59.611,5-29,2024.1.4,None,2024-07-01 23h44.04.454226 +0900,
Images/Speaker1.jpg,Images/Speaker2.jpg,Images/Speaker3.jpg,Images/Speaker4.jpg,Audio/Speaker3_Per/P3-15-Per.wav,Speaker3,گوینده۳,1,27,107,54,,,,,67.1996667500025,,,,,,,,,,,,,,,,,,,,,,,,,,,,,,,,,,,,,,,,,47.53192350000245,0.0,False,47.53210187500008,265277,001,2024-07-01_23h43.59.611,5-29,2024.1.4,None,2024-07-01 23h44.04.454226 +0900,
Images/Speaker1.jpg,Images/Speaker2.jpg,Images/Speaker3.jpg,Images/Speaker4.jpg,Audio/Speaker4_Per/P4-6-Per.wav,Speaker4,گوینده۴,1,28,108,65,,,,,67.1996667500025,,,,,,,,,,,,,,,,,,,,,,,,,,,,,,,,,,,,,,,,,47.54787129200122,0.0,False,47.548050042001705,265277,001,2024-07-01_23h43.59.611,5-29,2024.1.4,None,2024-07-01 23h44.04.454226 +0900,
Images/Speaker1.jpg,Images/Speaker2.jpg,Images/Speaker3.jpg,Images/Speaker4.jpg,Audio/Speaker4_Per/P4-13-Per.wav,Speaker4,گوینده۴,1,29,109,72,,,,,67.1996667500025,,,,,,,,,,,,,,,,,,,,,,,,,,,,,,,,,,,,,,,,,47.563781625001866,0.0,False,47.56393904200013,265277,001,2024-07-01_23h43.59.611,5-29,2024.1.4,None,2024-07-01 23h44.04.454226 +0900,
Images/Speaker1.jpg,Images/Speaker2.jpg,Images/Speaker3.jpg,Images/Speaker4.jpg,Audio/Speaker3_Per/P3-4-Per.wav,Speaker3,گوینده۳,1,30,110,43,,,,,67.1996667500025,,,,,,,,,,,,,,,,,,,,,,,,,,,,,,,,,,,,,,,,,47.57970233300148,0.0,False,47.579861917001836,265277,001,2024-07-01_23h43.59.611,5-29,2024.1.4,None,2024-07-01 23h44.04.454226 +0900,
Images/Speaker1.jpg,Images/Speaker2.jpg,Images/Speaker3.jpg,Images/Speaker4.jpg,Audio/Speaker3_Per/P3-7-Per.wav,Speaker3,گوینده۳,1,31,111,46,,,,,67.1996667500025,,,,,,,,,,,,,,,,,,,,,,,,,,,,,,,,,,,,,,,,,47.59618154200143,0.0,False,47.59635362500194,265277,001,2024-07-01_23h43.59.611,5-29,2024.1.4,None,2024-07-01 23h44.04.454226 +0900,
Images/Speaker1.jpg,Images/Speaker2.jpg,Images/Speaker3.jpg,Images/Speaker4.jpg,Audio/Speaker2_Per/P2-6-Per.wav,Speaker2,گوینده۲,1,32,112,25,,,,,67.1996667500025,,,,,,,,,,,,,,,,,,,,,,,,,,,,,,,,,,,,,,,,,47.61213829200278,0.0,False,47.61230487500143,265277,001,2024-07-01_23h43.59.611,5-29,2024.1.4,None,2024-07-01 23h44.04.454226 +0900,
Images/Speaker1.jpg,Images/Speaker2.jpg,Images/Speaker3.jpg,Images/Speaker4.jpg,Audio/Speaker2_Per/P2-10-Per.wav,Speaker2,گوینده۲,1,33,113,29,,,,,67.1996667500025,,,,,,,,,,,,,,,,,,,,,,,,,,,,,,,,,,,,,,,,,47.62816379200012,0.0,False,47.62832141700346,265277,001,2024-07-01_23h43.59.611,5-29,2024.1.4,None,2024-07-01 23h44.04.454226 +0900,
Images/Speaker1.jpg,Images/Speaker2.jpg,Images/Speaker3.jpg,Images/Speaker4.jpg,Audio/Speaker1_Per/P1-16-Per.wav,Speaker1,گوینده ۱,1,34,114,15,,,,,67.1996667500025,,,,,,,,,,,,,,,,,,,,,,,,,,,,,,,,,,,,,,,,,47.64412416699997,0.0,False,47.64429350000137,265277,001,2024-07-01_23h43.59.611,5-29,2024.1.4,None,2024-07-01 23h44.04.454226 +0900,
Images/Speaker1.jpg,Images/Speaker2.jpg,Images/Speaker3.jpg,Images/Speaker4.jpg,Audio/Speaker1_Per/P1-10-Per.wav,Speaker1,گوینده ۱,1,35,115,9,,,,,67.1996667500025,,,,,,,,,,,,,,,,,,,,,,,,,,,,,,,,,,,,,,,,,47.66067112500241,0.0,False,47.660851874999935,265277,001,2024-07-01_23h43.59.611,5-29,2024.1.4,None,2024-07-01 23h44.04.454226 +0900,
Images/Speaker1.jpg,Images/Speaker2.jpg,Images/Speaker3.jpg,Images/Speaker4.jpg,Audio/Speaker3_Per/P3-12-Per.wav,Speaker3,گوینده۳,1,36,116,51,,,,,67.1996667500025,,,,,,,,,,,,,,,,,,,,,,,,,,,,,,,,,,,,,,,,,47.67656670800352,0.0,False,47.67673170800117,265277,001,2024-07-01_23h43.59.611,5-29,2024.1.4,None,2024-07-01 23h44.04.454226 +0900,
Images/Speaker1.jpg,Images/Speaker2.jpg,Images/Speaker3.jpg,Images/Speaker4.jpg,Audio/Speaker1_Per/P1-5-Per.wav,Speaker1,گوینده ۱,1,37,117,4,,,,,67.1996667500025,,,,,,,,,,,,,,,,,,,,,,,,,,,,,,,,,,,,,,,,,47.692478792003385,0.0,False,47.692645292001544,265277,001,2024-07-01_23h43.59.611,5-29,2024.1.4,None,2024-07-01 23h44.04.454226 +0900,
Images/Speaker1.jpg,Images/Speaker2.jpg,Images/Speaker3.jpg,Images/Speaker4.jpg,Audio/Speaker4_Per/P4-9-Per.wav,Speaker4,گوینده۴,1,38,118,68,,,,,67.1996667500025,,,,,,,,,,,,,,,,,,,,,,,,,,,,,,,,,,,,,,,,,47.7083545830028,0.0,False,47.70853162500134,265277,001,2024-07-01_23h43.59.611,5-29,2024.1.4,None,2024-07-01 23h44.04.454226 +0900,
Images/Speaker1.jpg,Images/Speaker2.jpg,Images/Speaker3.jpg,Images/Speaker4.jpg,Audio/Speaker4_Per/P4-15-Per.wav,Speaker4,گوینده۴,1,39,119,74,,,,,67.1996667500025,,,,,,,,,,,,,,,,,,,,,,,,,,,,,,,,,,,,,,,,,47.72493037500317,0.0,False,47.72513854200224,265277,001,2024-07-01_23h43.59.611,5-29,2024.1.4,None,2024-07-01 23h44.04.454226 +0900,
Images/Speaker1.jpg,Images/Speaker2.jpg,Images/Speaker3.jpg,Images/Speaker4.jpg,Audio/Speaker4_Per/P4-17-Per.wav,Speaker4,گوینده۴,1,40,120,76,,,,,67.1996667500025,,,,,,,,,,,,,,,,,,,,,,,,,,,,,,,,,,,,,,,,,47.740792042000976,0.0,False,47.740967500001716,265277,001,2024-07-01_23h43.59.611,5-29,2024.1.4,None,2024-07-01 23h44.04.454226 +0900,
Images/Speaker1.jpg,Images/Speaker2.jpg,Images/Speaker3.jpg,Images/Speaker4.jpg,Audio/Speaker1_Per/P1-7-Per.wav,Speaker1,گوینده ۱,1,41,121,6,,,,,67.1996667500025,,,,,,,,,,,,,,,,,,,,,,,,,,,,,,,,,,,,,,,,,47.75675300000148,0.0,False,47.756963917003304,265277,001,2024-07-01_23h43.59.611,5-29,2024.1.4,None,2024-07-01 23h44.04.454226 +0900,
Images/Speaker1.jpg,Images/Speaker2.jpg,Images/Speaker3.jpg,Images/Speaker4.jpg,Audio/Speaker3_Per/P3-8-Per.wav,Speaker3,گوینده۳,1,42,122,47,,,,,67.1996667500025,,,,,,,,,,,,,,,,,,,,,,,,,,,,,,,,,,,,,,,,,47.77287475000048,0.0,False,47.77306191700336,265277,001,2024-07-01_23h43.59.611,5-29,2024.1.4,None,2024-07-01 23h44.04.454226 +0900,
Images/Speaker1.jpg,Images/Speaker2.jpg,Images/Speaker3.jpg,Images/Speaker4.jpg,Audio/Speaker4_Per/P4-12-Per.wav,Speaker4,گوینده۴,1,43,123,71,,,,,67.1996667500025,,,,,,,,,,,,,,,,,,,,,,,,,,,,,,,,,,,,,,,,,47.789394500003255,0.0,False,47.789565667000716,265277,001,2024-07-01_23h43.59.611,5-29,2024.1.4,None,2024-07-01 23h44.04.454226 +0900,
Images/Speaker1.jpg,Images/Speaker2.jpg,Images/Speaker3.jpg,Images/Speaker4.jpg,Audio/Speaker1_Per/P1-13-Per.wav,Speaker1,گوینده ۱,1,44,124,12,,,,,67.1996667500025,,,,,,,,,,,,,,,,,,,,,,,,,,,,,,,,,,,,,,,,,47.805375625001034,0.0,False,47.805552000001626,265277,001,2024-07-01_23h43.59.611,5-29,2024.1.4,None,2024-07-01 23h44.04.454226 +0900,
Images/Speaker1.jpg,Images/Speaker2.jpg,Images/Speaker3.jpg,Images/Speaker4.jpg,Audio/Speaker3_Per/P3-10-Per.wav,Speaker3,گوینده۳,1,45,125,49,,,,,67.1996667500025,,,,,,,,,,,,,,,,,,,,,,,,,,,,,,,,,,,,,,,,,47.82135545800338,0.0,False,47.821524917002534,265277,001,2024-07-01_23h43.59.611,5-29,2024.1.4,None,2024-07-01 23h44.04.454226 +0900,
Images/Speaker1.jpg,Images/Speaker2.jpg,Images/Speaker3.jpg,Images/Speaker4.jpg,Audio/Speaker1_Per/P1-15-Per.wav,Speaker1,گوینده ۱,1,46,126,14,,,,,67.1996667500025,,,,,,,,,,,,,,,,,,,,,,,,,,,,,,,,,,,,,,,,,47.83732229200177,0.0,False,47.837534417001734,265277,001,2024-07-01_23h43.59.611,5-29,2024.1.4,None,2024-07-01 23h44.04.454226 +0900,
Images/Speaker1.jpg,Images/Speaker2.jpg,Images/Speaker3.jpg,Images/Speaker4.jpg,Audio/Speaker2_Per/P2-19-Per.wav,Speaker2,گوینده۲,1,47,127,38,,,,,67.1996667500025,,,,,,,,,,,,,,,,,,,,,,,,,,,,,,,,,,,,,,,,,47.85396200000105,0.0,False,47.85413108300054,265277,001,2024-07-01_23h43.59.611,5-29,2024.1.4,None,2024-07-01 23h44.04.454226 +0900,
Images/Speaker1.jpg,Images/Speaker2.jpg,Images/Speaker3.jpg,Images/Speaker4.jpg,Audio/Speaker2_Per/P2-4-Per.wav,Speaker2,گوینده۲,1,48,128,23,,,,,67.1996667500025,,,,,,,,,,,,,,,,,,,,,,,,,,,,,,,,,,,,,,,,,47.87000029200135,0.0,False,47.870167083001434,265277,001,2024-07-01_23h43.59.611,5-29,2024.1.4,None,2024-07-01 23h44.04.454226 +0900,
Images/Speaker1.jpg,Images/Speaker2.jpg,Images/Speaker3.jpg,Images/Speaker4.jpg,Audio/Speaker3_Per/P3-11-Per.wav,Speaker3,گوینده۳,1,49,129,50,,,,,67.1996667500025,,,,,,,,,,,,,,,,,,,,,,,,,,,,,,,,,,,,,,,,,47.8858522920018,0.0,False,47.88603170800343,265277,001,2024-07-01_23h43.59.611,5-29,2024.1.4,None,2024-07-01 23h44.04.454226 +0900,
Images/Speaker1.jpg,Images/Speaker2.jpg,Images/Speaker3.jpg,Images/Speaker4.jpg,Audio/Speaker4_Per/P4-20-Per.wav,Speaker4,گوینده۴,1,50,130,79,,,,,67.1996667500025,,,,,,,,,,,,,,,,,,,,,,,,,,,,,,,,,,,,,,,,,47.901831375002075,0.0,False,47.90199204200326,265277,001,2024-07-01_23h43.59.611,5-29,2024.1.4,None,2024-07-01 23h44.04.454226 +0900,
Images/Speaker1.jpg,Images/Speaker2.jpg,Images/Speaker3.jpg,Images/Speaker4.jpg,Audio/Speaker4_Per/P4-10-Per.wav,Speaker4,گوینده۴,1,51,131,69,,,,,67.1996667500025,,,,,,,,,,,,,,,,,,,,,,,,,,,,,,,,,,,,,,,,,47.91846829200222,0.0,False,47.918624667003314,265277,001,2024-07-01_23h43.59.611,5-29,2024.1.4,None,2024-07-01 23h44.04.454226 +0900,
Images/Speaker1.jpg,Images/Speaker2.jpg,Images/Speaker3.jpg,Images/Speaker4.jpg,Audio/Speaker2_Per/P2-14-Per.wav,Speaker2,گوینده۲,1,52,132,33,,,,,67.1996667500025,,,,,,,,,,,,,,,,,,,,,,,,,,,,,,,,,,,,,,,,,47.93417308300195,0.0,False,47.93439058300282,265277,001,2024-07-01_23h43.59.611,5-29,2024.1.4,None,2024-07-01 23h44.04.454226 +0900,
Images/Speaker1.jpg,Images/Speaker2.jpg,Images/Speaker3.jpg,Images/Speaker4.jpg,Audio/Speaker2_Per/P2-12-Per.wav,Speaker2,گوینده۲,1,53,133,31,,,,,67.1996667500025,,,,,,,,,,,,,,,,,,,,,,,,,,,,,,,,,,,,,,,,,47.9500367920009,0.0,False,47.95022741700086,265277,001,2024-07-01_23h43.59.611,5-29,2024.1.4,None,2024-07-01 23h44.04.454226 +0900,
Images/Speaker1.jpg,Images/Speaker2.jpg,Images/Speaker3.jpg,Images/Speaker4.jpg,Audio/Speaker3_Per/P3-17-Per.wav,Speaker3,گوینده۳,1,54,134,56,,,,,67.1996667500025,,,,,,,,,,,,,,,,,,,,,,,,,,,,,,,,,,,,,,,,,47.96602625000014,0.0,False,47.96622212500006,265277,001,2024-07-01_23h43.59.611,5-29,2024.1.4,None,2024-07-01 23h44.04.454226 +0900,
Images/Speaker1.jpg,Images/Speaker2.jpg,Images/Speaker3.jpg,Images/Speaker4.jpg,Audio/Speaker1_Per/P1-6-Per.wav,Speaker1,گوینده ۱,1,55,135,5,,,,,67.1996667500025,,,,,,,,,,,,,,,,,,,,,,,,,,,,,,,,,,,,,,,,,47.98251479200189,0.0,False,47.98268950000056,265277,001,2024-07-01_23h43.59.611,5-29,2024.1.4,None,2024-07-01 23h44.04.454226 +0900,
Images/Speaker1.jpg,Images/Speaker2.jpg,Images/Speaker3.jpg,Images/Speaker4.jpg,Audio/Speaker3_Per/P3-3-Per.wav,Speaker3,گوینده۳,1,56,136,42,,,,,67.1996667500025,,,,,,,,,,,,,,,,,,,,,,,,,,,,,,,,,,,,,,,,,47.99855262500205,0.0,False,47.998761458002264,265277,001,2024-07-01_23h43.59.611,5-29,2024.1.4,None,2024-07-01 23h44.04.454226 +0900,
Images/Speaker1.jpg,Images/Speaker2.jpg,Images/Speaker3.jpg,Images/Speaker4.jpg,Audio/Speaker4_Per/P4-19-Per.wav,Speaker4,گوینده۴,1,57,137,78,,,,,67.1996667500025,,,,,,,,,,,,,,,,,,,,,,,,,,,,,,,,,,,,,,,,,48.014563833003194,0.0,False,48.01473008300309,265277,001,2024-07-01_23h43.59.611,5-29,2024.1.4,None,2024-07-01 23h44.04.454226 +0900,
Images/Speaker1.jpg,Images/Speaker2.jpg,Images/Speaker3.jpg,Images/Speaker4.jpg,Audio/Speaker1_Per/P1-12-Per.wav,Speaker1,گوینده ۱,1,58,138,11,,,,,67.1996667500025,,,,,,,,,,,,,,,,,,,,,,,,,,,,,,,,,,,,,,,,,48.0305614170029,0.0,False,48.03072766700279,265277,001,2024-07-01_23h43.59.611,5-29,2024.1.4,None,2024-07-01 23h44.04.454226 +0900,
Images/Speaker1.jpg,Images/Speaker2.jpg,Images/Speaker3.jpg,Images/Speaker4.jpg,Audio/Speaker2_Per/P2-8-Per.wav,Speaker2,گوینده۲,1,59,139,27,,,,,67.1996667500025,,,,,,,,,,,,,,,,,,,,,,,,,,,,,,,,,,,,,,,,,48.04735704199993,0.0,False,48.047542375003104,265277,001,2024-07-01_23h43.59.611,5-29,2024.1.4,None,2024-07-01 23h44.04.454226 +0900,
Images/Speaker1.jpg,Images/Speaker2.jpg,Images/Speaker3.jpg,Images/Speaker4.jpg,Audio/Speaker2_Per/P2-16-Per.wav,Speaker2,گوینده۲,1,60,140,35,,,,,67.1996667500025,,,,,,,,,,,,,,,,,,,,,,,,,,,,,,,,,,,,,,,,,48.06317754200063,0.0,False,48.06335562500317,265277,001,2024-07-01_23h43.59.611,5-29,2024.1.4,None,2024-07-01 23h44.04.454226 +0900,
Images/Speaker1.jpg,Images/Speaker2.jpg,Images/Speaker3.jpg,Images/Speaker4.jpg,Audio/Speaker3_Per/P3-6-Per.wav,Speaker3,گوینده۳,1,61,141,45,,,,,67.1996667500025,,,,,,,,,,,,,,,,,,,,,,,,,,,,,,,,,,,,,,,,,48.07915425000101,0.0,False,48.07938287500292,265277,001,2024-07-01_23h43.59.611,5-29,2024.1.4,None,2024-07-01 23h44.04.454226 +0900,
Images/Speaker1.jpg,Images/Speaker2.jpg,Images/Speaker3.jpg,Images/Speaker4.jpg,Audio/Speaker4_Per/P4-5-Per.wav,Speaker4,گوینده۴,1,62,142,64,,,,,67.1996667500025,,,,,,,,,,,,,,,,,,,,,,,,,,,,,,,,,,,,,,,,,48.09512441700281,0.0,False,48.09535566700288,265277,001,2024-07-01_23h43.59.611,5-29,2024.1.4,None,2024-07-01 23h44.04.454226 +0900,
Images/Speaker1.jpg,Images/Speaker2.jpg,Images/Speaker3.jpg,Images/Speaker4.jpg,Audio/Speaker4_Per/P4-16-Per.wav,Speaker4,گوینده۴,1,63,143,75,,,,,67.1996667500025,,,,,,,,,,,,,,,,,,,,,,,,,,,,,,,,,,,,,,,,,48.11197358300342,0.0,False,48.11218991700298,265277,001,2024-07-01_23h43.59.611,5-29,2024.1.4,None,2024-07-01 23h44.04.454226 +0900,
Images/Speaker1.jpg,Images/Speaker2.jpg,Images/Speaker3.jpg,Images/Speaker4.jpg,Audio/Speaker3_Per/P3-13-Per.wav,Speaker3,گوینده۳,1,64,144,52,,,,,67.1996667500025,,,,,,,,,,,,,,,,,,,,,,,,,,,,,,,,,,,,,,,,,48.128275083003246,0.0,False,48.12845400000151,265277,001,2024-07-01_23h43.59.611,5-29,2024.1.4,None,2024-07-01 23h44.04.454226 +0900,
Images/Speaker1.jpg,Images/Speaker2.jpg,Images/Speaker3.jpg,Images/Speaker4.jpg,Audio/Speaker4_Per/P4-14-Per.wav,Speaker4,گوینده۴,1,65,145,73,,,,,67.1996667500025,,,,,,,,,,,,,,,,,,,,,,,,,,,,,,,,,,,,,,,,,48.14428045800014,0.0,False,48.14448420800181,265277,001,2024-07-01_23h43.59.611,5-29,2024.1.4,None,2024-07-01 23h44.04.454226 +0900,
Images/Speaker1.jpg,Images/Speaker2.jpg,Images/Speaker3.jpg,Images/Speaker4.jpg,Audio/Speaker1_Per/P1-9-Per.wav,Speaker1,گوینده ۱,1,66,146,8,,,,,67.1996667500025,,,,,,,,,,,,,,,,,,,,,,,,,,,,,,,,,,,,,,,,,48.160175958000764,0.0,False,48.16035012500288,265277,001,2024-07-01_23h43.59.611,5-29,2024.1.4,None,2024-07-01 23h44.04.454226 +0900,
Images/Speaker1.jpg,Images/Speaker2.jpg,Images/Speaker3.jpg,Images/Speaker4.jpg,Audio/Speaker2_Per/P2-9-Per.wav,Speaker2,گوینده۲,1,67,147,28,,,,,67.1996667500025,,,,,,,,,,,,,,,,,,,,,,,,,,,,,,,,,,,,,,,,,48.17672529200354,0.0,False,48.17690275000132,265277,001,2024-07-01_23h43.59.611,5-29,2024.1.4,None,2024-07-01 23h44.04.454226 +0900,
Images/Speaker1.jpg,Images/Speaker2.jpg,Images/Speaker3.jpg,Images/Speaker4.jpg,Audio/Speaker4_Per/P4-8-Per.wav,Speaker4,گوینده۴,1,68,148,67,,,,,67.1996667500025,,,,,,,,,,,,,,,,,,,,,,,,,,,,,,,,,,,,,,,,,48.19268437500068,0.0,False,48.19288929200047,265277,001,2024-07-01_23h43.59.611,5-29,2024.1.4,None,2024-07-01 23h44.04.454226 +0900,
Images/Speaker1.jpg,Images/Speaker2.jpg,Images/Speaker3.jpg,Images/Speaker4.jpg,Audio/Speaker4_Per/P4-3-Per.wav,Speaker4,گوینده۴,1,69,149,62,,,,,67.1996667500025,,,,,,,,,,,,,,,,,,,,,,,,,,,,,,,,,,,,,,,,,48.20867233300305,0.0,False,48.208893375001935,265277,001,2024-07-01_23h43.59.611,5-29,2024.1.4,None,2024-07-01 23h44.04.454226 +0900,
Images/Speaker1.jpg,Images/Speaker2.jpg,Images/Speaker3.jpg,Images/Speaker4.jpg,Audio/Speaker4_Per/P4-7-Per.wav,Speaker4,گوینده۴,1,70,150,66,,,,,67.1996667500025,,,,,,,,,,,,,,,,,,,,,,,,,,,,,,,,,,,,,,,,,48.2246304170003,0.0,False,48.22482704200229,265277,001,2024-07-01_23h43.59.611,5-29,2024.1.4,None,2024-07-01 23h44.04.454226 +0900,
Images/Speaker1.jpg,Images/Speaker2.jpg,Images/Speaker3.jpg,Images/Speaker4.jpg,Audio/Speaker2_Per/P2-11-Per.wav,Speaker2,گوینده۲,1,71,151,30,,,,,67.1996667500025,,,,,,,,,,,,,,,,,,,,,,,,,,,,,,,,,,,,,,,,,48.24133954200079,0.0,False,48.24152191700341,265277,001,2024-07-01_23h43.59.611,5-29,2024.1.4,None,2024-07-01 23h44.04.454226 +0900,
Images/Speaker1.jpg,Images/Speaker2.jpg,Images/Speaker3.jpg,Images/Speaker4.jpg,Audio/Speaker4_Per/P4-2-Per.wav,Speaker4,گوینده۴,1,72,152,61,,,,,67.1996667500025,,,,,,,,,,,,,,,,,,,,,,,,,,,,,,,,,,,,,,,,,48.25736670800325,0.0,False,48.25754458300071,265277,001,2024-07-01_23h43.59.611,5-29,2024.1.4,None,2024-07-01 23h44.04.454226 +0900,
Images/Speaker1.jpg,Images/Speaker2.jpg,Images/Speaker3.jpg,Images/Speaker4.jpg,Audio/Speaker2_Per/P2-20-Per.wav,Speaker2,گوینده۲,1,73,153,39,,,,,67.1996667500025,,,,,,,,,,,,,,,,,,,,,,,,,,,,,,,,,,,,,,,,,48.27309108300324,0.0,False,48.2732627080004,265277,001,2024-07-01_23h43.59.611,5-29,2024.1.4,None,2024-07-01 23h44.04.454226 +0900,
Images/Speaker1.jpg,Images/Speaker2.jpg,Images/Speaker3.jpg,Images/Speaker4.jpg,Audio/Speaker3_Per/P3-5-Per.wav,Speaker3,گوینده۳,1,74,154,44,,,,,67.1996667500025,,,,,,,,,,,,,,,,,,,,,,,,,,,,,,,,,,,,,,,,,48.28902820800067,0.0,False,48.289196583002195,265277,001,2024-07-01_23h43.59.611,5-29,2024.1.4,None,2024-07-01 23h44.04.454226 +0900,
Images/Speaker1.jpg,Images/Speaker2.jpg,Images/Speaker3.jpg,Images/Speaker4.jpg,Audio/Speaker1_Per/P1-17-Per.wav,Speaker1,گوینده ۱,1,75,155,16,,,,,67.1996667500025,,,,,,,,,,,,,,,,,,,,,,,,,,,,,,,,,,,,,,,,,48.30560391700055,0.0,False,48.30577858300239,265277,001,2024-07-01_23h43.59.611,5-29,2024.1.4,None,2024-07-01 23h44.04.454226 +0900,
Images/Speaker1.jpg,Images/Speaker2.jpg,Images/Speaker3.jpg,Images/Speaker4.jpg,Audio/Speaker1_Per/P1-2-Per.wav,Speaker1,گوینده ۱,1,76,156,1,,,,,67.1996667500025,,,,,,,,,,,,,,,,,,,,,,,,,,,,,,,,,,,,,,,,,48.321512083002744,0.0,False,48.3217328330029,265277,001,2024-07-01_23h43.59.611,5-29,2024.1.4,None,2024-07-01 23h44.04.454226 +0900,
Images/Speaker1.jpg,Images/Speaker2.jpg,Images/Speaker3.jpg,Images/Speaker4.jpg,Audio/Speaker4_Per/P4-18-Per.wav,Speaker4,گوینده۴,1,77,157,77,,,,,67.1996667500025,,,,,,,,,,,,,,,,,,,,,,,,,,,,,,,,,,,,,,,,,48.33752962500148,0.0,False,48.3376894580033,265277,001,2024-07-01_23h43.59.611,5-29,2024.1.4,None,2024-07-01 23h44.04.454226 +0900,
Images/Speaker1.jpg,Images/Speaker2.jpg,Images/Speaker3.jpg,Images/Speaker4.jpg,Audio/Speaker3_Per/P3-19-Per.wav,Speaker3,گوینده۳,1,78,158,58,,,,,67.1996667500025,,,,,,,,,,,,,,,,,,,,,,,,,,,,,,,,,,,,,,,,,48.35347075000027,0.0,False,48.35363916700226,265277,001,2024-07-01_23h43.59.611,5-29,2024.1.4,None,2024-07-01 23h44.04.454226 +0900,
Images/Speaker1.jpg,Images/Speaker2.jpg,Images/Speaker3.jpg,Images/Speaker4.jpg,Audio/Speaker3_Per/P3-9-Per.wav,Speaker3,گوینده۳,1,79,159,48,,,,,67.1996667500025,,,,,,,,,,,,,,,,,,,,,,,,,,,,,,,,,,,,,,,,,48.36996625000029,0.0,False,48.37013675000344,265277,001,2024-07-01_23h43.59.611,5-29,2024.1.4,None,2024-07-01 23h44.04.454226 +0900,
Images/Speaker1.jpg,Images/Speaker2.jpg,Images/Speaker3.jpg,Images/Speaker4.jpg,Audio/Speaker2_Per/P2-19-Per.wav,Speaker2,گوینده۲,2,0,160,38,,,,,67.1996667500025,,,,,,,,,,,,,,,,,,,,,,,,,,,,,,,,,,,,,,,,,48.38580779200129,0.0,False,48.38597558300171,265277,001,2024-07-01_23h43.59.611,5-29,2024.1.4,None,2024-07-01 23h44.04.454226 +0900,
Images/Speaker1.jpg,Images/Speaker2.jpg,Images/Speaker3.jpg,Images/Speaker4.jpg,Audio/Speaker1_Per/P1-5-Per.wav,Speaker1,گوینده ۱,2,1,161,4,,,,,67.1996667500025,,,,,,,,,,,,,,,,,,,,,,,,,,,,,,,,,,,,,,,,,48.40170816700265,0.0,False,48.40190758300014,265277,001,2024-07-01_23h43.59.611,5-29,2024.1.4,None,2024-07-01 23h44.04.454226 +0900,
Images/Speaker1.jpg,Images/Speaker2.jpg,Images/Speaker3.jpg,Images/Speaker4.jpg,Audio/Speaker1_Per/P1-4-Per.wav,Speaker1,گوینده ۱,2,2,162,13,,,,,67.1996667500025,,,,,,,,,,,,,,,,,,,,,,,,,,,,,,,,,,,,,,,,,48.417676375000156,0.0,False,48.4178565000002,265277,001,2024-07-01_23h43.59.611,5-29,2024.1.4,None,2024-07-01 23h44.04.454226 +0900,
Images/Speaker1.jpg,Images/Speaker2.jpg,Images/Speaker3.jpg,Images/Speaker4.jpg,Audio/Speaker1_Per/P1-7-Per.wav,Speaker1,گوینده ۱,2,3,163,6,,,,,67.1996667500025,,,,,,,,,,,,,,,,,,,,,,,,,,,,,,,,,,,,,,,,,48.43415491700216,0.0,False,48.43437495800026,265277,001,2024-07-01_23h43.59.611,5-29,2024.1.4,None,2024-07-01 23h44.04.454226 +0900,
Images/Speaker1.jpg,Images/Speaker2.jpg,Images/Speaker3.jpg,Images/Speaker4.jpg,Audio/Speaker4_Per/P4-19-Per.wav,Speaker4,گوینده۴,2,4,164,78,,,,,67.1996667500025,,,,,,,,,,,,,,,,,,,,,,,,,,,,,,,,,,,,,,,,,48.45009670800209,0.0,False,48.45027829200262,265277,001,2024-07-01_23h43.59.611,5-29,2024.1.4,None,2024-07-01 23h44.04.454226 +0900,
Images/Speaker1.jpg,Images/Speaker2.jpg,Images/Speaker3.jpg,Images/Speaker4.jpg,Audio/Speaker2_Per/P2-10-Per.wav,Speaker2,گوینده۲,2,5,165,29,,,,,67.1996667500025,,,,,,,,,,,,,,,,,,,,,,,,,,,,,,,,,,,,,,,,,48.466000542000984,0.0,False,48.46621579200291,265277,001,2024-07-01_23h43.59.611,5-29,2024.1.4,None,2024-07-01 23h44.04.454226 +0900,
Images/Speaker1.jpg,Images/Speaker2.jpg,Images/Speaker3.jpg,Images/Speaker4.jpg,Audio/Speaker4_Per/P4-9-Per.wav,Speaker4,گوینده۴,2,6,166,68,,,,,67.1996667500025,,,,,,,,,,,,,,,,,,,,,,,,,,,,,,,,,,,,,,,,,48.48198629200124,0.0,False,48.48216420800236,265277,001,2024-07-01_23h43.59.611,5-29,2024.1.4,None,2024-07-01 23h44.04.454226 +0900,
Images/Speaker1.jpg,Images/Speaker2.jpg,Images/Speaker3.jpg,Images/Speaker4.jpg,Audio/Speaker1_Per/P1-3-Per.wav,Speaker1,گوینده ۱,2,7,167,2,,,,,67.1996667500025,,,,,,,,,,,,,,,,,,,,,,,,,,,,,,,,,,,,,,,,,48.498597667003196,0.0,False,48.49875845800125,265277,001,2024-07-01_23h43.59.611,5-29,2024.1.4,None,2024-07-01 23h44.04.454226 +0900,
Images/Speaker1.jpg,Images/Speaker2.jpg,Images/Speaker3.jpg,Images/Speaker4.jpg,Audio/Speaker1_Per/P1-12-Per.wav,Speaker1,گوینده ۱,2,8,168,11,,,,,67.1996667500025,,,,,,,,,,,,,,,,,,,,,,,,,,,,,,,,,,,,,,,,,48.51451979200283,0.0,False,48.51469300000099,265277,001,2024-07-01_23h43.59.611,5-29,2024.1.4,None,2024-07-01 23h44.04.454226 +0900,
Images/Speaker1.jpg,Images/Speaker2.jpg,Images/Speaker3.jpg,Images/Speaker4.jpg,Audio/Speaker4_Per/P4-11-Per.wav,Speaker4,گوینده۴,2,9,169,70,,,,,67.1996667500025,,,,,,,,,,,,,,,,,,,,,,,,,,,,,,,,,,,,,,,,,48.53045462500086,0.0,False,48.53063729200221,265277,001,2024-07-01_23h43.59.611,5-29,2024.1.4,None,2024-07-01 23h44.04.454226 +0900,
Images/Speaker1.jpg,Images/Speaker2.jpg,Images/Speaker3.jpg,Images/Speaker4.jpg,Audio/Speaker3_Per/P3-2-Per.wav,Speaker3,گوینده۳,2,10,170,41,,,,,67.1996667500025,,,,,,,,,,,,,,,,,,,,,,,,,,,,,,,,,,,,,,,,,48.54653254200093,0.0,False,48.54669908300275,265277,001,2024-07-01_23h43.59.611,5-29,2024.1.4,None,2024-07-01 23h44.04.454226 +0900,
Images/Speaker1.jpg,Images/Speaker2.jpg,Images/Speaker3.jpg,Images/Speaker4.jpg,Audio/Speaker2_Per/P2-14-Per.wav,Speaker2,گوینده۲,2,11,171,33,,,,,67.1996667500025,,,,,,,,,,,,,,,,,,,,,,,,,,,,,,,,,,,,,,,,,48.56313104200308,0.0,False,48.56328841700088,265277,001,2024-07-01_23h43.59.611,5-29,2024.1.4,None,2024-07-01 23h44.04.454226 +0900,
Images/Speaker1.jpg,Images/Speaker2.jpg,Images/Speaker3.jpg,Images/Speaker4.jpg,Audio/Speaker3_Per/P3-16-Per.wav,Speaker3,گوینده۳,2,12,172,55,,,,,67.1996667500025,,,,,,,,,,,,,,,,,,,,,,,,,,,,,,,,,,,,,,,,,48.57908495800075,0.0,False,48.57925262500066,265277,001,2024-07-01_23h43.59.611,5-29,2024.1.4,None,2024-07-01 23h44.04.454226 +0900,
Images/Speaker1.jpg,Images/Speaker2.jpg,Images/Speaker3.jpg,Images/Speaker4.jpg,Audio/Speaker3_Per/P3-10-Per.wav,Speaker3,گوینده۳,2,13,173,49,,,,,67.1996667500025,,,,,,,,,,,,,,,,,,,,,,,,,,,,,,,,,,,,,,,,,48.594953333002195,0.0,False,48.59510612500162,265277,001,2024-07-01_23h43.59.611,5-29,2024.1.4,None,2024-07-01 23h44.04.454226 +0900,
Images/Speaker1.jpg,Images/Speaker2.jpg,Images/Speaker3.jpg,Images/Speaker4.jpg,Audio/Speaker4_Per/P4-1-Per.wav,Speaker4,گوینده۴,2,14,174,60,,,,,67.1996667500025,,,,,,,,,,,,,,,,,,,,,,,,,,,,,,,,,,,,,,,,,48.610919875001855,0.0,False,48.61108300000342,265277,001,2024-07-01_23h43.59.611,5-29,2024.1.4,None,2024-07-01 23h44.04.454226 +0900,
Images/Speaker1.jpg,Images/Speaker2.jpg,Images/Speaker3.jpg,Images/Speaker4.jpg,Audio/Speaker2_Per/P2-11-Per.wav,Speaker2,گوینده۲,2,15,175,30,,,,,67.1996667500025,,,,,,,,,,,,,,,,,,,,,,,,,,,,,,,,,,,,,,,,,48.62747075000152,0.0,False,48.627674500003195,265277,001,2024-07-01_23h43.59.611,5-29,2024.1.4,None,2024-07-01 23h44.04.454226 +0900,
Images/Speaker1.jpg,Images/Speaker2.jpg,Images/Speaker3.jpg,Images/Speaker4.jpg,Audio/Speaker2_Per/P2-2-Per.wav,Speaker2,گوینده۲,2,16,176,21,,,,,67.1996667500025,,,,,,,,,,,,,,,,,,,,,,,,,,,,,,,,,,,,,,,,,48.64344012500078,0.0,False,48.643640125003,265277,001,2024-07-01_23h43.59.611,5-29,2024.1.4,None,2024-07-01 23h44.04.454226 +0900,
Images/Speaker1.jpg,Images/Speaker2.jpg,Images/Speaker3.jpg,Images/Speaker4.jpg,Audio/Speaker1_Per/P1-17-Per.wav,Speaker1,گوینده ۱,2,17,177,16,,,,,67.1996667500025,,,,,,,,,,,,,,,,,,,,,,,,,,,,,,,,,,,,,,,,,48.65940504200262,0.0,False,48.65956541700143,265277,001,2024-07-01_23h43.59.611,5-29,2024.1.4,None,2024-07-01 23h44.04.454226 +0900,
Images/Speaker1.jpg,Images/Speaker2.jpg,Images/Speaker3.jpg,Images/Speaker4.jpg,Audio/Speaker1_Per/P1-9-Per.wav,Speaker1,گوینده ۱,2,18,178,8,,,,,67.1996667500025,,,,,,,,,,,,,,,,,,,,,,,,,,,,,,,,,,,,,,,,,48.675333208000666,0.0,False,48.67554491700139,265277,001,2024-07-01_23h43.59.611,5-29,2024.1.4,None,2024-07-01 23h44.04.454226 +0900,
Images/Speaker1.jpg,Images/Speaker2.jpg,Images/Speaker3.jpg,Images/Speaker4.jpg,Audio/Speaker2_Per/P2-4-Per.wav,Speaker2,گوینده۲,2,19,179,23,,,,,67.1996667500025,,,,,,,,,,,,,,,,,,,,,,,,,,,,,,,,,,,,,,,,,48.69195241700072,0.0,False,48.692125208002835,265277,001,2024-07-01_23h43.59.611,5-29,2024.1.4,None,2024-07-01 23h44.04.454226 +0900,
Images/Speaker1.jpg,Images/Speaker2.jpg,Images/Speaker3.jpg,Images/Speaker4.jpg,Audio/Speaker4_Per/P4-14-Per.wav,Speaker4,گوینده۴,2,20,180,73,,,,,67.1996667500025,,,,,,,,,,,,,,,,,,,,,,,,,,,,,,,,,,,,,,,,,48.70789875000264,0.0,False,48.70806708300006,265277,001,2024-07-01_23h43.59.611,5-29,2024.1.4,None,2024-07-01 23h44.04.454226 +0900,
Images/Speaker1.jpg,Images/Speaker2.jpg,Images/Speaker3.jpg,Images/Speaker4.jpg,Audio/Speaker3_Per/P3-3-Per.wav,Speaker3,گوینده۳,2,21,181,42,,,,,67.1996667500025,,,,,,,,,,,,,,,,,,,,,,,,,,,,,,,,,,,,,,,,,48.723836583001685,0.0,False,48.72399637500348,265277,001,2024-07-01_23h43.59.611,5-29,2024.1.4,None,2024-07-01 23h44.04.454226 +0900,
Images/Speaker1.jpg,Images/Speaker2.jpg,Images/Speaker3.jpg,Images/Speaker4.jpg,Audio/Speaker2_Per/P2-18-Per.wav,Speaker2,گوینده۲,2,22,182,37,,,,,67.1996667500025,,,,,,,,,,,,,,,,,,,,,,,,,,,,,,,,,,,,,,,,,48.73974120800267,0.0,False,48.739913750003325,265277,001,2024-07-01_23h43.59.611,5-29,2024.1.4,None,2024-07-01 23h44.04.454226 +0900,
Images/Speaker1.jpg,Images/Speaker2.jpg,Images/Speaker3.jpg,Images/Speaker4.jpg,Audio/Speaker2_Per/P2-9-Per.wav,Speaker2,گوینده۲,2,23,183,28,,,,,67.1996667500025,,,,,,,,,,,,,,,,,,,,,,,,,,,,,,,,,,,,,,,,,48.75626066700352,0.0,False,48.75647491700147,265277,001,2024-07-01_23h43.59.611,5-29,2024.1.4,None,2024-07-01 23h44.04.454226 +0900,
Images/Speaker1.jpg,Images/Speaker2.jpg,Images/Speaker3.jpg,Images/Speaker4.jpg,Audio/Speaker3_Per/P3-6-Per.wav,Speaker3,گوینده۳,2,24,184,45,,,,,67.1996667500025,,,,,,,,,,,,,,,,,,,,,,,,,,,,,,,,,,,,,,,,,48.772218792000785,0.0,False,48.77237220800089,265277,001,2024-07-01_23h43.59.611,5-29,2024.1.4,None,2024-07-01 23h44.04.454226 +0900,
Images/Speaker1.jpg,Images/Speaker2.jpg,Images/Speaker3.jpg,Images/Speaker4.jpg,Audio/Speaker2_Per/P2-5-Per.wav,Speaker2,گوینده۲,2,25,185,24,,,,,67.1996667500025,,,,,,,,,,,,,,,,,,,,,,,,,,,,,,,,,,,,,,,,,48.78819050000311,0.0,False,48.78838670800178,265277,001,2024-07-01_23h43.59.611,5-29,2024.1.4,None,2024-07-01 23h44.04.454226 +0900,
Images/Speaker1.jpg,Images/Speaker2.jpg,Images/Speaker3.jpg,Images/Speaker4.jpg,Audio/Speaker1_Per/P1-19-Per.wav,Speaker1,گوینده ۱,2,26,186,18,,,,,67.1996667500025,,,,,,,,,,,,,,,,,,,,,,,,,,,,,,,,,,,,,,,,,48.80411695800285,0.0,False,48.80431170800148,265277,001,2024-07-01_23h43.59.611,5-29,2024.1.4,None,2024-07-01 23h44.04.454226 +0900,
Images/Speaker1.jpg,Images/Speaker2.jpg,Images/Speaker3.jpg,Images/Speaker4.jpg,Audio/Speaker3_Per/P3-12-Per.wav,Speaker3,گوینده۳,2,27,187,51,,,,,67.1996667500025,,,,,,,,,,,,,,,,,,,,,,,,,,,,,,,,,,,,,,,,,48.82063154200296,0.0,False,48.82079208300274,265277,001,2024-07-01_23h43.59.611,5-29,2024.1.4,None,2024-07-01 23h44.04.454226 +0900,
Images/Speaker1.jpg,Images/Speaker2.jpg,Images/Speaker3.jpg,Images/Speaker4.jpg,Audio/Speaker4_Per/P4-4-Per.wav,Speaker4,گوینده۴,2,28,188,63,,,,,67.1996667500025,,,,,,,,,,,,,,,,,,,,,,,,,,,,,,,,,,,,,,,,,48.83657266700175,0.0,False,48.83673266700134,265277,001,2024-07-01_23h43.59.611,5-29,2024.1.4,None,2024-07-01 23h44.04.454226 +0900,
Images/Speaker1.jpg,Images/Speaker2.jpg,Images/Speaker3.jpg,Images/Speaker4.jpg,Audio/Speaker2_Per/P2-7-Per.wav,Speaker2,گوینده۲,2,29,189,26,,,,,67.1996667500025,,,,,,,,,,,,,,,,,,,,,,,,,,,,,,,,,,,,,,,,,48.85245225000108,0.0,False,48.852618417000485,265277,001,2024-07-01_23h43.59.611,5-29,2024.1.4,None,2024-07-01 23h44.04.454226 +0900,
Images/Speaker1.jpg,Images/Speaker2.jpg,Images/Speaker3.jpg,Images/Speaker4.jpg,Audio/Speaker2_Per/P2-1-Per.wav,Speaker2,گوینده۲,2,30,190,20,,,,,67.1996667500025,,,,,,,,,,,,,,,,,,,,,,,,,,,,,,,,,,,,,,,,,48.86839095800315,0.0,False,48.86854979200143,265277,001,2024-07-01_23h43.59.611,5-29,2024.1.4,None,2024-07-01 23h44.04.454226 +0900,
Images/Speaker1.jpg,Images/Speaker2.jpg,Images/Speaker3.jpg,Images/Speaker4.jpg,Audio/Speaker1_Per/P1-15-Per.wav,Speaker1,گوینده ۱,2,31,191,14,,,,,67.1996667500025,,,,,,,,,,,,,,,,,,,,,,,,,,,,,,,,,,,,,,,,,48.88492729200152,0.0,False,48.88509545800116,265277,001,2024-07-01_23h43.59.611,5-29,2024.1.4,None,2024-07-01 23h44.04.454226 +0900,
Images/Speaker1.jpg,Images/Speaker2.jpg,Images/Speaker3.jpg,Images/Speaker4.jpg,Audio/Speaker4_Per/P4-17-Per.wav,Speaker4,گوینده۴,2,32,192,76,,,,,67.1996667500025,,,,,,,,,,,,,,,,,,,,,,,,,,,,,,,,,,,,,,,,,48.90085933299997,0.0,False,48.90103200000158,265277,001,2024-07-01_23h43.59.611,5-29,2024.1.4,None,2024-07-01 23h44.04.454226 +0900,
Images/Speaker1.jpg,Images/Speaker2.jpg,Images/Speaker3.jpg,Images/Speaker4.jpg,Audio/Speaker3_Per/P3-8-Per.wav,Speaker3,گوینده۳,2,33,193,47,,,,,67.1996667500025,,,,,,,,,,,,,,,,,,,,,,,,,,,,,,,,,,,,,,,,,48.916824500000075,0.0,False,48.91700525000124,265277,001,2024-07-01_23h43.59.611,5-29,2024.1.4,None,2024-07-01 23h44.04.454226 +0900,
Images/Speaker1.jpg,Images/Speaker2.jpg,Images/Speaker3.jpg,Images/Speaker4.jpg,Audio/Speaker3_Per/P3-20-Per.wav,Speaker3,گوینده۳,2,34,194,59,,,,,67.1996667500025,,,,,,,,,,,,,,,,,,,,,,,,,,,,,,,,,,,,,,,,,48.932825000003504,0.0,False,48.9330269580023,265277,001,2024-07-01_23h43.59.611,5-29,2024.1.4,None,2024-07-01 23h44.04.454226 +0900,
Images/Speaker1.jpg,Images/Speaker2.jpg,Images/Speaker3.jpg,Images/Speaker4.jpg,Audio/Speaker2_Per/P2-16-Per.wav,Speaker2,گوینده۲,2,35,195,35,,,,,67.1996667500025,,,,,,,,,,,,,,,,,,,,,,,,,,,,,,,,,,,,,,,,,48.949428083000385,0.0,False,48.94960991700282,265277,001,2024-07-01_23h43.59.611,5-29,2024.1.4,None,2024-07-01 23h44.04.454226 +0900,
Images/Speaker1.jpg,Images/Speaker2.jpg,Images/Speaker3.jpg,Images/Speaker4.jpg,Audio/Speaker4_Per/P4-10-Per.wav,Speaker4,گوینده۴,2,36,196,69,,,,,67.1996667500025,,,,,,,,,,,,,,,,,,,,,,,,,,,,,,,,,,,,,,,,,48.965349542002514,0.0,False,48.96552733300268,265277,001,2024-07-01_23h43.59.611,5-29,2024.1.4,None,2024-07-01 23h44.04.454226 +0900,
Images/Speaker1.jpg,Images/Speaker2.jpg,Images/Speaker3.jpg,Images/Speaker4.jpg,Audio/Speaker1_Per/P1-4-Per.wav,Speaker1,گوینده ۱,2,37,197,3,,,,,67.1996667500025,,,,,,,,,,,,,,,,,,,,,,,,,,,,,,,,,,,,,,,,,48.98133045800205,0.0,False,48.981556500002625,265277,001,2024-07-01_23h43.59.611,5-29,2024.1.4,None,2024-07-01 23h44.04.454226 +0900,
Images/Speaker1.jpg,Images/Speaker2.jpg,Images/Speaker3.jpg,Images/Speaker4.jpg,Audio/Speaker4_Per/P4-20-Per.wav,Speaker4,گوینده۴,2,38,198,79,,,,,67.1996667500025,,,,,,,,,,,,,,,,,,,,,,,,,,,,,,,,,,,,,,,,,48.99741262500174,0.0,False,48.99758579200352,265277,001,2024-07-01_23h43.59.611,5-29,2024.1.4,None,2024-07-01 23h44.04.454226 +0900,
Images/Speaker1.jpg,Images/Speaker2.jpg,Images/Speaker3.jpg,Images/Speaker4.jpg,Audio/Speaker3_Per/P3-13-Per.wav,Speaker3,گوینده۳,2,39,199,52,,,,,67.1996667500025,,,,,,,,,,,,,,,,,,,,,,,,,,,,,,,,,,,,,,,,,49.013962750002975,0.0,False,49.014128542003164,265277,001,2024-07-01_23h43.59.611,5-29,2024.1.4,None,2024-07-01 23h44.04.454226 +0900,
Images/Speaker1.jpg,Images/Speaker2.jpg,Images/Speaker3.jpg,Images/Speaker4.jpg,Audio/Speaker1_Per/P1-6-Per.wav,Speaker1,گوینده ۱,2,40,200,5,,,,,67.1996667500025,,,,,,,,,,,,,,,,,,,,,,,,,,,,,,,,,,,,,,,,,49.02985954200267,0.0,False,49.03004554200015,265277,001,2024-07-01_23h43.59.611,5-29,2024.1.4,None,2024-07-01 23h44.04.454226 +0900,
Images/Speaker1.jpg,Images/Speaker2.jpg,Images/Speaker3.jpg,Images/Speaker4.jpg,Audio/Speaker2_Per/P2-6-Per.wav,Speaker2,گوینده۲,2,41,201,25,,,,,67.1996667500025,,,,,,,,,,,,,,,,,,,,,,,,,,,,,,,,,,,,,,,,,49.04581320800207,0.0,False,49.04597687500063,265277,001,2024-07-01_23h43.59.611,5-29,2024.1.4,None,2024-07-01 23h44.04.454226 +0900,
Images/Speaker1.jpg,Images/Speaker2.jpg,Images/Speaker3.jpg,Images/Speaker4.jpg,Audio/Speaker4_Per/P4-13-Per.wav,Speaker4,گوینده۴,2,42,202,72,,,,,67.1996667500025,,,,,,,,,,,,,,,,,,,,,,,,,,,,,,,,,,,,,,,,,49.06169283300187,0.0,False,49.06187858300109,265277,001,2024-07-01_23h43.59.611,5-29,2024.1.4,None,2024-07-01 23h44.04.454226 +0900,
Images/Speaker1.jpg,Images/Speaker2.jpg,Images/Speaker3.jpg,Images/Speaker4.jpg,Audio/Speaker4_Per/P4-5-Per.wav,Speaker4,گوینده۴,2,43,203,64,,,,,67.1996667500025,,,,,,,,,,,,,,,,,,,,,,,,,,,,,,,,,,,,,,,,,49.078100042002916,0.0,False,49.07826416700118,265277,001,2024-07-01_23h43.59.611,5-29,2024.1.4,None,2024-07-01 23h44.04.454226 +0900,
Images/Speaker1.jpg,Images/Speaker2.jpg,Images/Speaker3.jpg,Images/Speaker4.jpg,Audio/Speaker1_Per/P1-10-Per.wav,Speaker1,گوینده ۱,2,44,204,9,,,,,67.1996667500025,,,,,,,,,,,,,,,,,,,,,,,,,,,,,,,,,,,,,,,,,49.094142875001126,0.0,False,49.09431366700301,265277,001,2024-07-01_23h43.59.611,5-29,2024.1.4,None,2024-07-01 23h44.04.454226 +0900,
Images/Speaker1.jpg,Images/Speaker2.jpg,Images/Speaker3.jpg,Images/Speaker4.jpg,Audio/Speaker3_Per/P3-1-Per.wav,Speaker3,گوینده۳,2,45,205,40,,,,,67.1996667500025,,,,,,,,,,,,,,,,,,,,,,,,,,,,,,,,,,,,,,,,,49.110090375001164,0.0,False,49.110243250001076,265277,001,2024-07-01_23h43.59.611,5-29,2024.1.4,None,2024-07-01 23h44.04.454226 +0900,
Images/Speaker1.jpg,Images/Speaker2.jpg,Images/Speaker3.jpg,Images/Speaker4.jpg,Audio/Speaker3_Per/P3-18-Per.wav,Speaker3,گوینده۳,2,46,206,57,,,,,67.1996667500025,,,,,,,,,,,,,,,,,,,,,,,,,,,,,,,,,,,,,,,,,49.126369958001305,0.0,False,49.12655366700346,265277,001,2024-07-01_23h43.59.611,5-29,2024.1.4,None,2024-07-01 23h44.04.454226 +0900,
Images/Speaker1.jpg,Images/Speaker2.jpg,Images/Speaker3.jpg,Images/Speaker4.jpg,Audio/Speaker1_Per/P1-8-Per.wav,Speaker1,گوینده ۱,2,47,207,7,,,,,67.1996667500025,,,,,,,,,,,,,,,,,,,,,,,,,,,,,,,,,,,,,,,,,49.142981625001994,0.0,False,49.14316129200233,265277,001,2024-07-01_23h43.59.611,5-29,2024.1.4,None,2024-07-01 23h44.04.454226 +0900,
Images/Speaker1.jpg,Images/Speaker2.jpg,Images/Speaker3.jpg,Images/Speaker4.jpg,Audio/Speaker1_Per/P1-11-Per.wav,Speaker1,گوینده ۱,2,48,208,10,,,,,67.1996667500025,,,,,,,,,,,,,,,,,,,,,,,,,,,,,,,,,,,,,,,,,49.15896858300039,0.0,False,49.159155250003096,265277,001,2024-07-01_23h43.59.611,5-29,2024.1.4,None,2024-07-01 23h44.04.454226 +0900,
Images/Speaker1.jpg,Images/Speaker2.jpg,Images/Speaker3.jpg,Images/Speaker4.jpg,Audio/Speaker1_Per/P1-1-Per.wav,Speaker1,گوینده ۱,2,49,209,0,,,,,67.1996667500025,,,,,,,,,,,,,,,,,,,,,,,,,,,,,,,,,,,,,,,,,49.17493670800104,0.0,False,49.175140333001764,265277,001,2024-07-01_23h43.59.611,5-29,2024.1.4,None,2024-07-01 23h44.04.454226 +0900,
Images/Speaker1.jpg,Images/Speaker2.jpg,Images/Speaker3.jpg,Images/Speaker4.jpg,Audio/Speaker1_Per/P1-18-Per.wav,Speaker1,گوینده ۱,2,50,210,17,,,,,67.1996667500025,,,,,,,,,,,,,,,,,,,,,,,,,,,,,,,,,,,,,,,,,49.19082462500228,0.0,False,49.19099891700171,265277,001,2024-07-01_23h43.59.611,5-29,2024.1.4,None,2024-07-01 23h44.04.454226 +0900,
Images/Speaker1.jpg,Images/Speaker2.jpg,Images/Speaker3.jpg,Images/Speaker4.jpg,Audio/Speaker4_Per/P4-7-Per.wav,Speaker4,گوینده۴,2,51,211,66,,,,,67.1996667500025,,,,,,,,,,,,,,,,,,,,,,,,,,,,,,,,,,,,,,,,,49.207416625002224,0.0,False,49.207588917000976,265277,001,2024-07-01_23h43.59.611,5-29,2024.1.4,None,2024-07-01 23h44.04.454226 +0900,
Images/Speaker1.jpg,Images/Speaker2.jpg,Images/Speaker3.jpg,Images/Speaker4.jpg,Audio/Speaker3_Per/P3-11-Per.wav,Speaker3,گوینده۳,2,52,212,50,,,,,67.1996667500025,,,,,,,,,,,,,,,,,,,,,,,,,,,,,,,,,,,,,,,,,49.223285458003375,0.0,False,49.223464625003544,265277,001,2024-07-01_23h43.59.611,5-29,2024.1.4,None,2024-07-01 23h44.04.454226 +0900,
Images/Speaker1.jpg,Images/Speaker2.jpg,Images/Speaker3.jpg,Images/Speaker4.jpg,Audio/Speaker1_Per/P1-16-Per.wav,Speaker1,گوینده ۱,2,53,213,15,,,,,67.1996667500025,,,,,,,,,,,,,,,,,,,,,,,,,,,,,,,,,,,,,,,,,49.23915641700296,0.0,False,49.23939466700176,265277,001,2024-07-01_23h43.59.611,5-29,2024.1.4,None,2024-07-01 23h44.04.454226 +0900,
Images/Speaker1.jpg,Images/Speaker2.jpg,Images/Speaker3.jpg,Images/Speaker4.jpg,Audio/Speaker3_Per/P3-5-Per.wav,Speaker3,گوینده۳,2,54,214,44,,,,,67.1996667500025,,,,,,,,,,,,,,,,,,,,,,,,,,,,,,,,,,,,,,,,,49.25510937500076,0.0,False,49.255292208003084,265277,001,2024-07-01_23h43.59.611,5-29,2024.1.4,None,2024-07-01 23h44.04.454226 +0900,
Images/Speaker1.jpg,Images/Speaker2.jpg,Images/Speaker3.jpg,Images/Speaker4.jpg,Audio/Speaker4_Per/P4-12-Per.wav,Speaker4,گوینده۴,2,55,215,71,,,,,67.1996667500025,,,,,,,,,,,,,,,,,,,,,,,,,,,,,,,,,,,,,,,,,49.27169233300083,0.0,False,49.27186950000032,265277,001,2024-07-01_23h43.59.611,5-29,2024.1.4,None,2024-07-01 23h44.04.454226 +0900,
Images/Speaker1.jpg,Images/Speaker2.jpg,Images/Speaker3.jpg,Images/Speaker4.jpg,Audio/Speaker4_Per/P4-3-Per.wav,Speaker4,گوینده۴,2,56,216,62,,,,,67.1996667500025,,,,,,,,,,,,,,,,,,,,,,,,,,,,,,,,,,,,,,,,,49.28759800000262,0.0,False,49.28776537500016,265277,001,2024-07-01_23h43.59.611,5-29,2024.1.4,None,2024-07-01 23h44.04.454226 +0900,
Images/Speaker1.jpg,Images/Speaker2.jpg,Images/Speaker3.jpg,Images/Speaker4.jpg,Audio/Speaker2_Per/P2-8-Per.wav,Speaker2,گوینده۲,2,57,217,27,,,,,67.1996667500025,,,,,,,,,,,,,,,,,,,,,,,,,,,,,,,,,,,,,,,,,49.303527875003056,0.0,False,49.30369804200018,265277,001,2024-07-01_23h43.59.611,5-29,2024.1.4,None,2024-07-01 23h44.04.454226 +0900,
Images/Speaker1.jpg,Images/Speaker2.jpg,Images/Speaker3.jpg,Images/Speaker4.jpg,Audio/Speaker3_Per/P3-17-Per.wav,Speaker3,گوینده۳,2,58,218,56,,,,,67.1996667500025,,,,,,,,,,,,,,,,,,,,,,,,,,,,,,,,,,,,,,,,,49.319452667001315,0.0,False,49.31962420800119,265277,001,2024-07-01_23h43.59.611,5-29,2024.1.4,None,2024-07-01 23h44.04.454226 +0900,
Images/Speaker1.jpg,Images/Speaker2.jpg,Images/Speaker3.jpg,Images/Speaker4.jpg,Audio/Speaker3_Per/P3-15-Per.wav,Speaker3,گوینده۳,2,59,219,54,,,,,67.1996667500025,,,,,,,,,,,,,,,,,,,,,,,,,,,,,,,,,,,,,,,,,49.3361360830022,0.0,False,49.336313375002646,265277,001,2024-07-01_23h43.59.611,5-29,2024.1.4,None,2024-07-01 23h44.04.454226 +0900,
Images/Speaker1.jpg,Images/Speaker2.jpg,Images/Speaker3.jpg,Images/Speaker4.jpg,Audio/Speaker1_Per/P1-20-Per.wav,Speaker1,گوینده ۱,2,60,220,19,,,,,67.1996667500025,,,,,,,,,,,,,,,,,,,,,,,,,,,,,,,,,,,,,,,,,49.35191258300256,0.0,False,49.35207654200349,265277,001,2024-07-01_23h43.59.611,5-29,2024.1.4,None,2024-07-01 23h44.04.454226 +0900,
Images/Speaker1.jpg,Images/Speaker2.jpg,Images/Speaker3.jpg,Images/Speaker4.jpg,Audio/Speaker2_Per/P2-20-Per.wav,Speaker2,گوینده۲,2,61,221,39,,,,,67.1996667500025,,,,,,,,,,,,,,,,,,,,,,,,,,,,,,,,,,,,,,,,,49.36782450000101,0.0,False,49.36799208299999,265277,001,2024-07-01_23h43.59.611,5-29,2024.1.4,None,2024-07-01 23h44.04.454226 +0900,
Images/Speaker1.jpg,Images/Speaker2.jpg,Images/Speaker3.jpg,Images/Speaker4.jpg,Audio/Speaker4_Per/P4-18-Per.wav,Speaker4,گوینده۴,2,62,222,77,,,,,67.1996667500025,,,,,,,,,,,,,,,,,,,,,,,,,,,,,,,,,,,,,,,,,49.383774125002674,0.0,False,49.38393370800259,265277,001,2024-07-01_23h43.59.611,5-29,2024.1.4,None,2024-07-01 23h44.04.454226 +0900,
Images/Speaker1.jpg,Images/Speaker2.jpg,Images/Speaker3.jpg,Images/Speaker4.jpg,Audio/Speaker4_Per/P4-6-Per.wav,Speaker4,گوینده۴,2,63,223,65,,,,,67.1996667500025,,,,,,,,,,,,,,,,,,,,,,,,,,,,,,,,,,,,,,,,,49.40041412500068,0.0,False,49.400582917001884,265277,001,2024-07-01_23h43.59.611,5-29,2024.1.4,None,2024-07-01 23h44.04.454226 +0900,
Images/Speaker1.jpg,Images/Speaker2.jpg,Images/Speaker3.jpg,Images/Speaker4.jpg,Audio/Speaker4_Per/P4-2-Per.wav,Speaker4,گوینده۴,2,64,224,61,,,,,67.1996667500025,,,,,,,,,,,,,,,,,,,,,,,,,,,,,,,,,,,,,,,,,49.41631808300008,0.0,False,49.41649625000355,265277,001,2024-07-01_23h43.59.611,5-29,2024.1.4,None,2024-07-01 23h44.04.454226 +0900,
Images/Speaker1.jpg,Images/Speaker2.jpg,Images/Speaker3.jpg,Images/Speaker4.jpg,Audio/Speaker2_Per/P2-3-Per.wav,Speaker2,گوینده۲,2,65,225,22,,,,,67.1996667500025,,,,,,,,,,,,,,,,,,,,,,,,,,,,,,,,,,,,,,,,,49.43219320800199,0.0,False,49.43234954200307,265277,001,2024-07-01_23h43.59.611,5-29,2024.1.4,None,2024-07-01 23h44.04.454226 +0900,
Images/Speaker1.jpg,Images/Speaker2.jpg,Images/Speaker3.jpg,Images/Speaker4.jpg,Audio/Speaker3_Per/P3-4-Per.wav,Speaker3,گوینده۳,2,66,226,43,,,,,67.1996667500025,,,,,,,,,,,,,,,,,,,,,,,,,,,,,,,,,,,,,,,,,49.44811550000304,0.0,False,49.44827612500012,265277,001,2024-07-01_23h43.59.611,5-29,2024.1.4,None,2024-07-01 23h44.04.454226 +0900,
Images/Speaker1.jpg,Images/Speaker2.jpg,Images/Speaker3.jpg,Images/Speaker4.jpg,Audio/Speaker1_Per/P1-13-Per.wav,Speaker1,گوینده ۱,2,67,227,12,,,,,67.1996667500025,,,,,,,,,,,,,,,,,,,,,,,,,,,,,,,,,,,,,,,,,49.464766000000964,0.0,False,49.46493954200196,265277,001,2024-07-01_23h43.59.611,5-29,2024.1.4,None,2024-07-01 23h44.04.454226 +0900,
Images/Speaker1.jpg,Images/Speaker2.jpg,Images/Speaker3.jpg,Images/Speaker4.jpg,Audio/Speaker1_Per/P1-2-Per.wav,Speaker1,گوینده ۱,2,68,228,1,,,,,67.1996667500025,,,,,,,,,,,,,,,,,,,,,,,,,,,,,,,,,,,,,,,,,49.4806432080004,0.0,False,49.48080229200059,265277,001,2024-07-01_23h43.59.611,5-29,2024.1.4,None,2024-07-01 23h44.04.454226 +0900,
Images/Speaker1.jpg,Images/Speaker2.jpg,Images/Speaker3.jpg,Images/Speaker4.jpg,Audio/Speaker2_Per/P2-17-Per.wav,Speaker2,گوینده۲,2,69,229,36,,,,,67.1996667500025,,,,,,,,,,,,,,,,,,,,,,,,,,,,,,,,,,,,,,,,,49.49658012500004,0.0,False,49.496740542002954,265277,001,2024-07-01_23h43.59.611,5-29,2024.1.4,None,2024-07-01 23h44.04.454226 +0900,
Images/Speaker1.jpg,Images/Speaker2.jpg,Images/Speaker3.jpg,Images/Speaker4.jpg,Audio/Speaker2_Per/P2-13-Per.wav,Speaker2,گوینده۲,2,70,230,32,,,,,67.1996667500025,,,,,,,,,,,,,,,,,,,,,,,,,,,,,,,,,,,,,,,,,49.51252750000276,0.0,False,49.512690833002125,265277,001,2024-07-01_23h43.59.611,5-29,2024.1.4,None,2024-07-01 23h44.04.454226 +0900,
Images/Speaker1.jpg,Images/Speaker2.jpg,Images/Speaker3.jpg,Images/Speaker4.jpg,Audio/Speaker2_Per/P2-12-Per.wav,Speaker2,گوینده۲,2,71,231,31,,,,,67.1996667500025,,,,,,,,,,,,,,,,,,,,,,,,,,,,,,,,,,,,,,,,,49.529085542002576,0.0,False,49.52925341700029,265277,001,2024-07-01_23h43.59.611,5-29,2024.1.4,None,2024-07-01 23h44.04.454226 +0900,
Images/Speaker1.jpg,Images/Speaker2.jpg,Images/Speaker3.jpg,Images/Speaker4.jpg,Audio/Speaker4_Per/P4-8-Per.wav,Speaker4,گوینده۴,2,72,232,67,,,,,67.1996667500025,,,,,,,,,,,,,,,,,,,,,,,,,,,,,,,,,,,,,,,,,49.545124000000214,0.0,False,49.545316542000364,265277,001,2024-07-01_23h43.59.611,5-29,2024.1.4,None,2024-07-01 23h44.04.454226 +0900,
Images/Speaker1.jpg,Images/Speaker2.jpg,Images/Speaker3.jpg,Images/Speaker4.jpg,Audio/Speaker4_Per/P4-15-Per.wav,Speaker4,گوینده۴,2,73,233,74,,,,,67.1996667500025,,,,,,,,,,,,,,,,,,,,,,,,,,,,,,,,,,,,,,,,,49.56121950000306,0.0,False,49.56141954200211,265277,001,2024-07-01_23h43.59.611,5-29,2024.1.4,None,2024-07-01 23h44.04.454226 +0900,
Images/Speaker1.jpg,Images/Speaker2.jpg,Images/Speaker3.jpg,Images/Speaker4.jpg,Audio/Speaker3_Per/P3-7-Per.wav,Speaker3,گوینده۳,2,74,234,46,,,,,67.1996667500025,,,,,,,,,,,,,,,,,,,,,,,,,,,,,,,,,,,,,,,,,49.577017958003125,0.0,False,49.57723883300059,265277,001,2024-07-01_23h43.59.611,5-29,2024.1.4,None,2024-07-01 23h44.04.454226 +0900,
Images/Speaker1.jpg,Images/Speaker2.jpg,Images/Speaker3.jpg,Images/Speaker4.jpg,Audio/Speaker3_Per/P3-9-Per.wav,Speaker3,گوینده۳,2,75,235,48,,,,,67.1996667500025,,,,,,,,,,,,,,,,,,,,,,,,,,,,,,,,,,,,,,,,,49.59350737500063,0.0,False,49.59368641700348,265277,001,2024-07-01_23h43.59.611,5-29,2024.1.4,None,2024-07-01 23h44.04.454226 +0900,
Images/Speaker1.jpg,Images/Speaker2.jpg,Images/Speaker3.jpg,Images/Speaker4.jpg,Audio/Speaker2_Per/P2-15-Per.wav,Speaker2,گوینده۲,2,76,236,34,,,,,67.1996667500025,,,,,,,,,,,,,,,,,,,,,,,,,,,,,,,,,,,,,,,,,49.60944762500003,0.0,False,49.6096192920013,265277,001,2024-07-01_23h43.59.611,5-29,2024.1.4,None,2024-07-01 23h44.04.454226 +0900,
Images/Speaker1.jpg,Images/Speaker2.jpg,Images/Speaker3.jpg,Images/Speaker4.jpg,Audio/Speaker3_Per/P3-14-Per.wav,Speaker3,گوینده۳,2,77,237,53,,,,,67.1996667500025,,,,,,,,,,,,,,,,,,,,,,,,,,,,,,,,,,,,,,,,,49.62543933300185,0.0,False,49.625617250003415,265277,001,2024-07-01_23h43.59.611,5-29,2024.1.4,None,2024-07-01 23h44.04.454226 +0900,
Images/Speaker1.jpg,Images/Speaker2.jpg,Images/Speaker3.jpg,Images/Speaker4.jpg,Audio/Speaker4_Per/P4-16-Per.wav,Speaker4,گوینده۴,2,78,238,75,,,,,67.1996667500025,,,,,,,,,,,,,,,,,,,,,,,,,,,,,,,,,,,,,,,,,49.641355500003556,0.0,False,49.64153025000269,265277,001,2024-07-01_23h43.59.611,5-29,2024.1.4,None,2024-07-01 23h44.04.454226 +0900,
Images/Speaker1.jpg,Images/Speaker2.jpg,Images/Speaker3.jpg,Images/Speaker4.jpg,Audio/Speaker3_Per/P3-19-Per.wav,Speaker3,گوینده۳,2,79,239,58,,,,,67.1996667500025,,,,,,,,,,,,,,,,,,,,,,,,,,,,,,,,,,,,,,,,,49.657908417000726,0.0,False,49.658142833002785,265277,001,2024-07-01_23h43.59.611,5-29,2024.1.4,None,2024-07-01 23h44.04.454226 +0900,
Images/Speaker1.jpg,Images/Speaker2.jpg,Images/Speaker3.jpg,Images/Speaker4.jpg,Audio/Speaker1_Per/P1-13-Per.wav,Speaker1,گوینده ۱,3,0,240,12,,,,,67.1996667500025,,,,,,,,,,,,,,,,,,,,,,,,,,,,,,,,,,,,,,,,,49.67377925000255,0.0,False,49.67399504200148,265277,001,2024-07-01_23h43.59.611,5-29,2024.1.4,None,2024-07-01 23h44.04.454226 +0900,
Images/Speaker1.jpg,Images/Speaker2.jpg,Images/Speaker3.jpg,Images/Speaker4.jpg,Audio/Speaker2_Per/P2-17-Per.wav,Speaker2,گوینده۲,3,1,241,36,,,,,67.1996667500025,,,,,,,,,,,,,,,,,,,,,,,,,,,,,,,,,,,,,,,,,49.68975508300355,0.0,False,49.689929042000585,265277,001,2024-07-01_23h43.59.611,5-29,2024.1.4,None,2024-07-01 23h44.04.454226 +0900,
Images/Speaker1.jpg,Images/Speaker2.jpg,Images/Speaker3.jpg,Images/Speaker4.jpg,Audio/Speaker1_Per/P1-19-Per.wav,Speaker1,گوینده ۱,3,2,242,18,,,,,67.1996667500025,,,,,,,,,,,,,,,,,,,,,,,,,,,,,,,,,,,,,,,,,49.70574170800319,0.0,False,49.70590591700238,265277,001,2024-07-01_23h43.59.611,5-29,2024.1.4,None,2024-07-01 23h44.04.454226 +0900,
Images/Speaker1.jpg,Images/Speaker2.jpg,Images/Speaker3.jpg,Images/Speaker4.jpg,Audio/Speaker4_Per/P4-2-Per.wav,Speaker4,گوینده۴,3,3,243,61,,,,,67.1996667500025,,,,,,,,,,,,,,,,,,,,,,,,,,,,,,,,,,,,,,,,,49.72239370800162,0.0,False,49.72257533300217,265277,001,2024-07-01_23h43.59.611,5-29,2024.1.4,None,2024-07-01 23h44.04.454226 +0900,
Images/Speaker1.jpg,Images/Speaker2.jpg,Images/Speaker3.jpg,Images/Speaker4.jpg,Audio/Speaker1_Per/P1-2-Per.wav,Speaker1,گوینده ۱,3,4,244,1,,,,,67.1996667500025,,,,,,,,,,,,,,,,,,,,,,,,,,,,,,,,,,,,,,,,,49.738148333002755,0.0,False,49.738321917000576,265277,001,2024-07-01_23h43.59.611,5-29,2024.1.4,None,2024-07-01 23h44.04.454226 +0900,
Images/Speaker1.jpg,Images/Speaker2.jpg,Images/Speaker3.jpg,Images/Speaker4.jpg,Audio/Speaker3_Per/P3-9-Per.wav,Speaker3,گوینده۳,3,5,245,48,,,,,67.1996667500025,,,,,,,,,,,,,,,,,,,,,,,,,,,,,,,,,,,,,,,,,49.75413125000341,0.0,False,49.75430708300337,265277,001,2024-07-01_23h43.59.611,5-29,2024.1.4,None,2024-07-01 23h44.04.454226 +0900,
Images/Speaker1.jpg,Images/Speaker2.jpg,Images/Speaker3.jpg,Images/Speaker4.jpg,Audio/Speaker4_Per/P4-16-Per.wav,Speaker4,گوینده۴,3,6,246,75,,,,,67.1996667500025,,,,,,,,,,,,,,,,,,,,,,,,,,,,,,,,,,,,,,,,,49.770173208002234,0.0,False,49.77035408300071,265277,001,2024-07-01_23h43.59.611,5-29,2024.1.4,None,2024-07-01 23h44.04.454226 +0900,
Images/Speaker1.jpg,Images/Speaker2.jpg,Images/Speaker3.jpg,Images/Speaker4.jpg,Audio/Speaker3_Per/P3-12-Per.wav,Speaker3,گوینده۳,3,7,247,51,,,,,67.1996667500025,,,,,,,,,,,,,,,,,,,,,,,,,,,,,,,,,,,,,,,,,49.78656695800237,0.0,False,49.78673529200023,265277,001,2024-07-01_23h43.59.611,5-29,2024.1.4,None,2024-07-01 23h44.04.454226 +0900,
Images/Speaker1.jpg,Images/Speaker2.jpg,Images/Speaker3.jpg,Images/Speaker4.jpg,Audio/Speaker4_Per/P4-7-Per.wav,Speaker4,گوینده۴,3,8,248,66,,,,,67.1996667500025,,,,,,,,,,,,,,,,,,,,,,,,,,,,,,,,,,,,,,,,,49.80249058300251,0.0,False,49.80268050000086,265277,001,2024-07-01_23h43.59.611,5-29,2024.1.4,None,2024-07-01 23h44.04.454226 +0900,
Images/Speaker1.jpg,Images/Speaker2.jpg,Images/Speaker3.jpg,Images/Speaker4.jpg,Audio/Speaker2_Per/P2-18-Per.wav,Speaker2,گوینده۲,3,9,249,37,,,,,67.1996667500025,,,,,,,,,,,,,,,,,,,,,,,,,,,,,,,,,,,,,,,,,49.81851029200334,0.0,False,49.8186827080026,265277,001,2024-07-01_23h43.59.611,5-29,2024.1.4,None,2024-07-01 23h44.04.454226 +0900,
Images/Speaker1.jpg,Images/Speaker2.jpg,Images/Speaker3.jpg,Images/Speaker4.jpg,Audio/Speaker3_Per/P3-4-Per.wav,Speaker3,گوینده۳,3,10,250,43,,,,,67.1996667500025,,,,,,,,,,,,,,,,,,,,,,,,,,,,,,,,,,,,,,,,,49.83434191700144,0.0,False,49.83454016700125,265277,001,2024-07-01_23h43.59.611,5-29,2024.1.4,None,2024-07-01 23h44.04.454226 +0900,
Images/Speaker1.jpg,Images/Speaker2.jpg,Images/Speaker3.jpg,Images/Speaker4.jpg,Audio/Speaker1_Per/P1-20-Per.wav,Speaker1,گوینده ۱,3,11,251,19,,,,,67.1996667500025,,,,,,,,,,,,,,,,,,,,,,,,,,,,,,,,,,,,,,,,,49.85096450000128,0.0,False,49.85112704200219,265277,001,2024-07-01_23h43.59.611,5-29,2024.1.4,None,2024-07-01 23h44.04.454226 +0900,
Images/Speaker1.jpg,Images/Speaker2.jpg,Images/Speaker3.jpg,Images/Speaker4.jpg,Audio/Speaker2_Per/P2-9-Per.wav,Speaker2,گوینده۲,3,12,252,28,,,,,67.1996667500025,,,,,,,,,,,,,,,,,,,,,,,,,,,,,,,,,,,,,,,,,49.8668862500017,0.0,False,49.86705312500271,265277,001,2024-07-01_23h43.59.611,5-29,2024.1.4,None,2024-07-01 23h44.04.454226 +0900,
Images/Speaker1.jpg,Images/Speaker2.jpg,Images/Speaker3.jpg,Images/Speaker4.jpg,Audio/Speaker3_Per/P3-6-Per.wav,Speaker3,گوینده۳,3,13,253,45,,,,,67.1996667500025,,,,,,,,,,,,,,,,,,,,,,,,,,,,,,,,,,,,,,,,,49.88279208300082,0.0,False,49.88295312500122,265277,001,2024-07-01_23h43.59.611,5-29,2024.1.4,None,2024-07-01 23h44.04.454226 +0900,
Images/Speaker1.jpg,Images/Speaker2.jpg,Images/Speaker3.jpg,Images/Speaker4.jpg,Audio/Speaker4_Per/P4-15-Per.wav,Speaker4,گوینده۴,3,14,254,74,,,,,67.1996667500025,,,,,,,,,,,,,,,,,,,,,,,,,,,,,,,,,,,,,,,,,49.898721708002995,0.0,False,49.89888350000183,265277,001,2024-07-01_23h43.59.611,5-29,2024.1.4,None,2024-07-01 23h44.04.454226 +0900,
Images/Speaker1.jpg,Images/Speaker2.jpg,Images/Speaker3.jpg,Images/Speaker4.jpg,Audio/Speaker1_Per/P1-4-Per.wav,Speaker1,گوینده ۱,3,15,255,13,,,,,67.1996667500025,,,,,,,,,,,,,,,,,,,,,,,,,,,,,,,,,,,,,,,,,49.915368958001636,0.0,False,49.91557450000255,265277,001,2024-07-01_23h43.59.611,5-29,2024.1.4,None,2024-07-01 23h44.04.454226 +0900,
Images/Speaker1.jpg,Images/Speaker2.jpg,Images/Speaker3.jpg,Images/Speaker4.jpg,Audio/Speaker3_Per/P3-5-Per.wav,Speaker3,گوینده۳,3,16,256,44,,,,,67.1996667500025,,,,,,,,,,,,,,,,,,,,,,,,,,,,,,,,,,,,,,,,,49.931258792003064,0.0,False,49.93145487500078,265277,001,2024-07-01_23h43.59.611,5-29,2024.1.4,None,2024-07-01 23h44.04.454226 +0900,
Images/Speaker1.jpg,Images/Speaker2.jpg,Images/Speaker3.jpg,Images/Speaker4.jpg,Audio/Speaker2_Per/P2-5-Per.wav,Speaker2,گوینده۲,3,17,257,24,,,,,67.1996667500025,,,,,,,,,,,,,,,,,,,,,,,,,,,,,,,,,,,,,,,,,49.94716641700143,0.0,False,49.947360500002105,265277,001,2024-07-01_23h43.59.611,5-29,2024.1.4,None,2024-07-01 23h44.04.454226 +0900,
Images/Speaker1.jpg,Images/Speaker2.jpg,Images/Speaker3.jpg,Images/Speaker4.jpg,Audio/Speaker4_Per/P4-14-Per.wav,Speaker4,گوینده۴,3,18,258,73,,,,,67.1996667500025,,,,,,,,,,,,,,,,,,,,,,,,,,,,,,,,,,,,,,,,,49.963090792,0.0,False,49.96325158300169,265277,001,2024-07-01_23h43.59.611,5-29,2024.1.4,None,2024-07-01 23h44.04.454226 +0900,
Images/Speaker1.jpg,Images/Speaker2.jpg,Images/Speaker3.jpg,Images/Speaker4.jpg,Audio/Speaker1_Per/P1-9-Per.wav,Speaker1,گوینده ۱,3,19,259,8,,,,,67.1996667500025,,,,,,,,,,,,,,,,,,,,,,,,,,,,,,,,,,,,,,,,,49.97972300000038,0.0,False,49.97990129200116,265277,001,2024-07-01_23h43.59.611,5-29,2024.1.4,None,2024-07-01 23h44.04.454226 +0900,
Images/Speaker1.jpg,Images/Speaker2.jpg,Images/Speaker3.jpg,Images/Speaker4.jpg,Audio/Speaker4_Per/P4-9-Per.wav,Speaker4,گوینده۴,3,20,260,68,,,,,67.1996667500025,,,,,,,,,,,,,,,,,,,,,,,,,,,,,,,,,,,,,,,,,49.995606208001846,0.0,False,49.99578370800009,265277,001,2024-07-01_23h43.59.611,5-29,2024.1.4,None,2024-07-01 23h44.04.454226 +0900,
Images/Speaker1.jpg,Images/Speaker2.jpg,Images/Speaker3.jpg,Images/Speaker4.jpg,Audio/Speaker4_Per/P4-12-Per.wav,Speaker4,گوینده۴,3,21,261,71,,,,,67.1996667500025,,,,,,,,,,,,,,,,,,,,,,,,,,,,,,,,,,,,,,,,,50.011599083001784,0.0,False,50.01176525000119,265277,001,2024-07-01_23h43.59.611,5-29,2024.1.4,None,2024-07-01 23h44.04.454226 +0900,
Images/Speaker1.jpg,Images/Speaker2.jpg,Images/Speaker3.jpg,Images/Speaker4.jpg,Audio/Speaker3_Per/P3-18-Per.wav,Speaker3,گوینده۳,3,22,262,57,,,,,67.1996667500025,,,,,,,,,,,,,,,,,,,,,,,,,,,,,,,,,,,,,,,,,50.02755900000193,0.0,False,50.027787583003374,265277,001,2024-07-01_23h43.59.611,5-29,2024.1.4,None,2024-07-01 23h44.04.454226 +0900,
Images/Speaker1.jpg,Images/Speaker2.jpg,Images/Speaker3.jpg,Images/Speaker4.jpg,Audio/Speaker3_Per/P3-16-Per.wav,Speaker3,گوینده۳,3,23,263,55,,,,,67.1996667500025,,,,,,,,,,,,,,,,,,,,,,,,,,,,,,,,,,,,,,,,,50.044161250003526,0.0,False,50.04438629200013,265277,001,2024-07-01_23h43.59.611,5-29,2024.1.4,None,2024-07-01 23h44.04.454226 +0900,
Images/Speaker1.jpg,Images/Speaker2.jpg,Images/Speaker3.jpg,Images/Speaker4.jpg,Audio/Speaker1_Per/P1-10-Per.wav,Speaker1,گوینده ۱,3,24,264,9,,,,,67.1996667500025,,,,,,,,,,,,,,,,,,,,,,,,,,,,,,,,,,,,,,,,,50.0599601670001,0.0,False,50.06013741700008,265277,001,2024-07-01_23h43.59.611,5-29,2024.1.4,None,2024-07-01 23h44.04.454226 +0900,
Images/Speaker1.jpg,Images/Speaker2.jpg,Images/Speaker3.jpg,Images/Speaker4.jpg,Audio/Speaker4_Per/P4-18-Per.wav,Speaker4,گوینده۴,3,25,265,77,,,,,67.1996667500025,,,,,,,,,,,,,,,,,,,,,,,,,,,,,,,,,,,,,,,,,50.07584612500068,0.0,False,50.07601337500091,265277,001,2024-07-01_23h43.59.611,5-29,2024.1.4,None,2024-07-01 23h44.04.454226 +0900,
Images/Speaker1.jpg,Images/Speaker2.jpg,Images/Speaker3.jpg,Images/Speaker4.jpg,Audio/Speaker2_Per/P2-13-Per.wav,Speaker2,گوینده۲,3,26,266,32,,,,,67.1996667500025,,,,,,,,,,,,,,,,,,,,,,,,,,,,,,,,,,,,,,,,,50.09159420800279,0.0,False,50.091763500000525,265277,001,2024-07-01_23h43.59.611,5-29,2024.1.4,None,2024-07-01 23h44.04.454226 +0900,
Images/Speaker1.jpg,Images/Speaker2.jpg,Images/Speaker3.jpg,Images/Speaker4.jpg,Audio/Speaker2_Per/P2-15-Per.wav,Speaker2,گوینده۲,3,27,267,34,,,,,67.1996667500025,,,,,,,,,,,,,,,,,,,,,,,,,,,,,,,,,,,,,,,,,50.10818179200214,0.0,False,50.108382000002166,265277,001,2024-07-01_23h43.59.611,5-29,2024.1.4,None,2024-07-01 23h44.04.454226 +0900,
Images/Speaker1.jpg,Images/Speaker2.jpg,Images/Speaker3.jpg,Images/Speaker4.jpg,Audio/Speaker1_Per/P1-5-Per.wav,Speaker1,گوینده ۱,3,28,268,4,,,,,67.1996667500025,,,,,,,,,,,,,,,,,,,,,,,,,,,,,,,,,,,,,,,,,50.12441341700105,0.0,False,50.124577042002784,265277,001,2024-07-01_23h43.59.611,5-29,2024.1.4,None,2024-07-01 23h44.04.454226 +0900,
Images/Speaker1.jpg,Images/Speaker2.jpg,Images/Speaker3.jpg,Images/Speaker4.jpg,Audio/Speaker4_Per/P4-17-Per.wav,Speaker4,گوینده۴,3,29,269,76,,,,,67.1996667500025,,,,,,,,,,,,,,,,,,,,,,,,,,,,,,,,,,,,,,,,,50.14055308300158,0.0,False,50.140735083001346,265277,001,2024-07-01_23h43.59.611,5-29,2024.1.4,None,2024-07-01 23h44.04.454226 +0900,
Images/Speaker1.jpg,Images/Speaker2.jpg,Images/Speaker3.jpg,Images/Speaker4.jpg,Audio/Speaker1_Per/P1-6-Per.wav,Speaker1,گوینده ۱,3,30,270,5,,,,,67.1996667500025,,,,,,,,,,,,,,,,,,,,,,,,,,,,,,,,,,,,,,,,,50.15647641700343,0.0,False,50.15663658300036,265277,001,2024-07-01_23h43.59.611,5-29,2024.1.4,None,2024-07-01 23h44.04.454226 +0900,
Images/Speaker1.jpg,Images/Speaker2.jpg,Images/Speaker3.jpg,Images/Speaker4.jpg,Audio/Speaker4_Per/P4-5-Per.wav,Speaker4,گوینده۴,3,31,271,64,,,,,67.1996667500025,,,,,,,,,,,,,,,,,,,,,,,,,,,,,,,,,,,,,,,,,50.173006333003286,0.0,False,50.17322866700124,265277,001,2024-07-01_23h43.59.611,5-29,2024.1.4,None,2024-07-01 23h44.04.454226 +0900,
Images/Speaker1.jpg,Images/Speaker2.jpg,Images/Speaker3.jpg,Images/Speaker4.jpg,Audio/Speaker4_Per/P4-13-Per.wav,Speaker4,گوینده۴,3,32,272,72,,,,,67.1996667500025,,,,,,,,,,,,,,,,,,,,,,,,,,,,,,,,,,,,,,,,,50.18894716700015,0.0,False,50.18914854200193,265277,001,2024-07-01_23h43.59.611,5-29,2024.1.4,None,2024-07-01 23h44.04.454226 +0900,
Images/Speaker1.jpg,Images/Speaker2.jpg,Images/Speaker3.jpg,Images/Speaker4.jpg,Audio/Speaker1_Per/P1-8-Per.wav,Speaker1,گوینده ۱,3,33,273,7,,,,,67.1996667500025,,,,,,,,,,,,,,,,,,,,,,,,,,,,,,,,,,,,,,,,,50.20485133300099,0.0,False,50.20503475000078,265277,001,2024-07-01_23h43.59.611,5-29,2024.1.4,None,2024-07-01 23h44.04.454226 +0900,
Images/Speaker1.jpg,Images/Speaker2.jpg,Images/Speaker3.jpg,Images/Speaker4.jpg,Audio/Speaker2_Per/P2-10-Per.wav,Speaker2,گوینده۲,3,34,274,29,,,,,67.1996667500025,,,,,,,,,,,,,,,,,,,,,,,,,,,,,,,,,,,,,,,,,50.22068700000091,0.0,False,50.22087170800296,265277,001,2024-07-01_23h43.59.611,5-29,2024.1.4,None,2024-07-01 23h44.04.454226 +0900,
Images/Speaker1.jpg,Images/Speaker2.jpg,Images/Speaker3.jpg,Images/Speaker4.jpg,Audio/Speaker3_Per/P3-13-Per.wav,Speaker3,گوینده۳,3,35,275,52,,,,,67.1996667500025,,,,,,,,,,,,,,,,,,,,,,,,,,,,,,,,,,,,,,,,,50.23730308300219,0.0,False,50.23747683300098,265277,001,2024-07-01_23h43.59.611,5-29,2024.1.4,None,2024-07-01 23h44.04.454226 +0900,
Images/Speaker1.jpg,Images/Speaker2.jpg,Images/Speaker3.jpg,Images/Speaker4.jpg,Audio/Speaker4_Per/P4-19-Per.wav,Speaker4,گوینده۴,3,36,276,78,,,,,67.1996667500025,,,,,,,,,,,,,,,,,,,,,,,,,,,,,,,,,,,,,,,,,50.30393150000236,0.0,False,50.30419708300178,265277,001,2024-07-01_23h43.59.611,5-29,2024.1.4,None,2024-07-01 23h44.04.454226 +0900,
Images/Speaker1.jpg,Images/Speaker2.jpg,Images/Speaker3.jpg,Images/Speaker4.jpg,Audio/Speaker2_Per/P2-16-Per.wav,Speaker2,گوینده۲,3,37,277,35,,,,,67.1996667500025,,,,,,,,,,,,,,,,,,,,,,,,,,,,,,,,,,,,,,,,,50.32057162500132,0.0,False,50.320748833000835,265277,001,2024-07-01_23h43.59.611,5-29,2024.1.4,None,2024-07-01 23h44.04.454226 +0900,
Images/Speaker1.jpg,Images/Speaker2.jpg,Images/Speaker3.jpg,Images/Speaker4.jpg,Audio/Speaker1_Per/P1-16-Per.wav,Speaker1,گوینده ۱,3,38,278,15,,,,,67.1996667500025,,,,,,,,,,,,,,,,,,,,,,,,,,,,,,,,,,,,,,,,,50.336705458001234,0.0,False,50.33690029200079,265277,001,2024-07-01_23h43.59.611,5-29,2024.1.4,None,2024-07-01 23h44.04.454226 +0900,
Images/Speaker1.jpg,Images/Speaker2.jpg,Images/Speaker3.jpg,Images/Speaker4.jpg,Audio/Speaker4_Per/P4-8-Per.wav,Speaker4,گوینده۴,3,39,279,67,,,,,67.1996667500025,,,,,,,,,,,,,,,,,,,,,,,,,,,,,,,,,,,,,,,,,50.35327866700027,0.0,False,50.35345291700287,265277,001,2024-07-01_23h43.59.611,5-29,2024.1.4,None,2024-07-01 23h44.04.454226 +0900,
Images/Speaker1.jpg,Images/Speaker2.jpg,Images/Speaker3.jpg,Images/Speaker4.jpg,Audio/Speaker2_Per/P2-8-Per.wav,Speaker2,گوینده۲,3,40,280,27,,,,,67.1996667500025,,,,,,,,,,,,,,,,,,,,,,,,,,,,,,,,,,,,,,,,,50.369297250003,0.0,False,50.369507042003534,265277,001,2024-07-01_23h43.59.611,5-29,2024.1.4,None,2024-07-01 23h44.04.454226 +0900,
Images/Speaker1.jpg,Images/Speaker2.jpg,Images/Speaker3.jpg,Images/Speaker4.jpg,Audio/Speaker2_Per/P2-4-Per.wav,Speaker2,گوینده۲,3,41,281,23,,,,,67.1996667500025,,,,,,,,,,,,,,,,,,,,,,,,,,,,,,,,,,,,,,,,,50.385158292003325,0.0,False,50.38534450000225,265277,001,2024-07-01_23h43.59.611,5-29,2024.1.4,None,2024-07-01 23h44.04.454226 +0900,
Images/Speaker1.jpg,Images/Speaker2.jpg,Images/Speaker3.jpg,Images/Speaker4.jpg,Audio/Speaker3_Per/P3-15-Per.wav,Speaker3,گوینده۳,3,42,282,54,,,,,67.1996667500025,,,,,,,,,,,,,,,,,,,,,,,,,,,,,,,,,,,,,,,,,50.401643667002645,0.0,False,50.40182433300288,265277,001,2024-07-01_23h43.59.611,5-29,2024.1.4,None,2024-07-01 23h44.04.454226 +0900,
Images/Speaker1.jpg,Images/Speaker2.jpg,Images/Speaker3.jpg,Images/Speaker4.jpg,Audio/Speaker1_Per/P1-15-Per.wav,Speaker1,گوینده ۱,3,43,283,14,,,,,67.1996667500025,,,,,,,,,,,,,,,,,,,,,,,,,,,,,,,,,,,,,,,,,50.41776304200175,0.0,False,50.417944000000716,265277,001,2024-07-01_23h43.59.611,5-29,2024.1.4,None,2024-07-01 23h44.04.454226 +0900,
Images/Speaker1.jpg,Images/Speaker2.jpg,Images/Speaker3.jpg,Images/Speaker4.jpg,Audio/Speaker4_Per/P4-4-Per.wav,Speaker4,گوینده۴,3,44,284,63,,,,,67.1996667500025,,,,,,,,,,,,,,,,,,,,,,,,,,,,,,,,,,,,,,,,,50.43371066700274,0.0,False,50.433875500002614,265277,001,2024-07-01_23h43.59.611,5-29,2024.1.4,None,2024-07-01 23h44.04.454226 +0900,
Images/Speaker1.jpg,Images/Speaker2.jpg,Images/Speaker3.jpg,Images/Speaker4.jpg,Audio/Speaker4_Per/P4-1-Per.wav,Speaker4,گوینده۴,3,45,285,60,,,,,67.1996667500025,,,,,,,,,,,,,,,,,,,,,,,,,,,,,,,,,,,,,,,,,50.449845208000625,0.0,False,50.45003420800276,265277,001,2024-07-01_23h43.59.611,5-29,2024.1.4,None,2024-07-01 23h44.04.454226 +0900,
Images/Speaker1.jpg,Images/Speaker2.jpg,Images/Speaker3.jpg,Images/Speaker4.jpg,Audio/Speaker3_Per/P3-19-Per.wav,Speaker3,گوینده۳,3,46,286,58,,,,,67.1996667500025,,,,,,,,,,,,,,,,,,,,,,,,,,,,,,,,,,,,,,,,,50.46639266700004,0.0,False,50.46657575000063,265277,001,2024-07-01_23h43.59.611,5-29,2024.1.4,None,2024-07-01 23h44.04.454226 +0900,
Images/Speaker1.jpg,Images/Speaker2.jpg,Images/Speaker3.jpg,Images/Speaker4.jpg,Audio/Speaker2_Per/P2-6-Per.wav,Speaker2,گوینده۲,3,47,287,25,,,,,67.1996667500025,,,,,,,,,,,,,,,,,,,,,,,,,,,,,,,,,,,,,,,,,50.482422125001904,0.0,False,50.48258750000241,265277,001,2024-07-01_23h43.59.611,5-29,2024.1.4,None,2024-07-01 23h44.04.454226 +0900,
Images/Speaker1.jpg,Images/Speaker2.jpg,Images/Speaker3.jpg,Images/Speaker4.jpg,Audio/Speaker3_Per/P3-3-Per.wav,Speaker3,گوینده۳,3,48,288,42,,,,,67.1996667500025,,,,,,,,,,,,,,,,,,,,,,,,,,,,,,,,,,,,,,,,,50.49845262500094,0.0,False,50.49864270800026,265277,001,2024-07-01_23h43.59.611,5-29,2024.1.4,None,2024-07-01 23h44.04.454226 +0900,
