SpeakerImage1,SpeakerImage2,SpeakerImage3,SpeakerImage4,TrainingSound,EnglishCorrectAnswer,PersianCorrectAnswer,repeated_TrainingLoopGroup1.thisRepN,repeated_TrainingLoopGroup1.thisTrialN,repeated_TrainingLoopGroup1.thisN,repeated_TrainingLoopGroup1.thisIndex,TrainingLoopGroup1.thisRepN,TrainingLoopGroup1.thisTrialN,TrainingLoopGroup1.thisN,TrainingLoopGroup1.thisIndex,thisRow.t,notes,trial.started,trial.stopped,GroupSelection.started,GroupInstructions.started,key_resp.started,GroupSelection.stopped,key_resp.keys,key_resp.rt,key_resp.duration,HeadphoneCheck.started,text_13.started,mouse.started,checkbox.started,HeadphoneCheck.stopped,mouse.x,mouse.y,mouse.leftButton,mouse.midButton,mouse.rightButton,mouse.time,mouse.clicked_name,Headphone_Used,Introduction.started,text_2.started,image.started,sound_8.started,text_4.started,text_2.stopped,image.stopped,text_4.stopped,image_7.started,sound_10.started,text_5.started,image_7.stopped,text_5.stopped,image_8.started,sound_12.started,text_6.started,image_8.stopped,text_6.stopped,image_9.started,sound_14.started,text_7.started,image_9.stopped,text_7.stopped,Introduction.stopped,Instructions.started,InstructionText.started,InstructionText.stopped,Instructions.stopped,InitializeExperiment.started,InitializeExperiment.stopped,TrainingGroup1.started,image_1.started,image_2.started,image_3.started,image_4.started,sound1.started,Instruction.started,ResponseKey.started,SessionNumberText.started,TrainingGroup1.stopped,feedbackText,correct_responses_group1,total_trials_group1,ResponseKey.keys,ResponseKey.rt,ResponseKey.duration,FeedbackRoutine1.started,FeedbackText.started,FeedbackRoutine1.stopped,Break.started,Break.stopped,FeedbackText.stopped,participant,session,date,expName,psychopyVersion,frameRate,expStart,
,,,,,,,,,,,,,,,,,0.008522416996129323,0.00889637499494711,,,,,,,,,,,,,,,,,,,,,,,,,,,,,,,,,,,,,,,,,,,,,,,,,,,,,,,,,,,,,,,,,,,,,,,,,277656,001,2024-08-02_12h56.07.901,5-34 ready-monolingual persian speaker,2024.1.5,None,2024-08-02 12h56.12.215010 +0900,
,,,,,,,,,,,,,,,,,,,0.008913416997529566,0.0133094999982859,0.0133094999982859,1.4855268749961397,1,1.4307297089981148,None,,,,,,,,,,,,,,,,,,,,,,,,,,,,,,,,,,,,,,,,,,,,,,,,,,,,,,,,,,,,,,,,,,277656,001,2024-08-02_12h56.07.901,5-34 ready-monolingual persian speaker,2024.1.5,None,2024-08-02 12h56.12.215010 +0900,
,,,,,,,,,,,,,,,,,,,,,,,,,,1.485566208997625,1.4963248339990969,0.00020733400015160441,1.4963248339990969,2.406572416999552,[-0.12321792260692464],[0.2637474541751528],[1],[0],[0],[0.9204161669986206],[],False,,,,,,,,,,,,,,,,,,,,,,,,,,,,,,,,,,,,,,,,,,,,,,,,,,,,,277656,001,2024-08-02_12h56.07.901,5-34 ready-monolingual persian speaker,2024.1.5,None,2024-08-02 12h56.12.215010 +0900,
,,,,,,,,,,,,,,,,,,,,,,,,,,,,,,,,,,,,,,,2.4067098339946824,2.4519326249937876,7.395516041993687,7.405841625663258,7.395516041993687,7.443129833998682,15.384534333999909,15.384534333999909,15.404768833999697,15.41661725066321,15.404768833999697,23.394736750000448,23.394736750000448,23.394736750000448,23.40665091666257,23.394736750000448,31.39691733399377,31.39691733399377,31.39691733399377,31.40798550066053,31.39691733399377,39.392786583994166,39.392786583994166,39.38006662499538,,,,,,,,,,,,,,,,,,,,,,,,,,,,,277656,001,2024-08-02_12h56.07.901,5-34 ready-monolingual persian speaker,2024.1.5,None,2024-08-02 12h56.12.215010 +0900,
,,,,,,,,,,,,,,,,,,,,,,,,,,,,,,,,,,,,,,,,,,,,,,,,,,,,,,,,,,,,,,,39.38009704199794,39.39681179199397,40.46925312499661,40.38537408399861,,,,,,,,,,,,,,,,,,,,,,,,,277656,001,2024-08-02_12h56.07.901,5-34 ready-monolingual persian speaker,2024.1.5,None,2024-08-02 12h56.12.215010 +0900,
,,,,,,,,,,,,,,,,,,,,,,,,,,,,,,,,,,,,,,,,,,,,,,,,,,,,,,,,,,,,,,,,,,,40.385388999995484,40.385546208999585,,,,,,,,,,,,,,,,,,,,,,,277656,001,2024-08-02_12h56.07.901,5-34 ready-monolingual persian speaker,2024.1.5,None,2024-08-02 12h56.12.215010 +0900,
Images/Speaker1.jpg,Images/Speaker2.jpg,Images/Speaker3.jpg,Images/Speaker4.jpg,Audio/Speaker3_Per/P3-12-Per.wav,Speaker3,گوینده۳,0,0,0,76,0,0,0,51,40.46925312499661,,,,,,,,,,,,,,,,,,,,,,,,,,,,,,,,,,,,,,,,,,,,,,,,,,,,,,40.439059208998515,40.46925312499661,40.46925312499661,40.46925312499661,40.46925312499661,40.46850204233245,40.46925312499661,40.46925312499661,40.46925312499661,41.99732341699564,نادرست! پاسخ صحیح گوینده۳ است,0,1,1,1.520505916007096,None,42.00173024999822,42.01501437499974,44.00796304200048,44.00797583399981,44.008156124997186,,277656,001,2024-08-02_12h56.07.901,5-34 ready-monolingual persian speaker,2024.1.5,None,2024-08-02 12h56.12.215010 +0900,
Images/Speaker1.jpg,Images/Speaker2.jpg,Images/Speaker3.jpg,Images/Speaker4.jpg,Audio/Speaker1_Per/P1-16-Per.wav,Speaker1,گوینده ۱,0,0,0,76,0,1,1,15,44.03478820899909,,,,,,,,,,,,,,,,,,,,,,,,,,,,,,,,,,,,,,,,,,,,,,,,,,,,,,44.008380458995816,44.03478820899909,44.03478820899909,44.03478820899909,44.03478820899909,44.04125479233383,44.03478820899909,44.03478820899909,44.03478820899909,46.27072041700012,نادرست! پاسخ صحیح گوینده ۱ است,0,2,2,2.234562249999726,None,46.274552374998166,46.286480874994595,48.27274100000068,48.272752958997444,48.272897124996234,48.29981137499999,277656,001,2024-08-02_12h56.07.901,5-34 ready-monolingual persian speaker,2024.1.5,None,2024-08-02 12h56.12.215010 +0900,
Images/Speaker1.jpg,Images/Speaker2.jpg,Images/Speaker3.jpg,Images/Speaker4.jpg,Audio/Speaker3_Per/P3-20-Per.wav,Speaker3,گوینده۳,0,0,0,76,0,2,2,59,48.29981137499999,,,,,,,,,,,,,,,,,,,,,,,,,,,,,,,,,,,,,,,,,,,,,,,,,,,,,,48.27310645899706,48.29981137499999,48.29981137499999,48.29981137499999,48.29981137499999,48.30582725033358,48.29981137499999,48.29981137499999,48.29981137499999,48.54996033399948,نادرست! پاسخ صحیح گوینده۳ است,0,3,2,0.2366203339988715,None,48.553945958999975,48.56309354199766,50.55076287499833,50.55077429199446,50.5509311249989,50.577722666996124,277656,001,2024-08-02_12h56.07.901,5-34 ready-monolingual persian speaker,2024.1.5,None,2024-08-02 12h56.12.215010 +0900,
Images/Speaker1.jpg,Images/Speaker2.jpg,Images/Speaker3.jpg,Images/Speaker4.jpg,Audio/Speaker3_Per/P3-9-Per.wav,Speaker3,گوینده۳,0,0,0,76,0,3,3,48,50.577722666996124,,,,,,,,,,,,,,,,,,,,,,,,,,,,,,,,,,,,,,,,,,,,,,,,,,,,,,50.55111799999577,50.577722666996124,50.577722666996124,50.577722666996124,50.577722666996124,50.583889917332755,50.577722666996124,50.577722666996124,50.577722666996124,50.88194329199905,نادرست! پاسخ صحیح گوینده۳ است,0,4,1,0.29290783400210785,None,50.88611249999667,50.89763058399694,52.88030354199873,52.880314333997376,52.88048649999837,52.90536512499966,277656,001,2024-08-02_12h56.07.901,5-34 ready-monolingual persian speaker,2024.1.5,None,2024-08-02 12h56.12.215010 +0900,
Images/Speaker1.jpg,Images/Speaker2.jpg,Images/Speaker3.jpg,Images/Speaker4.jpg,Audio/Speaker3_Per/P3-17-Per.wav,Speaker3,گوینده۳,0,0,0,76,0,4,4,56,52.90536512499966,,,,,,,,,,,,,,,,,,,,,,,,,,,,,,,,,,,,,,,,,,,,,,,,,,,,,,52.88069191699469,52.90536512499966,52.90536512499966,52.90536512499966,52.90536512499966,52.91339495832702,52.90536512499966,52.90536512499966,52.90536512499966,53.090885958998115,نادرست! پاسخ صحیح گوینده۳ است,0,5,1,0.1762140420032665,None,53.09489024999493,53.10661629199603,55.1012435839948,55.10125516699918,55.101472666996415,,277656,001,2024-08-02_12h56.07.901,5-34 ready-monolingual persian speaker,2024.1.5,None,2024-08-02 12h56.12.215010 +0900,
Images/Speaker1.jpg,Images/Speaker2.jpg,Images/Speaker3.jpg,Images/Speaker4.jpg,Audio/Speaker4_Per/P4-18-Per.wav,Speaker4,گوینده۴,0,0,0,76,0,5,5,77,55.125819499997306,,,,,,,,,,,,,,,,,,,,,,,,,,,,,,,,,,,,,,,,,,,,,,,,,,,,,,55.10164612499648,55.125819499997306,55.125819499997306,55.125819499997306,55.125819499997306,55.1345413753302,55.125819499997306,55.125819499997306,55.125819499997306,55.204264333995525,نادرست! پاسخ صحیح گوینده۴ است,0,6,1,0.07386295900505502,None,55.20828279199486,55.21959070899902,57.2066084170001,57.20661820899841,57.20695437499671,57.23481491699931,277656,001,2024-08-02_12h56.07.901,5-34 ready-monolingual persian speaker,2024.1.5,None,2024-08-02 12h56.12.215010 +0900,
Images/Speaker1.jpg,Images/Speaker2.jpg,Images/Speaker3.jpg,Images/Speaker4.jpg,Audio/Speaker1_Per/P1-6-Per.wav,Speaker1,گوینده ۱,0,0,0,76,0,6,6,5,57.23481491699931,,,,,,,,,,,,,,,,,,,,,,,,,,,,,,,,,,,,,,,,,,,,,,,,,,,,,,57.20743529199535,57.23481491699931,57.23481491699931,57.23481491699931,57.23481491699931,57.239685917331855,57.23481491699931,57.23481491699931,57.23481491699931,57.29621162499825,صحیح است,1,7,1,0.056732709002972115,None,57.3005772089964,57.3110247500008,59.29992395899899,59.29993704200024,59.30008291699778,59.324265833995014,277656,001,2024-08-02_12h56.07.901,5-34 ready-monolingual persian speaker,2024.1.5,None,2024-08-02 12h56.12.215010 +0900,
Images/Speaker1.jpg,Images/Speaker2.jpg,Images/Speaker3.jpg,Images/Speaker4.jpg,Audio/Speaker4_Per/P4-3-Per.wav,Speaker4,گوینده۴,0,0,0,76,0,7,7,62,59.324265833995014,,,,,,,,,,,,,,,,,,,,,,,,,,,,,,,,,,,,,,,,,,,,,,,,,,,,,,59.30027254199376,59.324265833995014,59.324265833995014,59.324265833995014,59.324265833995014,59.333057833333925,59.324265833995014,59.324265833995014,59.324265833995014,59.4951057090002,نادرست! پاسخ صحیح گوینده۴ است,1,8,1,0.1695364580009482,None,59.498939083998266,59.5099377919978,61.49945945899526,61.49946829200053,61.4996455839937,,277656,001,2024-08-02_12h56.07.901,5-34 ready-monolingual persian speaker,2024.1.5,None,2024-08-02 12h56.12.215010 +0900,
Images/Speaker1.jpg,Images/Speaker2.jpg,Images/Speaker3.jpg,Images/Speaker4.jpg,Audio/Speaker4_Per/P4-15-Per.wav,Speaker4,گوینده۴,0,0,0,76,0,8,8,74,61.52518699999928,,,,,,,,,,,,,,,,,,,,,,,,,,,,,,,,,,,,,,,,,,,,,,,,,,,,,,61.49984179199964,61.52518699999928,61.52518699999928,61.52518699999928,61.52518699999928,61.53275775032719,61.52518699999928,61.52518699999928,61.52518699999928,61.68242904199724,نادرست! پاسخ صحیح گوینده۴ است,1,9,1,0.1507892500012531,None,61.686140166995756,61.69672399999399,63.68317616699642,63.68318445899786,63.6833471669961,63.70761758399749,277656,001,2024-08-02_12h56.07.901,5-34 ready-monolingual persian speaker,2024.1.5,None,2024-08-02 12h56.12.215010 +0900,
Images/Speaker1.jpg,Images/Speaker2.jpg,Images/Speaker3.jpg,Images/Speaker4.jpg,Audio/Speaker1_Per/P1-3-Per.wav,Speaker1,گوینده ۱,0,0,0,76,0,9,9,2,63.70761758399749,,,,,,,,,,,,,,,,,,,,,,,,,,,,,,,,,,,,,,,,,,,,,,,,,,,,,,63.68353366699739,63.70761758399749,63.70761758399749,63.70761758399749,63.70761758399749,63.716266875330376,63.70761758399749,63.70761758399749,63.70761758399749,64.09299354199902,صحیح است,2,10,1,0.3792661670013331,None,64.09678629200062,64.10699712499627,66.09020012499968,66.09020949999831,66.09035216699704,66.11517029199604,277656,001,2024-08-02_12h56.07.901,5-34 ready-monolingual persian speaker,2024.1.5,None,2024-08-02 12h56.12.215010 +0900,
Images/Speaker1.jpg,Images/Speaker2.jpg,Images/Speaker3.jpg,Images/Speaker4.jpg,Audio/Speaker3_Per/P3-5-Per.wav,Speaker3,گوینده۳,0,0,0,76,0,10,10,44,66.11517029199604,,,,,,,,,,,,,,,,,,,,,,,,,,,,,,,,,,,,,,,,,,,,,,,,,,,,,,66.09051275000093,66.11517029199604,66.11517029199604,66.11517029199604,66.11517029199604,66.1233159583285,66.11517029199604,66.11517029199604,66.11517029199604,66.18334787499771,نادرست! پاسخ صحیح گوینده۳ است,2,11,1,0.06304720900516259,None,66.18709141699946,66.19825416700041,68.1826982499988,68.18273199999385,68.18301545899885,68.20823620900046,277656,001,2024-08-02_12h56.07.901,5-34 ready-monolingual persian speaker,2024.1.5,None,2024-08-02 12h56.12.215010 +0900,
Images/Speaker1.jpg,Images/Speaker2.jpg,Images/Speaker3.jpg,Images/Speaker4.jpg,Audio/Speaker3_Per/P3-3-Per.wav,Speaker3,گوینده۳,0,0,0,76,0,11,11,42,68.20823620900046,,,,,,,,,,,,,,,,,,,,,,,,,,,,,,,,,,,,,,,,,,,,,,,,,,,,,,68.18358425000042,68.20823620900046,68.20823620900046,68.20823620900046,68.20823620900046,68.21520166732856,68.20823620900046,68.20823620900046,68.20823620900046,68.45124558399402,نادرست! پاسخ صحیح گوینده۳ است,2,12,1,0.23489037500257837,None,68.45493929199438,68.465935041997,70.4505340839969,70.45056241699785,70.45086162499501,70.48039754199999,277656,001,2024-08-02_12h56.07.901,5-34 ready-monolingual persian speaker,2024.1.5,None,2024-08-02 12h56.12.215010 +0900,
Images/Speaker1.jpg,Images/Speaker2.jpg,Images/Speaker3.jpg,Images/Speaker4.jpg,Audio/Speaker2_Per/P2-12-Per.wav,Speaker2,گوینده۲,0,0,0,76,0,12,12,31,70.48039754199999,,,,,,,,,,,,,,,,,,,,,,,,,,,,,,,,,,,,,,,,,,,,,,,,,,,,,,70.45166541700019,70.48039754199999,70.48039754199999,70.48039754199999,70.48039754199999,70.48305254233176,70.48039754199999,70.48039754199999,70.48039754199999,70.81444287499471,نادرست! پاسخ صحیح گوینده۲ است,2,13,1,0.32475529099610867,None,70.81872274999478,70.82990145899385,72.81322879199433,72.81323999999586,72.81340279199503,72.83764366700052,277656,001,2024-08-02_12h56.07.901,5-34 ready-monolingual persian speaker,2024.1.5,None,2024-08-02 12h56.12.215010 +0900,
Images/Speaker1.jpg,Images/Speaker2.jpg,Images/Speaker3.jpg,Images/Speaker4.jpg,Audio/Speaker4_Per/P4-20-Per.wav,Speaker4,گوینده۴,0,0,0,76,0,13,13,79,72.83764366700052,,,,,,,,,,,,,,,,,,,,,,,,,,,,,,,,,,,,,,,,,,,,,,,,,,,,,,72.81359945899749,72.83764366700052,72.83764366700052,72.83764366700052,72.83764366700052,72.84634650033016,72.83764366700052,72.83764366700052,72.83764366700052,73.07402654199541,نادرست! پاسخ صحیح گوینده۴ است,2,14,1,0.23342750000301749,None,73.07807145900006,73.08962637499644,75.07744720899791,75.07745691699529,75.07759704199998,75.10432020900043,277656,001,2024-08-02_12h56.07.901,5-34 ready-monolingual persian speaker,2024.1.5,None,2024-08-02 12h56.12.215010 +0900,
Images/Speaker1.jpg,Images/Speaker2.jpg,Images/Speaker3.jpg,Images/Speaker4.jpg,Audio/Speaker1_Per/P1-17-Per.wav,Speaker1,گوینده ۱,0,0,0,76,0,14,14,16,75.10432020900043,,,,,,,,,,,,,,,,,,,,,,,,,,,,,,,,,,,,,,,,,,,,,,,,,,,,,,75.07778441700066,75.10432020900043,75.10432020900043,75.10432020900043,75.10432020900043,75.11052937532853,75.10432020900043,75.10432020900043,75.10432020900043,75.27229029199952,صحیح است,3,15,1,None,None,75.27665062499727,75.28565329199773,77.27244204199815,77.27245162499457,77.27258799999981,77.29727829199692,277656,001,2024-08-02_12h56.07.901,5-34 ready-monolingual persian speaker,2024.1.5,None,2024-08-02 12h56.12.215010 +0900,
Images/Speaker1.jpg,Images/Speaker2.jpg,Images/Speaker3.jpg,Images/Speaker4.jpg,Audio/Speaker2_Per/P2-6-Per.wav,Speaker2,گوینده۲,0,0,0,76,0,15,15,25,77.29727829199692,,,,,,,,,,,,,,,,,,,,,,,,,,,,,,,,,,,,,,,,,,,,,,,,,,,,,,77.2727642089958,77.29727829199692,77.29727829199692,77.29727829199692,77.29727829199692,77.30553554232804,77.29727829199692,77.29727829199692,77.29727829199692,77.46761029199843,نادرست! پاسخ صحیح گوینده۲ است,3,16,1,0.16232933299761498,None,77.47178912499658,77.48250387499866,79.47341829200013,79.47344312499627,79.47408633399755,,277656,001,2024-08-02_12h56.07.901,5-34 ready-monolingual persian speaker,2024.1.5,None,2024-08-02 12h56.12.215010 +0900,
Images/Speaker1.jpg,Images/Speaker2.jpg,Images/Speaker3.jpg,Images/Speaker4.jpg,Audio/Speaker1_Per/P1-10-Per.wav,Speaker1,گوینده ۱,0,0,0,76,0,16,16,9,79.50180454200017,,,,,,,,,,,,,,,,,,,,,,,,,,,,,,,,,,,,,,,,,,,,,,,,,,,,,,79.47464933399897,79.50180454200017,79.50180454200017,79.50180454200017,79.50180454200017,79.50659141733243,79.50180454200017,79.50180454200017,79.50180454200017,79.66406691699376,صحیح است,4,17,1,0.15805687499960186,None,79.66804037499969,79.678389875,81.66899608399399,81.66904262499884,81.66946179200022,81.69865524999477,277656,001,2024-08-02_12h56.07.901,5-34 ready-monolingual persian speaker,2024.1.5,None,2024-08-02 12h56.12.215010 +0900,
Images/Speaker1.jpg,Images/Speaker2.jpg,Images/Speaker3.jpg,Images/Speaker4.jpg,Audio/Speaker2_Per/P2-19-Per.wav,Speaker2,گوینده۲,0,0,0,76,0,17,17,38,81.69865524999477,,,,,,,,,,,,,,,,,,,,,,,,,,,,,,,,,,,,,,,,,,,,,,,,,,,,,,81.67047416699643,81.69865524999477,81.69865524999477,81.69865524999477,81.69865524999477,81.70122391732778,81.69865524999477,81.69865524999477,81.69865524999477,81.93652166699758,نادرست! پاسخ صحیح گوینده۲ است,4,18,1,0.2286930000045686,None,81.94061325000075,81.95190641699446,83.94575274999806,83.94579591699585,83.94651604200044,,277656,001,2024-08-02_12h56.07.901,5-34 ready-monolingual persian speaker,2024.1.5,None,2024-08-02 12h56.12.215010 +0900,
Images/Speaker1.jpg,Images/Speaker2.jpg,Images/Speaker3.jpg,Images/Speaker4.jpg,Audio/Speaker1_Per/P1-19-Per.wav,Speaker1,گوینده ۱,0,0,0,76,0,18,18,18,83.97441499999695,,,,,,,,,,,,,,,,,,,,,,,,,,,,,,,,,,,,,,,,,,,,,,,,,,,,,,83.9472023749986,83.97441499999695,83.97441499999695,83.97441499999695,83.97441499999695,83.9788843333304,83.97441499999695,83.97441499999695,83.97441499999695,84.14423720899504,صحیح است,5,19,1,0.16365870900335722,None,84.14843787499558,84.15870412499498,86.1548486249958,86.15485787500074,86.15501383399533,,277656,001,2024-08-02_12h56.07.901,5-34 ready-monolingual persian speaker,2024.1.5,None,2024-08-02 12h56.12.215010 +0900,
Images/Speaker1.jpg,Images/Speaker2.jpg,Images/Speaker3.jpg,Images/Speaker4.jpg,Audio/Speaker3_Per/P3-10-Per.wav,Speaker3,گوینده۳,0,0,0,76,0,19,19,49,86.1805804589967,,,,,,,,,,,,,,,,,,,,,,,,,,,,,,,,,,,,,,,,,,,,,,,,,,,,,,86.15521820899448,86.1805804589967,86.1805804589967,86.1805804589967,86.1805804589967,86.18815158333067,86.1805804589967,86.1805804589967,86.1805804589967,86.6762762090002,نادرست! پاسخ صحیح گوینده۳ است,5,20,1,0.49360791600338416,None,86.68006095899909,86.69127374999516,88.68792887499876,88.68795729200065,88.68870908399549,,277656,001,2024-08-02_12h56.07.901,5-34 ready-monolingual persian speaker,2024.1.5,None,2024-08-02 12h56.12.215010 +0900,
Images/Speaker1.jpg,Images/Speaker2.jpg,Images/Speaker3.jpg,Images/Speaker4.jpg,Audio/Speaker2_Per/P2-18-Per.wav,Speaker2,گوینده۲,0,0,0,76,0,20,20,37,88.71463754199794,,,,,,,,,,,,,,,,,,,,,,,,,,,,,,,,,,,,,,,,,,,,,,,,,,,,,,88.68974295899534,88.71463754199794,88.71463754199794,88.71463754199794,88.71463754199794,88.72111129233284,88.71463754199794,88.71463754199794,88.71463754199794,88.965616124995,نادرست! پاسخ صحیح گوینده۲ است,5,21,1,0.2429107079951791,None,88.969402333998,88.97811987499881,90.9612138339944,90.96122645899595,90.96138658400014,90.98677174999466,277656,001,2024-08-02_12h56.07.901,5-34 ready-monolingual persian speaker,2024.1.5,None,2024-08-02 12h56.12.215010 +0900,
Images/Speaker1.jpg,Images/Speaker2.jpg,Images/Speaker3.jpg,Images/Speaker4.jpg,Audio/Speaker4_Per/P4-11-Per.wav,Speaker4,گوینده۴,0,0,0,76,0,21,21,70,90.98677174999466,,,,,,,,,,,,,,,,,,,,,,,,,,,,,,,,,,,,,,,,,,,,,,,,,,,,,,90.96157724999648,90.98677174999466,90.98677174999466,90.98677174999466,90.98677174999466,90.99434025032727,90.98677174999466,90.98677174999466,90.98677174999466,91.31028179200075,نادرست! پاسخ صحیح گوینده۴ است,5,22,1,0.31671341699984623,None,91.31439049999608,91.3230567089995,93.31080404199747,93.31081491700024,93.31112516699795,93.33627220899507,277656,001,2024-08-02_12h56.07.901,5-34 ready-monolingual persian speaker,2024.1.5,None,2024-08-02 12h56.12.215010 +0900,
Images/Speaker1.jpg,Images/Speaker2.jpg,Images/Speaker3.jpg,Images/Speaker4.jpg,Audio/Speaker4_Per/P4-1-Per.wav,Speaker4,گوینده۴,0,0,0,76,0,22,22,60,93.33627220899507,,,,,,,,,,,,,,,,,,,,,,,,,,,,,,,,,,,,,,,,,,,,,,,,,,,,,,93.31153366699436,93.33627220899507,93.33627220899507,93.33627220899507,93.33627220899507,93.34388208333306,93.33627220899507,93.33627220899507,93.33627220899507,93.60381629199401,نادرست! پاسخ صحیح گوینده۴ است,5,23,1,0.2655473749982775,None,93.60752862499794,93.61864795899601,95.61153024999658,95.6115703339965,95.61225104199548,,277656,001,2024-08-02_12h56.07.901,5-34 ready-monolingual persian speaker,2024.1.5,None,2024-08-02 12h56.12.215010 +0900,
Images/Speaker1.jpg,Images/Speaker2.jpg,Images/Speaker3.jpg,Images/Speaker4.jpg,Audio/Speaker2_Per/P2-13-Per.wav,Speaker2,گوینده۲,0,0,0,76,0,23,23,32,95.64050316700013,,,,,,,,,,,,,,,,,,,,,,,,,,,,,,,,,,,,,,,,,,,,,,,,,,,,,,95.61283262499637,95.64050316700013,95.64050316700013,95.64050316700013,95.64050316700013,95.64469533332934,95.64050316700013,95.64050316700013,95.64050316700013,96.09204516699538,نادرست! پاسخ صحیح گوینده۲ است,5,24,1,0.4497147500005667,None,96.09630916699825,96.10767008399853,98.09452366699406,98.09453412499715,98.09467520899489,98.12018833399634,277656,001,2024-08-02_12h56.07.901,5-34 ready-monolingual persian speaker,2024.1.5,None,2024-08-02 12h56.12.215010 +0900,
Images/Speaker1.jpg,Images/Speaker2.jpg,Images/Speaker3.jpg,Images/Speaker4.jpg,Audio/Speaker1_Per/P1-11-Per.wav,Speaker1,گوینده ۱,0,0,0,76,0,24,24,10,98.12018833399634,,,,,,,,,,,,,,,,,,,,,,,,,,,,,,,,,,,,,,,,,,,,,,,,,,,,,,98.09486233400094,98.12018833399634,98.12018833399634,98.12018833399634,98.12018833399634,98.1275795423285,98.12018833399634,98.12018833399634,98.12018833399634,98.45289254199452,صحیح است,6,25,1,0.32956600000034086,None,98.45693166699493,98.46742816699407,100.45635058399785,100.45637587499368,100.45673249999527,100.48496183399402,277656,001,2024-08-02_12h56.07.901,5-34 ready-monolingual persian speaker,2024.1.5,None,2024-08-02 12h56.12.215010 +0900,
Images/Speaker1.jpg,Images/Speaker2.jpg,Images/Speaker3.jpg,Images/Speaker4.jpg,Audio/Speaker4_Per/P4-5-Per.wav,Speaker4,گوینده۴,0,0,0,76,0,25,25,64,100.48496183399402,,,,,,,,,,,,,,,,,,,,,,,,,,,,,,,,,,,,,,,,,,,,,,,,,,,,,,100.45766145899688,100.48496183399402,100.48496183399402,100.48496183399402,100.48496183399402,100.48889666733206,100.48496183399402,100.48496183399402,100.48496183399402,100.69823916699534,نادرست! پاسخ صحیح گوینده۴ است,6,26,1,0.20746345900261076,None,100.7022633749948,100.71317145899957,102.69656058399414,102.69657137499598,102.69671499999822,102.72132237500045,277656,001,2024-08-02_12h56.07.901,5-34 ready-monolingual persian speaker,2024.1.5,None,2024-08-02 12h56.12.215010 +0900,
Images/Speaker1.jpg,Images/Speaker2.jpg,Images/Speaker3.jpg,Images/Speaker4.jpg,Audio/Speaker2_Per/P2-5-Per.wav,Speaker2,گوینده۲,0,0,0,76,0,26,26,24,102.72132237500045,,,,,,,,,,,,,,,,,,,,,,,,,,,,,,,,,,,,,,,,,,,,,,,,,,,,,,102.69690016700042,102.72132237500045,102.72132237500045,102.72132237500045,102.72132237500045,102.72963079233207,102.72132237500045,102.72132237500045,102.72132237500045,102.8511064589984,نادرست! پاسخ صحیح گوینده۲ است,6,27,1,0.12873899999976857,None,102.85506991700095,102.86617887499597,104.85261766699841,104.85262683399924,104.85279904199706,104.87676879199716,277656,001,2024-08-02_12h56.07.901,5-34 ready-monolingual persian speaker,2024.1.5,None,2024-08-02 12h56.12.215010 +0900,
Images/Speaker1.jpg,Images/Speaker2.jpg,Images/Speaker3.jpg,Images/Speaker4.jpg,Audio/Speaker2_Per/P2-1-Per.wav,Speaker2,گوینده۲,0,0,0,76,0,27,27,20,104.87676879199716,,,,,,,,,,,,,,,,,,,,,,,,,,,,,,,,,,,,,,,,,,,,,,,,,,,,,,104.85298420899926,104.87676879199716,104.87676879199716,104.87676879199716,104.87676879199716,104.8856982083312,104.87676879199716,104.87676879199716,104.87676879199716,104.99766912499763,نادرست! پاسخ صحیح گوینده۲ است,6,28,1,None,None,105.0016292500004,105.01054291699984,106.99411695899471,106.99416149999888,106.9944863339988,107.02494454199768,277656,001,2024-08-02_12h56.07.901,5-34 ready-monolingual persian speaker,2024.1.5,None,2024-08-02 12h56.12.215010 +0900,
Images/Speaker1.jpg,Images/Speaker2.jpg,Images/Speaker3.jpg,Images/Speaker4.jpg,Audio/Speaker1_Per/P1-12-Per.wav,Speaker1,گوینده ۱,0,0,0,76,0,28,28,11,107.02494454199768,,,,,,,,,,,,,,,,,,,,,,,,,,,,,,,,,,,,,,,,,,,,,,,,,,,,,,106.99551958399388,107.02494454199768,107.02494454199768,107.02494454199768,107.02494454199768,107.02660645832705,107.02494454199768,107.02494454199768,107.02494454199768,107.82850837499427,صحیح است,7,29,1,0.7940651670069201,None,107.83232474999386,107.84292062500026,109.8283117089959,109.82832295899425,109.82846404199518,109.85285295899666,277656,001,2024-08-02_12h56.07.901,5-34 ready-monolingual persian speaker,2024.1.5,None,2024-08-02 12h56.12.215010 +0900,
Images/Speaker1.jpg,Images/Speaker2.jpg,Images/Speaker3.jpg,Images/Speaker4.jpg,Audio/Speaker3_Per/P3-16-Per.wav,Speaker3,گوینده۳,0,0,0,76,0,29,29,55,109.85285295899666,,,,,,,,,,,,,,,,,,,,,,,,,,,,,,,,,,,,,,,,,,,,,,,,,,,,,,109.82868529199914,109.85285295899666,109.85285295899666,109.85285295899666,109.85285295899666,109.86141633333366,109.85285295899666,109.85285295899666,109.85285295899666,110.41313020899543,نادرست! پاسخ صحیح گوینده۳ است,7,30,1,0.5564597920019878,None,110.41731333400094,110.4280748339952,112.41511645900027,112.41512854199391,112.4152616249994,112.44414224999491,277656,001,2024-08-02_12h56.07.901,5-34 ready-monolingual persian speaker,2024.1.5,None,2024-08-02 12h56.12.215010 +0900,
Images/Speaker1.jpg,Images/Speaker2.jpg,Images/Speaker3.jpg,Images/Speaker4.jpg,Audio/Speaker3_Per/P3-4-Per.wav,Speaker3,گوینده۳,0,0,0,76,0,30,30,43,112.44414224999491,,,,,,,,,,,,,,,,,,,,,,,,,,,,,,,,,,,,,,,,,,,,,,,,,,,,,,112.41544479200093,112.44414224999491,112.44414224999491,112.44414224999491,112.44414224999491,112.44824525032939,112.44414224999491,112.44414224999491,112.44414224999491,112.81653645899496,نادرست! پاسخ صحیح گوینده۳ است,7,31,1,0.36930654200114077,None,112.82046174999414,112.83205895900028,114.82057799999893,114.82060674999957,114.82085462499526,114.84622820899676,277656,001,2024-08-02_12h56.07.901,5-34 ready-monolingual persian speaker,2024.1.5,None,2024-08-02 12h56.12.215010 +0900,
Images/Speaker1.jpg,Images/Speaker2.jpg,Images/Speaker3.jpg,Images/Speaker4.jpg,Audio/Speaker4_Per/P4-10-Per.wav,Speaker4,گوینده۴,0,0,0,76,0,31,31,69,114.84622820899676,,,,,,,,,,,,,,,,,,,,,,,,,,,,,,,,,,,,,,,,,,,,,,,,,,,,,,114.82145895899885,114.84622820899676,114.84622820899676,114.84622820899676,114.84622820899676,114.85295925033327,114.84622820899676,114.84622820899676,114.84622820899676,115.12775316699845,نادرست! پاسخ صحیح گوینده۴ است,7,32,1,0.2753185420006048,None,115.13169999999809,115.14274054199632,117.12690208399727,117.12691149999591,117.12707237499853,117.15327487499599,277656,001,2024-08-02_12h56.07.901,5-34 ready-monolingual persian speaker,2024.1.5,None,2024-08-02 12h56.12.215010 +0900,
Images/Speaker1.jpg,Images/Speaker2.jpg,Images/Speaker3.jpg,Images/Speaker4.jpg,Audio/Speaker2_Per/P2-14-Per.wav,Speaker2,گوینده۲,0,0,0,76,0,32,32,33,117.15327487499599,,,,,,,,,,,,,,,,,,,,,,,,,,,,,,,,,,,,,,,,,,,,,,,,,,,,,,117.1272752090008,117.15327487499599,117.15327487499599,117.15327487499599,117.15327487499599,117.16001450033266,117.15327487499599,117.15327487499599,117.15327487499599,117.41779808399588,نادرست! پاسخ صحیح گوینده۲ است,7,33,1,0.2635620410001138,None,117.42199454199726,117.4328895419967,119.4199637089987,119.42001070900005,119.42092987499927,119.44655445899843,277656,001,2024-08-02_12h56.07.901,5-34 ready-monolingual persian speaker,2024.1.5,None,2024-08-02 12h56.12.215010 +0900,
Images/Speaker1.jpg,Images/Speaker2.jpg,Images/Speaker3.jpg,Images/Speaker4.jpg,Audio/Speaker4_Per/P4-2-Per.wav,Speaker4,گوینده۴,0,0,0,76,0,33,33,61,119.44655445899843,,,,,,,,,,,,,,,,,,,,,,,,,,,,,,,,,,,,,,,,,,,,,,,,,,,,,,119.42175745900022,119.44655445899843,119.44655445899843,119.44655445899843,119.44655445899843,119.45188554233076,119.44655445899843,119.44655445899843,119.44655445899843,119.60772879199794,نادرست! پاسخ صحیح گوینده۴ است,7,34,1,0.15881924999848707,None,119.61203029199532,119.62305329199444,121.61133608399541,121.61134554199816,121.61148312499427,121.63620183400053,277656,001,2024-08-02_12h56.07.901,5-34 ready-monolingual persian speaker,2024.1.5,None,2024-08-02 12h56.12.215010 +0900,
Images/Speaker1.jpg,Images/Speaker2.jpg,Images/Speaker3.jpg,Images/Speaker4.jpg,Audio/Speaker2_Per/P2-7-Per.wav,Speaker2,گوینده۲,0,0,0,76,0,34,34,26,121.63620183400053,,,,,,,,,,,,,,,,,,,,,,,,,,,,,,,,,,,,,,,,,,,,,,,,,,,,,,121.61170079199655,121.63620183400053,121.63620183400053,121.63620183400053,121.63620183400053,121.64446183333396,121.63620183400053,121.63620183400053,121.63620183400053,121.83268591699743,نادرست! پاسخ صحیح گوینده۲ است,7,35,1,0.19543174999853363,None,121.83642016699741,121.8478727499969,123.83161649999965,123.83162637499481,123.83177191700088,123.85738220899657,277656,001,2024-08-02_12h56.07.901,5-34 ready-monolingual persian speaker,2024.1.5,None,2024-08-02 12h56.12.215010 +0900,
Images/Speaker1.jpg,Images/Speaker2.jpg,Images/Speaker3.jpg,Images/Speaker4.jpg,Audio/Speaker3_Per/P3-6-Per.wav,Speaker3,گوینده۳,0,0,0,76,0,35,35,45,123.85738220899657,,,,,,,,,,,,,,,,,,,,,,,,,,,,,,,,,,,,,,,,,,,,,,,,,,,,,,123.83196037499874,123.85738220899657,123.85738220899657,123.85738220899657,123.85738220899657,123.86470533333389,123.85738220899657,123.85738220899657,123.85738220899657,124.33727883399843,نادرست! پاسخ صحیح گوینده۳ است,7,36,1,0.4698611659987364,None,124.3411247499971,124.35252241700073,126.33712895899953,126.33713920899754,126.3373310839961,126.36281208400032,277656,001,2024-08-02_12h56.07.901,5-34 ready-monolingual persian speaker,2024.1.5,None,2024-08-02 12h56.12.215010 +0900,
Images/Speaker1.jpg,Images/Speaker2.jpg,Images/Speaker3.jpg,Images/Speaker4.jpg,Audio/Speaker3_Per/P3-19-Per.wav,Speaker3,گوینده۳,0,0,0,76,0,36,36,58,126.36281208400032,,,,,,,,,,,,,,,,,,,,,,,,,,,,,,,,,,,,,,,,,,,,,,,,,,,,,,126.33750829199562,126.36281208400032,126.36281208400032,126.36281208400032,126.36281208400032,126.37017708332908,126.36281208400032,126.36281208400032,126.36281208400032,126.61114129199996,نادرست! پاسخ صحیح گوینده۳ است,7,37,1,0.24627391700050794,None,126.61520141700021,126.62649254199641,128.6100402919983,128.61005537500023,128.61019549999764,128.6337948750006,277656,001,2024-08-02_12h56.07.901,5-34 ready-monolingual persian speaker,2024.1.5,None,2024-08-02 12h56.12.215010 +0900,
Images/Speaker1.jpg,Images/Speaker2.jpg,Images/Speaker3.jpg,Images/Speaker4.jpg,Audio/Speaker3_Per/P3-18-Per.wav,Speaker3,گوینده۳,0,0,0,76,0,37,37,57,128.6337948750006,,,,,,,,,,,,,,,,,,,,,,,,,,,,,,,,,,,,,,,,,,,,,,,,,,,,,,128.61037316700094,128.6337948750006,128.6337948750006,128.6337948750006,128.6337948750006,128.64317220832942,128.6337948750006,128.6337948750006,128.6337948750006,128.89227145900077,نادرست! پاسخ صحیح گوینده۳ است,7,38,1,0.2574640829989221,None,128.89655445899552,128.90801154200017,130.89429070899496,130.89430116699805,130.89444170899515,130.91868649999378,277656,001,2024-08-02_12h56.07.901,5-34 ready-monolingual persian speaker,2024.1.5,None,2024-08-02 12h56.12.215010 +0900,
Images/Speaker1.jpg,Images/Speaker2.jpg,Images/Speaker3.jpg,Images/Speaker4.jpg,Audio/Speaker1_Per/P1-20-Per.wav,Speaker1,گوینده ۱,0,0,0,76,0,38,38,19,130.91868649999378,,,,,,,,,,,,,,,,,,,,,,,,,,,,,,,,,,,,,,,,,,,,,,,,,,,,,,130.89464754199435,130.91868649999378,130.91868649999378,130.91868649999378,130.91868649999378,130.92744395833193,130.91868649999378,130.91868649999378,130.91868649999378,131.349084124995,صحیح است,8,39,1,0.42574850000528386,None,131.353024541997,131.36375987499923,133.3551359169942,133.35514762499952,133.35537816699798,,277656,001,2024-08-02_12h56.07.901,5-34 ready-monolingual persian speaker,2024.1.5,None,2024-08-02 12h56.12.215010 +0900,
Images/Speaker1.jpg,Images/Speaker2.jpg,Images/Speaker3.jpg,Images/Speaker4.jpg,Audio/Speaker2_Per/P2-4-Per.wav,Speaker2,گوینده۲,0,0,0,76,0,39,39,23,133.37968649999675,,,,,,,,,,,,,,,,,,,,,,,,,,,,,,,,,,,,,,,,,,,,,,,,,,,,,,133.35557387500012,133.37968649999675,133.37968649999675,133.37968649999675,133.37968649999675,133.38843741732904,133.37968649999675,133.37968649999675,133.37968649999675,135.51926270900003,نادرست! پاسخ صحیح گوینده۲ است,8,40,1,2.137675958001637,None,135.523067874994,135.53446712499863,137.51891970900033,137.51892945899453,137.51908533399546,137.54584558399802,277656,001,2024-08-02_12h56.07.901,5-34 ready-monolingual persian speaker,2024.1.5,None,2024-08-02 12h56.12.215010 +0900,
,,,,,,,,,,,,,,,137.54584558399802,,,,,,,,,,,,,,,,,,,,,,,,,,,,,,,,,,,,,,,,,,,,,,,,,,,,,,137.51925183399726,137.54584558399802,137.54584558399802,137.54584558399802,137.54584558399802,137.552004875332,137.54584558399802,137.54584558399802,137.54584558399802,137.53692641700036,نادرست! پاسخ صحیح گوینده۲ است,8,40,None,,,137.53731795899512,137.54584558399802,139.53108795899607,139.53109745899565,,,,,,,,,,
