SpeakerImage1,SpeakerImage2,SpeakerImage3,SpeakerImage4,TrainingSound,EnglishCorrectAnswer,PersianCorrectAnswer,repeated_TrainingLoopGroup1.thisRepN,repeated_TrainingLoopGroup1.thisTrialN,repeated_TrainingLoopGroup1.thisN,repeated_TrainingLoopGroup1.thisIndex,TrainingLoopGroup1.thisRepN,TrainingLoopGroup1.thisTrialN,TrainingLoopGroup1.thisN,TrainingLoopGroup1.thisIndex,thisRow.t,notes,trial.started,trial.stopped,GroupSelection.started,GroupInstructions.started,key_resp.started,GroupSelection.stopped,key_resp.keys,key_resp.rt,key_resp.duration,Introduction.started,text_2.started,image.started,sound_7.started,text_4.started,text_2.stopped,sound_8.started,image.stopped,text_4.stopped,image_7.started,sound_9.started,text_5.started,sound_10.started,image_7.stopped,text_5.stopped,image_8.started,sound_11.started,text_6.started,sound_12.started,image_8.stopped,text_6.stopped,image_9.started,sound_13.started,text_7.started,sound_14.started,image_9.stopped,text_7.stopped,Introduction.stopped,InitializeExperiment.started,InitializeExperiment.stopped,CheckAccuracy1.started,accuracy_group1,proceed_to_test_group1,CheckAccuracy1.stopped,participant,session,date,expName,psychopyVersion,frameRate,expStart,
,,,,,,,,,,,,,,,,,0.010215582999080652,0.010619417000270914,,,,,,,,,,,,,,,,,,,,,,,,,,,,,,,,,,,,,,,,,,286738,001,2024-07-02_08h58.30.009,5-29,2024.1.4,None,2024-07-02 08h58.34.594033 +0900,
,,,,,,,,,,,,,,,,,,,0.010659042000042973,0.015186749998974847,0.015186749998974847,0.49916183299865224,3,0.44884704200012493,None,,,,,,,,,,,,,,,,,,,,,,,,,,,,,,,,,,,286738,001,2024-07-02_08h58.30.009,5-29,2024.1.4,None,2024-07-02 08h58.34.594033 +0900,
,,,,,,,,,,,,,,,,,,,,,,,,,,0.4991905829992902,0.5527422499981185,5.493464708000829,5.501236166667028,5.493464708000829,5.544414083000447,10.50246616666506,15.49207079199914,15.49207079199914,15.497041499998886,15.508737458665808,15.497041499998886,20.50516945866572,25.491032707999693,25.491032707999693,25.491032707999693,25.499120833665316,25.491032707999693,30.503691333666453,35.490316167000856,35.490316167000856,35.49505045800106,35.50698283366752,35.49505045800106,40.50151608366674,49.49025674999939,49.49025674999939,45.4915234580003,,,,,,,286738,001,2024-07-02_08h58.30.009,5-29,2024.1.4,None,2024-07-02 08h58.34.594033 +0900,
,,,,,,,,,,,,,,,,,,,,,,,,,,,,,,,,,,,,,,,,,,,,,,,,,,,,,,45.491571082999144,45.49184937500104,,,,,286738,001,2024-07-02_08h58.30.009,5-29,2024.1.4,None,2024-07-02 08h58.34.594033 +0900,
Images/Speaker1.jpg,Images/Speaker2.jpg,Images/Speaker3.jpg,Images/Speaker4.jpg,Audio/Speaker4_Per/P4-7-Per.wav,Speaker4,گوینده۴,0,0,0,66,,,,,49.49025674999939,,,,,,,,,,,,,,,,,,,,,,,,,,,,,,,,,,,,,,,,,45.54472487499879,0.0,False,45.545041249999485,286738,001,2024-07-02_08h58.30.009,5-29,2024.1.4,None,2024-07-02 08h58.34.594033 +0900,
Images/Speaker1.jpg,Images/Speaker2.jpg,Images/Speaker3.jpg,Images/Speaker4.jpg,Audio/Speaker4_Per/P4-14-Per.wav,Speaker4,گوینده۴,0,1,1,73,,,,,49.49025674999939,,,,,,,,,,,,,,,,,,,,,,,,,,,,,,,,,,,,,,,,,45.56351229199936,0.0,False,45.56373729199913,286738,001,2024-07-02_08h58.30.009,5-29,2024.1.4,None,2024-07-02 08h58.34.594033 +0900,
Images/Speaker1.jpg,Images/Speaker2.jpg,Images/Speaker3.jpg,Images/Speaker4.jpg,Audio/Speaker3_Per/P3-16-Per.wav,Speaker3,گوینده۳,0,2,2,55,,,,,49.49025674999939,,,,,,,,,,,,,,,,,,,,,,,,,,,,,,,,,,,,,,,,,45.58155849999821,0.0,False,45.58175866699821,286738,001,2024-07-02_08h58.30.009,5-29,2024.1.4,None,2024-07-02 08h58.34.594033 +0900,
Images/Speaker1.jpg,Images/Speaker2.jpg,Images/Speaker3.jpg,Images/Speaker4.jpg,Audio/Speaker4_Per/P4-19-Per.wav,Speaker4,گوینده۴,0,3,3,78,,,,,49.49025674999939,,,,,,,,,,,,,,,,,,,,,,,,,,,,,,,,,,,,,,,,,45.59872387499854,0.0,False,45.59890562500004,286738,001,2024-07-02_08h58.30.009,5-29,2024.1.4,None,2024-07-02 08h58.34.594033 +0900,
Images/Speaker1.jpg,Images/Speaker2.jpg,Images/Speaker3.jpg,Images/Speaker4.jpg,Audio/Speaker3_Per/P3-15-Per.wav,Speaker3,گوینده۳,0,4,4,54,,,,,49.49025674999939,,,,,,,,,,,,,,,,,,,,,,,,,,,,,,,,,,,,,,,,,45.61501283300095,0.0,False,45.61520250000103,286738,001,2024-07-02_08h58.30.009,5-29,2024.1.4,None,2024-07-02 08h58.34.594033 +0900,
Images/Speaker1.jpg,Images/Speaker2.jpg,Images/Speaker3.jpg,Images/Speaker4.jpg,Audio/Speaker1_Per/P1-8-Per.wav,Speaker1,گوینده ۱,0,5,5,7,,,,,49.49025674999939,,,,,,,,,,,,,,,,,,,,,,,,,,,,,,,,,,,,,,,,,45.63134291700044,0.0,False,45.63151054199989,286738,001,2024-07-02_08h58.30.009,5-29,2024.1.4,None,2024-07-02 08h58.34.594033 +0900,
Images/Speaker1.jpg,Images/Speaker2.jpg,Images/Speaker3.jpg,Images/Speaker4.jpg,Audio/Speaker4_Per/P4-1-Per.wav,Speaker4,گوینده۴,0,6,6,60,,,,,49.49025674999939,,,,,,,,,,,,,,,,,,,,,,,,,,,,,,,,,,,,,,,,,45.64755429199795,0.0,False,45.64772812500087,286738,001,2024-07-02_08h58.30.009,5-29,2024.1.4,None,2024-07-02 08h58.34.594033 +0900,
Images/Speaker1.jpg,Images/Speaker2.jpg,Images/Speaker3.jpg,Images/Speaker4.jpg,Audio/Speaker2_Per/P2-7-Per.wav,Speaker2,گوینده۲,0,7,7,26,,,,,49.49025674999939,,,,,,,,,,,,,,,,,,,,,,,,,,,,,,,,,,,,,,,,,45.66422954199879,0.0,False,45.66443325,286738,001,2024-07-02_08h58.30.009,5-29,2024.1.4,None,2024-07-02 08h58.34.594033 +0900,
Images/Speaker1.jpg,Images/Speaker2.jpg,Images/Speaker3.jpg,Images/Speaker4.jpg,Audio/Speaker3_Per/P3-6-Per.wav,Speaker3,گوینده۳,0,8,8,45,,,,,49.49025674999939,,,,,,,,,,,,,,,,,,,,,,,,,,,,,,,,,,,,,,,,,45.68033020800067,0.0,False,45.68051329199807,286738,001,2024-07-02_08h58.30.009,5-29,2024.1.4,None,2024-07-02 08h58.34.594033 +0900,
Images/Speaker1.jpg,Images/Speaker2.jpg,Images/Speaker3.jpg,Images/Speaker4.jpg,Audio/Speaker2_Per/P2-12-Per.wav,Speaker2,گوینده۲,0,9,9,31,,,,,49.49025674999939,,,,,,,,,,,,,,,,,,,,,,,,,,,,,,,,,,,,,,,,,45.696552041998075,0.0,False,45.69670566700006,286738,001,2024-07-02_08h58.30.009,5-29,2024.1.4,None,2024-07-02 08h58.34.594033 +0900,
Images/Speaker1.jpg,Images/Speaker2.jpg,Images/Speaker3.jpg,Images/Speaker4.jpg,Audio/Speaker1_Per/P1-16-Per.wav,Speaker1,گوینده ۱,0,10,10,15,,,,,49.49025674999939,,,,,,,,,,,,,,,,,,,,,,,,,,,,,,,,,,,,,,,,,45.71289620799871,0.0,False,45.713063708000846,286738,001,2024-07-02_08h58.30.009,5-29,2024.1.4,None,2024-07-02 08h58.34.594033 +0900,
Images/Speaker1.jpg,Images/Speaker2.jpg,Images/Speaker3.jpg,Images/Speaker4.jpg,Audio/Speaker1_Per/P1-10-Per.wav,Speaker1,گوینده ۱,0,11,11,9,,,,,49.49025674999939,,,,,,,,,,,,,,,,,,,,,,,,,,,,,,,,,,,,,,,,,45.729717333000735,0.0,False,45.729885749999085,286738,001,2024-07-02_08h58.30.009,5-29,2024.1.4,None,2024-07-02 08h58.34.594033 +0900,
Images/Speaker1.jpg,Images/Speaker2.jpg,Images/Speaker3.jpg,Images/Speaker4.jpg,Audio/Speaker3_Per/P3-3-Per.wav,Speaker3,گوینده۳,0,12,12,42,,,,,49.49025674999939,,,,,,,,,,,,,,,,,,,,,,,,,,,,,,,,,,,,,,,,,45.74589245799871,0.0,False,45.74605624999822,286738,001,2024-07-02_08h58.30.009,5-29,2024.1.4,None,2024-07-02 08h58.34.594033 +0900,
Images/Speaker1.jpg,Images/Speaker2.jpg,Images/Speaker3.jpg,Images/Speaker4.jpg,Audio/Speaker4_Per/P4-5-Per.wav,Speaker4,گوینده۴,0,13,13,64,,,,,49.49025674999939,,,,,,,,,,,,,,,,,,,,,,,,,,,,,,,,,,,,,,,,,45.76210516699939,0.0,False,45.76228437499958,286738,001,2024-07-02_08h58.30.009,5-29,2024.1.4,None,2024-07-02 08h58.34.594033 +0900,
Images/Speaker1.jpg,Images/Speaker2.jpg,Images/Speaker3.jpg,Images/Speaker4.jpg,Audio/Speaker2_Per/P2-13-Per.wav,Speaker2,گوینده۲,0,14,14,32,,,,,49.49025674999939,,,,,,,,,,,,,,,,,,,,,,,,,,,,,,,,,,,,,,,,,45.77809837499808,0.0,False,45.77826799999821,286738,001,2024-07-02_08h58.30.009,5-29,2024.1.4,None,2024-07-02 08h58.34.594033 +0900,
Images/Speaker1.jpg,Images/Speaker2.jpg,Images/Speaker3.jpg,Images/Speaker4.jpg,Audio/Speaker2_Per/P2-20-Per.wav,Speaker2,گوینده۲,0,15,15,39,,,,,49.49025674999939,,,,,,,,,,,,,,,,,,,,,,,,,,,,,,,,,,,,,,,,,45.794952000000194,0.0,False,45.795133125000575,286738,001,2024-07-02_08h58.30.009,5-29,2024.1.4,None,2024-07-02 08h58.34.594033 +0900,
Images/Speaker1.jpg,Images/Speaker2.jpg,Images/Speaker3.jpg,Images/Speaker4.jpg,Audio/Speaker2_Per/P2-10-Per.wav,Speaker2,گوینده۲,0,16,16,29,,,,,49.49025674999939,,,,,,,,,,,,,,,,,,,,,,,,,,,,,,,,,,,,,,,,,45.81113895800081,0.0,False,45.811329832999036,286738,001,2024-07-02_08h58.30.009,5-29,2024.1.4,None,2024-07-02 08h58.34.594033 +0900,
Images/Speaker1.jpg,Images/Speaker2.jpg,Images/Speaker3.jpg,Images/Speaker4.jpg,Audio/Speaker2_Per/P2-14-Per.wav,Speaker2,گوینده۲,0,17,17,33,,,,,49.49025674999939,,,,,,,,,,,,,,,,,,,,,,,,,,,,,,,,,,,,,,,,,45.827368499998556,0.0,False,45.82756487499864,286738,001,2024-07-02_08h58.30.009,5-29,2024.1.4,None,2024-07-02 08h58.34.594033 +0900,
Images/Speaker1.jpg,Images/Speaker2.jpg,Images/Speaker3.jpg,Images/Speaker4.jpg,Audio/Speaker1_Per/P1-15-Per.wav,Speaker1,گوینده ۱,0,18,18,14,,,,,49.49025674999939,,,,,,,,,,,,,,,,,,,,,,,,,,,,,,,,,,,,,,,,,45.8436872079983,0.0,False,45.84384924999904,286738,001,2024-07-02_08h58.30.009,5-29,2024.1.4,None,2024-07-02 08h58.34.594033 +0900,
Images/Speaker1.jpg,Images/Speaker2.jpg,Images/Speaker3.jpg,Images/Speaker4.jpg,Audio/Speaker3_Per/P3-4-Per.wav,Speaker3,گوینده۳,0,19,19,43,,,,,49.49025674999939,,,,,,,,,,,,,,,,,,,,,,,,,,,,,,,,,,,,,,,,,45.86026758300068,0.0,False,45.86043279200021,286738,001,2024-07-02_08h58.30.009,5-29,2024.1.4,None,2024-07-02 08h58.34.594033 +0900,
Images/Speaker1.jpg,Images/Speaker2.jpg,Images/Speaker3.jpg,Images/Speaker4.jpg,Audio/Speaker3_Per/P3-13-Per.wav,Speaker3,گوینده۳,0,20,20,52,,,,,49.49025674999939,,,,,,,,,,,,,,,,,,,,,,,,,,,,,,,,,,,,,,,,,45.87640208299854,0.0,False,45.876577082999574,286738,001,2024-07-02_08h58.30.009,5-29,2024.1.4,None,2024-07-02 08h58.34.594033 +0900,
Images/Speaker1.jpg,Images/Speaker2.jpg,Images/Speaker3.jpg,Images/Speaker4.jpg,Audio/Speaker3_Per/P3-18-Per.wav,Speaker3,گوینده۳,0,21,21,57,,,,,49.49025674999939,,,,,,,,,,,,,,,,,,,,,,,,,,,,,,,,,,,,,,,,,45.892641708000156,0.0,False,45.89284858300016,286738,001,2024-07-02_08h58.30.009,5-29,2024.1.4,None,2024-07-02 08h58.34.594033 +0900,
Images/Speaker1.jpg,Images/Speaker2.jpg,Images/Speaker3.jpg,Images/Speaker4.jpg,Audio/Speaker3_Per/P3-7-Per.wav,Speaker3,گوینده۳,0,22,22,46,,,,,49.49025674999939,,,,,,,,,,,,,,,,,,,,,,,,,,,,,,,,,,,,,,,,,45.90885658299885,0.0,False,45.90904700000101,286738,001,2024-07-02_08h58.30.009,5-29,2024.1.4,None,2024-07-02 08h58.34.594033 +0900,
Images/Speaker1.jpg,Images/Speaker2.jpg,Images/Speaker3.jpg,Images/Speaker4.jpg,Audio/Speaker2_Per/P2-16-Per.wav,Speaker2,گوینده۲,0,23,23,35,,,,,49.49025674999939,,,,,,,,,,,,,,,,,,,,,,,,,,,,,,,,,,,,,,,,,45.925595332999364,0.0,False,45.925823749999836,286738,001,2024-07-02_08h58.30.009,5-29,2024.1.4,None,2024-07-02 08h58.34.594033 +0900,
Images/Speaker1.jpg,Images/Speaker2.jpg,Images/Speaker3.jpg,Images/Speaker4.jpg,Audio/Speaker4_Per/P4-13-Per.wav,Speaker4,گوینده۴,0,24,24,72,,,,,49.49025674999939,,,,,,,,,,,,,,,,,,,,,,,,,,,,,,,,,,,,,,,,,45.94171962499968,0.0,False,45.94193945799998,286738,001,2024-07-02_08h58.30.009,5-29,2024.1.4,None,2024-07-02 08h58.34.594033 +0900,
Images/Speaker1.jpg,Images/Speaker2.jpg,Images/Speaker3.jpg,Images/Speaker4.jpg,Audio/Speaker4_Per/P4-20-Per.wav,Speaker4,گوینده۴,0,25,25,79,,,,,49.49025674999939,,,,,,,,,,,,,,,,,,,,,,,,,,,,,,,,,,,,,,,,,45.95789195799807,0.0,False,45.95806433300095,286738,001,2024-07-02_08h58.30.009,5-29,2024.1.4,None,2024-07-02 08h58.34.594033 +0900,
Images/Speaker1.jpg,Images/Speaker2.jpg,Images/Speaker3.jpg,Images/Speaker4.jpg,Audio/Speaker1_Per/P1-12-Per.wav,Speaker1,گوینده ۱,0,26,26,11,,,,,49.49025674999939,,,,,,,,,,,,,,,,,,,,,,,,,,,,,,,,,,,,,,,,,45.9740285830012,0.0,False,45.97419770800116,286738,001,2024-07-02_08h58.30.009,5-29,2024.1.4,None,2024-07-02 08h58.34.594033 +0900,
Images/Speaker1.jpg,Images/Speaker2.jpg,Images/Speaker3.jpg,Images/Speaker4.jpg,Audio/Speaker2_Per/P2-18-Per.wav,Speaker2,گوینده۲,0,27,27,37,,,,,49.49025674999939,,,,,,,,,,,,,,,,,,,,,,,,,,,,,,,,,,,,,,,,,45.990727332999086,0.0,False,45.990898707997985,286738,001,2024-07-02_08h58.30.009,5-29,2024.1.4,None,2024-07-02 08h58.34.594033 +0900,
Images/Speaker1.jpg,Images/Speaker2.jpg,Images/Speaker3.jpg,Images/Speaker4.jpg,Audio/Speaker1_Per/P1-11-Per.wav,Speaker1,گوینده ۱,0,28,28,10,,,,,49.49025674999939,,,,,,,,,,,,,,,,,,,,,,,,,,,,,,,,,,,,,,,,,46.00672333300099,0.0,False,46.006920083000296,286738,001,2024-07-02_08h58.30.009,5-29,2024.1.4,None,2024-07-02 08h58.34.594033 +0900,
Images/Speaker1.jpg,Images/Speaker2.jpg,Images/Speaker3.jpg,Images/Speaker4.jpg,Audio/Speaker1_Per/P1-5-Per.wav,Speaker1,گوینده ۱,0,29,29,4,,,,,49.49025674999939,,,,,,,,,,,,,,,,,,,,,,,,,,,,,,,,,,,,,,,,,46.022920542000065,0.0,False,46.02308841700142,286738,001,2024-07-02_08h58.30.009,5-29,2024.1.4,None,2024-07-02 08h58.34.594033 +0900,
Images/Speaker1.jpg,Images/Speaker2.jpg,Images/Speaker3.jpg,Images/Speaker4.jpg,Audio/Speaker3_Per/P3-20-Per.wav,Speaker3,گوینده۳,0,30,30,59,,,,,49.49025674999939,,,,,,,,,,,,,,,,,,,,,,,,,,,,,,,,,,,,,,,,,46.03909566699804,0.0,False,46.03927370800011,286738,001,2024-07-02_08h58.30.009,5-29,2024.1.4,None,2024-07-02 08h58.34.594033 +0900,
Images/Speaker1.jpg,Images/Speaker2.jpg,Images/Speaker3.jpg,Images/Speaker4.jpg,Audio/Speaker4_Per/P4-17-Per.wav,Speaker4,گوینده۴,0,31,31,76,,,,,49.49025674999939,,,,,,,,,,,,,,,,,,,,,,,,,,,,,,,,,,,,,,,,,46.05587079199904,0.0,False,46.05605916700006,286738,001,2024-07-02_08h58.30.009,5-29,2024.1.4,None,2024-07-02 08h58.34.594033 +0900,
Images/Speaker1.jpg,Images/Speaker2.jpg,Images/Speaker3.jpg,Images/Speaker4.jpg,Audio/Speaker4_Per/P4-18-Per.wav,Speaker4,گوینده۴,0,32,32,77,,,,,49.49025674999939,,,,,,,,,,,,,,,,,,,,,,,,,,,,,,,,,,,,,,,,,46.072097958000086,0.0,False,46.072301832999074,286738,001,2024-07-02_08h58.30.009,5-29,2024.1.4,None,2024-07-02 08h58.34.594033 +0900,
Images/Speaker1.jpg,Images/Speaker2.jpg,Images/Speaker3.jpg,Images/Speaker4.jpg,Audio/Speaker2_Per/P2-4-Per.wav,Speaker2,گوینده۲,0,33,33,23,,,,,49.49025674999939,,,,,,,,,,,,,,,,,,,,,,,,,,,,,,,,,,,,,,,,,46.08834333299819,0.0,False,46.08854254199832,286738,001,2024-07-02_08h58.30.009,5-29,2024.1.4,None,2024-07-02 08h58.34.594033 +0900,
Images/Speaker1.jpg,Images/Speaker2.jpg,Images/Speaker3.jpg,Images/Speaker4.jpg,Audio/Speaker2_Per/P2-19-Per.wav,Speaker2,گوینده۲,0,34,34,38,,,,,49.49025674999939,,,,,,,,,,,,,,,,,,,,,,,,,,,,,,,,,,,,,,,,,46.10456741699818,0.0,False,46.104787207998015,286738,001,2024-07-02_08h58.30.009,5-29,2024.1.4,None,2024-07-02 08h58.34.594033 +0900,
Images/Speaker1.jpg,Images/Speaker2.jpg,Images/Speaker3.jpg,Images/Speaker4.jpg,Audio/Speaker4_Per/P4-2-Per.wav,Speaker4,گوینده۴,0,35,35,61,,,,,49.49025674999939,,,,,,,,,,,,,,,,,,,,,,,,,,,,,,,,,,,,,,,,,46.12151837499914,0.0,False,46.12168508299874,286738,001,2024-07-02_08h58.30.009,5-29,2024.1.4,None,2024-07-02 08h58.34.594033 +0900,
Images/Speaker1.jpg,Images/Speaker2.jpg,Images/Speaker3.jpg,Images/Speaker4.jpg,Audio/Speaker1_Per/P1-18-Per.wav,Speaker1,گوینده ۱,0,36,36,17,,,,,49.49025674999939,,,,,,,,,,,,,,,,,,,,,,,,,,,,,,,,,,,,,,,,,46.13737712500006,0.0,False,46.13755016700088,286738,001,2024-07-02_08h58.30.009,5-29,2024.1.4,None,2024-07-02 08h58.34.594033 +0900,
Images/Speaker1.jpg,Images/Speaker2.jpg,Images/Speaker3.jpg,Images/Speaker4.jpg,Audio/Speaker2_Per/P2-17-Per.wav,Speaker2,گوینده۲,0,37,37,36,,,,,49.49025674999939,,,,,,,,,,,,,,,,,,,,,,,,,,,,,,,,,,,,,,,,,46.15357808299814,0.0,False,46.15380245800043,286738,001,2024-07-02_08h58.30.009,5-29,2024.1.4,None,2024-07-02 08h58.34.594033 +0900,
Images/Speaker1.jpg,Images/Speaker2.jpg,Images/Speaker3.jpg,Images/Speaker4.jpg,Audio/Speaker1_Per/P1-17-Per.wav,Speaker1,گوینده ۱,0,38,38,16,,,,,49.49025674999939,,,,,,,,,,,,,,,,,,,,,,,,,,,,,,,,,,,,,,,,,46.16984041699834,0.0,False,46.170013208000455,286738,001,2024-07-02_08h58.30.009,5-29,2024.1.4,None,2024-07-02 08h58.34.594033 +0900,
Images/Speaker1.jpg,Images/Speaker2.jpg,Images/Speaker3.jpg,Images/Speaker4.jpg,Audio/Speaker2_Per/P2-3-Per.wav,Speaker2,گوینده۲,0,39,39,22,,,,,49.49025674999939,,,,,,,,,,,,,,,,,,,,,,,,,,,,,,,,,,,,,,,,,46.186573124999995,0.0,False,46.186779749998095,286738,001,2024-07-02_08h58.30.009,5-29,2024.1.4,None,2024-07-02 08h58.34.594033 +0900,
Images/Speaker1.jpg,Images/Speaker2.jpg,Images/Speaker3.jpg,Images/Speaker4.jpg,Audio/Speaker1_Per/P1-1-Per.wav,Speaker1,گوینده ۱,0,40,40,0,,,,,49.49025674999939,,,,,,,,,,,,,,,,,,,,,,,,,,,,,,,,,,,,,,,,,46.20269737499984,0.0,False,46.202928250000696,286738,001,2024-07-02_08h58.30.009,5-29,2024.1.4,None,2024-07-02 08h58.34.594033 +0900,
Images/Speaker1.jpg,Images/Speaker2.jpg,Images/Speaker3.jpg,Images/Speaker4.jpg,Audio/Speaker3_Per/P3-9-Per.wav,Speaker3,گوینده۳,0,41,41,48,,,,,49.49025674999939,,,,,,,,,,,,,,,,,,,,,,,,,,,,,,,,,,,,,,,,,46.21901529200113,0.0,False,46.219187624999904,286738,001,2024-07-02_08h58.30.009,5-29,2024.1.4,None,2024-07-02 08h58.34.594033 +0900,
Images/Speaker1.jpg,Images/Speaker2.jpg,Images/Speaker3.jpg,Images/Speaker4.jpg,Audio/Speaker3_Per/P3-14-Per.wav,Speaker3,گوینده۳,0,42,42,53,,,,,49.49025674999939,,,,,,,,,,,,,,,,,,,,,,,,,,,,,,,,,,,,,,,,,46.235143375000916,0.0,False,46.2353226669984,286738,001,2024-07-02_08h58.30.009,5-29,2024.1.4,None,2024-07-02 08h58.34.594033 +0900,
Images/Speaker1.jpg,Images/Speaker2.jpg,Images/Speaker3.jpg,Images/Speaker4.jpg,Audio/Speaker3_Per/P3-10-Per.wav,Speaker3,گوینده۳,0,43,43,49,,,,,49.49025674999939,,,,,,,,,,,,,,,,,,,,,,,,,,,,,,,,,,,,,,,,,46.25192629199955,0.0,False,46.25210516700099,286738,001,2024-07-02_08h58.30.009,5-29,2024.1.4,None,2024-07-02 08h58.34.594033 +0900,
Images/Speaker1.jpg,Images/Speaker2.jpg,Images/Speaker3.jpg,Images/Speaker4.jpg,Audio/Speaker1_Per/P1-4-Per.wav,Speaker1,گوینده ۱,0,44,44,13,,,,,49.49025674999939,,,,,,,,,,,,,,,,,,,,,,,,,,,,,,,,,,,,,,,,,46.268034791999526,0.0,False,46.268218749999505,286738,001,2024-07-02_08h58.30.009,5-29,2024.1.4,None,2024-07-02 08h58.34.594033 +0900,
Images/Speaker1.jpg,Images/Speaker2.jpg,Images/Speaker3.jpg,Images/Speaker4.jpg,Audio/Speaker4_Per/P4-12-Per.wav,Speaker4,گوینده۴,0,45,45,71,,,,,49.49025674999939,,,,,,,,,,,,,,,,,,,,,,,,,,,,,,,,,,,,,,,,,46.28415999999925,0.0,False,46.284320416998526,286738,001,2024-07-02_08h58.30.009,5-29,2024.1.4,None,2024-07-02 08h58.34.594033 +0900,
Images/Speaker1.jpg,Images/Speaker2.jpg,Images/Speaker3.jpg,Images/Speaker4.jpg,Audio/Speaker3_Per/P3-5-Per.wav,Speaker3,گوینده۳,0,46,46,44,,,,,49.49025674999939,,,,,,,,,,,,,,,,,,,,,,,,,,,,,,,,,,,,,,,,,46.30028620799931,0.0,False,46.300467166998715,286738,001,2024-07-02_08h58.30.009,5-29,2024.1.4,None,2024-07-02 08h58.34.594033 +0900,
Images/Speaker1.jpg,Images/Speaker2.jpg,Images/Speaker3.jpg,Images/Speaker4.jpg,Audio/Speaker4_Per/P4-3-Per.wav,Speaker4,گوینده۴,0,47,47,62,,,,,49.49025674999939,,,,,,,,,,,,,,,,,,,,,,,,,,,,,,,,,,,,,,,,,46.317025791999185,0.0,False,46.317213792000985,286738,001,2024-07-02_08h58.30.009,5-29,2024.1.4,None,2024-07-02 08h58.34.594033 +0900,
Images/Speaker1.jpg,Images/Speaker2.jpg,Images/Speaker3.jpg,Images/Speaker4.jpg,Audio/Speaker2_Per/P2-1-Per.wav,Speaker2,گوینده۲,0,48,48,20,,,,,49.49025674999939,,,,,,,,,,,,,,,,,,,,,,,,,,,,,,,,,,,,,,,,,46.333167707998655,0.0,False,46.33337058300094,286738,001,2024-07-02_08h58.30.009,5-29,2024.1.4,None,2024-07-02 08h58.34.594033 +0900,
Images/Speaker1.jpg,Images/Speaker2.jpg,Images/Speaker3.jpg,Images/Speaker4.jpg,Audio/Speaker1_Per/P1-9-Per.wav,Speaker1,گوینده ۱,0,49,49,8,,,,,49.49025674999939,,,,,,,,,,,,,,,,,,,,,,,,,,,,,,,,,,,,,,,,,46.34921300000133,0.0,False,46.34945158299888,286738,001,2024-07-02_08h58.30.009,5-29,2024.1.4,None,2024-07-02 08h58.34.594033 +0900,
Images/Speaker1.jpg,Images/Speaker2.jpg,Images/Speaker3.jpg,Images/Speaker4.jpg,Audio/Speaker4_Per/P4-10-Per.wav,Speaker4,گوینده۴,0,50,50,69,,,,,49.49025674999939,,,,,,,,,,,,,,,,,,,,,,,,,,,,,,,,,,,,,,,,,46.36542995800119,0.0,False,46.3655945419996,286738,001,2024-07-02_08h58.30.009,5-29,2024.1.4,None,2024-07-02 08h58.34.594033 +0900,
Images/Speaker1.jpg,Images/Speaker2.jpg,Images/Speaker3.jpg,Images/Speaker4.jpg,Audio/Speaker4_Per/P4-16-Per.wav,Speaker4,گوینده۴,0,51,51,75,,,,,49.49025674999939,,,,,,,,,,,,,,,,,,,,,,,,,,,,,,,,,,,,,,,,,46.38212858299812,0.0,False,46.38230237500102,286738,001,2024-07-02_08h58.30.009,5-29,2024.1.4,None,2024-07-02 08h58.34.594033 +0900,
Images/Speaker1.jpg,Images/Speaker2.jpg,Images/Speaker3.jpg,Images/Speaker4.jpg,Audio/Speaker1_Per/P1-4-Per.wav,Speaker1,گوینده ۱,0,52,52,3,,,,,49.49025674999939,,,,,,,,,,,,,,,,,,,,,,,,,,,,,,,,,,,,,,,,,46.3981582919987,0.0,False,46.3983643749998,286738,001,2024-07-02_08h58.30.009,5-29,2024.1.4,None,2024-07-02 08h58.34.594033 +0900,
Images/Speaker1.jpg,Images/Speaker2.jpg,Images/Speaker3.jpg,Images/Speaker4.jpg,Audio/Speaker3_Per/P3-12-Per.wav,Speaker3,گوینده۳,0,53,53,51,,,,,49.49025674999939,,,,,,,,,,,,,,,,,,,,,,,,,,,,,,,,,,,,,,,,,46.414250541998626,0.0,False,46.41448608299834,286738,001,2024-07-02_08h58.30.009,5-29,2024.1.4,None,2024-07-02 08h58.34.594033 +0900,
Images/Speaker1.jpg,Images/Speaker2.jpg,Images/Speaker3.jpg,Images/Speaker4.jpg,Audio/Speaker4_Per/P4-15-Per.wav,Speaker4,گوینده۴,0,54,54,74,,,,,49.49025674999939,,,,,,,,,,,,,,,,,,,,,,,,,,,,,,,,,,,,,,,,,46.43045404199802,0.0,False,46.43063395799982,286738,001,2024-07-02_08h58.30.009,5-29,2024.1.4,None,2024-07-02 08h58.34.594033 +0900,
Images/Speaker1.jpg,Images/Speaker2.jpg,Images/Speaker3.jpg,Images/Speaker4.jpg,Audio/Speaker4_Per/P4-9-Per.wav,Speaker4,گوینده۴,0,55,55,68,,,,,49.49025674999939,,,,,,,,,,,,,,,,,,,,,,,,,,,,,,,,,,,,,,,,,46.44715925000128,0.0,False,46.44735537499946,286738,001,2024-07-02_08h58.30.009,5-29,2024.1.4,None,2024-07-02 08h58.34.594033 +0900,
Images/Speaker1.jpg,Images/Speaker2.jpg,Images/Speaker3.jpg,Images/Speaker4.jpg,Audio/Speaker2_Per/P2-5-Per.wav,Speaker2,گوینده۲,0,56,56,24,,,,,49.49025674999939,,,,,,,,,,,,,,,,,,,,,,,,,,,,,,,,,,,,,,,,,46.46326487500119,0.0,False,46.46343412499846,286738,001,2024-07-02_08h58.30.009,5-29,2024.1.4,None,2024-07-02 08h58.34.594033 +0900,
Images/Speaker1.jpg,Images/Speaker2.jpg,Images/Speaker3.jpg,Images/Speaker4.jpg,Audio/Speaker1_Per/P1-3-Per.wav,Speaker1,گوینده ۱,0,57,57,2,,,,,49.49025674999939,,,,,,,,,,,,,,,,,,,,,,,,,,,,,,,,,,,,,,,,,46.47929791700153,0.0,False,46.47948087500117,286738,001,2024-07-02_08h58.30.009,5-29,2024.1.4,None,2024-07-02 08h58.34.594033 +0900,
Images/Speaker1.jpg,Images/Speaker2.jpg,Images/Speaker3.jpg,Images/Speaker4.jpg,Audio/Speaker2_Per/P2-6-Per.wav,Speaker2,گوینده۲,0,58,58,25,,,,,49.49025674999939,,,,,,,,,,,,,,,,,,,,,,,,,,,,,,,,,,,,,,,,,46.49544520799827,0.0,False,46.49563062499874,286738,001,2024-07-02_08h58.30.009,5-29,2024.1.4,None,2024-07-02 08h58.34.594033 +0900,
Images/Speaker1.jpg,Images/Speaker2.jpg,Images/Speaker3.jpg,Images/Speaker4.jpg,Audio/Speaker3_Per/P3-17-Per.wav,Speaker3,گوینده۳,0,59,59,56,,,,,49.49025674999939,,,,,,,,,,,,,,,,,,,,,,,,,,,,,,,,,,,,,,,,,46.51218137500109,0.0,False,46.51240254200093,286738,001,2024-07-02_08h58.30.009,5-29,2024.1.4,None,2024-07-02 08h58.34.594033 +0900,
Images/Speaker1.jpg,Images/Speaker2.jpg,Images/Speaker3.jpg,Images/Speaker4.jpg,Audio/Speaker1_Per/P1-13-Per.wav,Speaker1,گوینده ۱,0,60,60,12,,,,,49.49025674999939,,,,,,,,,,,,,,,,,,,,,,,,,,,,,,,,,,,,,,,,,46.528330707998975,0.0,False,46.52850050000052,286738,001,2024-07-02_08h58.30.009,5-29,2024.1.4,None,2024-07-02 08h58.34.594033 +0900,
Images/Speaker1.jpg,Images/Speaker2.jpg,Images/Speaker3.jpg,Images/Speaker4.jpg,Audio/Speaker3_Per/P3-8-Per.wav,Speaker3,گوینده۳,0,61,61,47,,,,,49.49025674999939,,,,,,,,,,,,,,,,,,,,,,,,,,,,,,,,,,,,,,,,,46.54448354199849,0.0,False,46.54471349999949,286738,001,2024-07-02_08h58.30.009,5-29,2024.1.4,None,2024-07-02 08h58.34.594033 +0900,
Images/Speaker1.jpg,Images/Speaker2.jpg,Images/Speaker3.jpg,Images/Speaker4.jpg,Audio/Speaker3_Per/P3-2-Per.wav,Speaker3,گوینده۳,0,62,62,41,,,,,49.49025674999939,,,,,,,,,,,,,,,,,,,,,,,,,,,,,,,,,,,,,,,,,46.56068979200063,0.0,False,46.56085279200124,286738,001,2024-07-02_08h58.30.009,5-29,2024.1.4,None,2024-07-02 08h58.34.594033 +0900,
Images/Speaker1.jpg,Images/Speaker2.jpg,Images/Speaker3.jpg,Images/Speaker4.jpg,Audio/Speaker3_Per/P3-1-Per.wav,Speaker3,گوینده۳,0,63,63,40,,,,,49.49025674999939,,,,,,,,,,,,,,,,,,,,,,,,,,,,,,,,,,,,,,,,,46.5774503749999,0.0,False,46.577618999999686,286738,001,2024-07-02_08h58.30.009,5-29,2024.1.4,None,2024-07-02 08h58.34.594033 +0900,
Images/Speaker1.jpg,Images/Speaker2.jpg,Images/Speaker3.jpg,Images/Speaker4.jpg,Audio/Speaker2_Per/P2-15-Per.wav,Speaker2,گوینده۲,0,64,64,34,,,,,49.49025674999939,,,,,,,,,,,,,,,,,,,,,,,,,,,,,,,,,,,,,,,,,46.5937175830004,0.0,False,46.59388466699966,286738,001,2024-07-02_08h58.30.009,5-29,2024.1.4,None,2024-07-02 08h58.34.594033 +0900,
Images/Speaker1.jpg,Images/Speaker2.jpg,Images/Speaker3.jpg,Images/Speaker4.jpg,Audio/Speaker2_Per/P2-11-Per.wav,Speaker2,گوینده۲,0,65,65,30,,,,,49.49025674999939,,,,,,,,,,,,,,,,,,,,,,,,,,,,,,,,,,,,,,,,,46.60987212499822,0.0,False,46.61004404200139,286738,001,2024-07-02_08h58.30.009,5-29,2024.1.4,None,2024-07-02 08h58.34.594033 +0900,
Images/Speaker1.jpg,Images/Speaker2.jpg,Images/Speaker3.jpg,Images/Speaker4.jpg,Audio/Speaker4_Per/P4-6-Per.wav,Speaker4,گوینده۴,0,66,66,65,,,,,49.49025674999939,,,,,,,,,,,,,,,,,,,,,,,,,,,,,,,,,,,,,,,,,46.625838583000586,0.0,False,46.62602662499921,286738,001,2024-07-02_08h58.30.009,5-29,2024.1.4,None,2024-07-02 08h58.34.594033 +0900,
Images/Speaker1.jpg,Images/Speaker2.jpg,Images/Speaker3.jpg,Images/Speaker4.jpg,Audio/Speaker2_Per/P2-2-Per.wav,Speaker2,گوینده۲,0,67,67,21,,,,,49.49025674999939,,,,,,,,,,,,,,,,,,,,,,,,,,,,,,,,,,,,,,,,,46.64254679199803,0.0,False,46.64270808299989,286738,001,2024-07-02_08h58.30.009,5-29,2024.1.4,None,2024-07-02 08h58.34.594033 +0900,
Images/Speaker1.jpg,Images/Speaker2.jpg,Images/Speaker3.jpg,Images/Speaker4.jpg,Audio/Speaker2_Per/P2-8-Per.wav,Speaker2,گوینده۲,0,68,68,27,,,,,49.49025674999939,,,,,,,,,,,,,,,,,,,,,,,,,,,,,,,,,,,,,,,,,46.65860854199855,0.0,False,46.65880712500075,286738,001,2024-07-02_08h58.30.009,5-29,2024.1.4,None,2024-07-02 08h58.34.594033 +0900,
Images/Speaker1.jpg,Images/Speaker2.jpg,Images/Speaker3.jpg,Images/Speaker4.jpg,Audio/Speaker1_Per/P1-6-Per.wav,Speaker1,گوینده ۱,0,69,69,5,,,,,49.49025674999939,,,,,,,,,,,,,,,,,,,,,,,,,,,,,,,,,,,,,,,,,46.67485283299902,0.0,False,46.67503279199809,286738,001,2024-07-02_08h58.30.009,5-29,2024.1.4,None,2024-07-02 08h58.34.594033 +0900,
Images/Speaker1.jpg,Images/Speaker2.jpg,Images/Speaker3.jpg,Images/Speaker4.jpg,Audio/Speaker3_Per/P3-11-Per.wav,Speaker3,گوینده۳,0,70,70,50,,,,,49.49025674999939,,,,,,,,,,,,,,,,,,,,,,,,,,,,,,,,,,,,,,,,,46.69103141699816,0.0,False,46.69119508299991,286738,001,2024-07-02_08h58.30.009,5-29,2024.1.4,None,2024-07-02 08h58.34.594033 +0900,
Images/Speaker1.jpg,Images/Speaker2.jpg,Images/Speaker3.jpg,Images/Speaker4.jpg,Audio/Speaker1_Per/P1-2-Per.wav,Speaker1,گوینده ۱,0,71,71,1,,,,,49.49025674999939,,,,,,,,,,,,,,,,,,,,,,,,,,,,,,,,,,,,,,,,,46.707757249998394,0.0,False,46.707904750001035,286738,001,2024-07-02_08h58.30.009,5-29,2024.1.4,None,2024-07-02 08h58.34.594033 +0900,
Images/Speaker1.jpg,Images/Speaker2.jpg,Images/Speaker3.jpg,Images/Speaker4.jpg,Audio/Speaker1_Per/P1-7-Per.wav,Speaker1,گوینده ۱,0,72,72,6,,,,,49.49025674999939,,,,,,,,,,,,,,,,,,,,,,,,,,,,,,,,,,,,,,,,,46.72379875000115,0.0,False,46.724003374998574,286738,001,2024-07-02_08h58.30.009,5-29,2024.1.4,None,2024-07-02 08h58.34.594033 +0900,
Images/Speaker1.jpg,Images/Speaker2.jpg,Images/Speaker3.jpg,Images/Speaker4.jpg,Audio/Speaker1_Per/P1-19-Per.wav,Speaker1,گوینده ۱,0,73,73,18,,,,,49.49025674999939,,,,,,,,,,,,,,,,,,,,,,,,,,,,,,,,,,,,,,,,,46.740009249999275,0.0,False,46.74016904200107,286738,001,2024-07-02_08h58.30.009,5-29,2024.1.4,None,2024-07-02 08h58.34.594033 +0900,
Images/Speaker1.jpg,Images/Speaker2.jpg,Images/Speaker3.jpg,Images/Speaker4.jpg,Audio/Speaker4_Per/P4-11-Per.wav,Speaker4,گوینده۴,0,74,74,70,,,,,49.49025674999939,,,,,,,,,,,,,,,,,,,,,,,,,,,,,,,,,,,,,,,,,46.756127249998826,0.0,False,46.75630387500132,286738,001,2024-07-02_08h58.30.009,5-29,2024.1.4,None,2024-07-02 08h58.34.594033 +0900,
Images/Speaker1.jpg,Images/Speaker2.jpg,Images/Speaker3.jpg,Images/Speaker4.jpg,Audio/Speaker3_Per/P3-19-Per.wav,Speaker3,گوینده۳,0,75,75,58,,,,,49.49025674999939,,,,,,,,,,,,,,,,,,,,,,,,,,,,,,,,,,,,,,,,,46.772855832998175,0.0,False,46.77301145800084,286738,001,2024-07-02_08h58.30.009,5-29,2024.1.4,None,2024-07-02 08h58.34.594033 +0900,
Images/Speaker1.jpg,Images/Speaker2.jpg,Images/Speaker3.jpg,Images/Speaker4.jpg,Audio/Speaker4_Per/P4-8-Per.wav,Speaker4,گوینده۴,0,76,76,67,,,,,49.49025674999939,,,,,,,,,,,,,,,,,,,,,,,,,,,,,,,,,,,,,,,,,46.788959458001045,0.0,False,46.78914916699796,286738,001,2024-07-02_08h58.30.009,5-29,2024.1.4,None,2024-07-02 08h58.34.594033 +0900,
Images/Speaker1.jpg,Images/Speaker2.jpg,Images/Speaker3.jpg,Images/Speaker4.jpg,Audio/Speaker4_Per/P4-4-Per.wav,Speaker4,گوینده۴,0,77,77,63,,,,,49.49025674999939,,,,,,,,,,,,,,,,,,,,,,,,,,,,,,,,,,,,,,,,,46.80514608299927,0.0,False,46.80536099999881,286738,001,2024-07-02_08h58.30.009,5-29,2024.1.4,None,2024-07-02 08h58.34.594033 +0900,
Images/Speaker1.jpg,Images/Speaker2.jpg,Images/Speaker3.jpg,Images/Speaker4.jpg,Audio/Speaker2_Per/P2-9-Per.wav,Speaker2,گوینده۲,0,78,78,28,,,,,49.49025674999939,,,,,,,,,,,,,,,,,,,,,,,,,,,,,,,,,,,,,,,,,46.82138141700125,0.0,False,46.82156362499882,286738,001,2024-07-02_08h58.30.009,5-29,2024.1.4,None,2024-07-02 08h58.34.594033 +0900,
Images/Speaker1.jpg,Images/Speaker2.jpg,Images/Speaker3.jpg,Images/Speaker4.jpg,Audio/Speaker1_Per/P1-20-Per.wav,Speaker1,گوینده ۱,0,79,79,19,,,,,49.49025674999939,,,,,,,,,,,,,,,,,,,,,,,,,,,,,,,,,,,,,,,,,46.83805058299913,0.0,False,46.838265875001525,286738,001,2024-07-02_08h58.30.009,5-29,2024.1.4,None,2024-07-02 08h58.34.594033 +0900,
Images/Speaker1.jpg,Images/Speaker2.jpg,Images/Speaker3.jpg,Images/Speaker4.jpg,Audio/Speaker1_Per/P1-17-Per.wav,Speaker1,گوینده ۱,1,0,80,16,,,,,49.49025674999939,,,,,,,,,,,,,,,,,,,,,,,,,,,,,,,,,,,,,,,,,46.854130332998466,0.0,False,46.854336958000204,286738,001,2024-07-02_08h58.30.009,5-29,2024.1.4,None,2024-07-02 08h58.34.594033 +0900,
Images/Speaker1.jpg,Images/Speaker2.jpg,Images/Speaker3.jpg,Images/Speaker4.jpg,Audio/Speaker3_Per/P3-18-Per.wav,Speaker3,گوینده۳,1,1,81,57,,,,,49.49025674999939,,,,,,,,,,,,,,,,,,,,,,,,,,,,,,,,,,,,,,,,,46.87030012499963,0.0,False,46.87047241699838,286738,001,2024-07-02_08h58.30.009,5-29,2024.1.4,None,2024-07-02 08h58.34.594033 +0900,
Images/Speaker1.jpg,Images/Speaker2.jpg,Images/Speaker3.jpg,Images/Speaker4.jpg,Audio/Speaker4_Per/P4-10-Per.wav,Speaker4,گوینده۴,1,2,82,69,,,,,49.49025674999939,,,,,,,,,,,,,,,,,,,,,,,,,,,,,,,,,,,,,,,,,46.88643899999806,0.0,False,46.88660137500119,286738,001,2024-07-02_08h58.30.009,5-29,2024.1.4,None,2024-07-02 08h58.34.594033 +0900,
Images/Speaker1.jpg,Images/Speaker2.jpg,Images/Speaker3.jpg,Images/Speaker4.jpg,Audio/Speaker3_Per/P3-10-Per.wav,Speaker3,گوینده۳,1,3,83,49,,,,,49.49025674999939,,,,,,,,,,,,,,,,,,,,,,,,,,,,,,,,,,,,,,,,,46.903216624999914,0.0,False,46.903387499998644,286738,001,2024-07-02_08h58.30.009,5-29,2024.1.4,None,2024-07-02 08h58.34.594033 +0900,
Images/Speaker1.jpg,Images/Speaker2.jpg,Images/Speaker3.jpg,Images/Speaker4.jpg,Audio/Speaker4_Per/P4-2-Per.wav,Speaker4,گوینده۴,1,4,84,61,,,,,49.49025674999939,,,,,,,,,,,,,,,,,,,,,,,,,,,,,,,,,,,,,,,,,46.91928729199935,0.0,False,46.91949737499817,286738,001,2024-07-02_08h58.30.009,5-29,2024.1.4,None,2024-07-02 08h58.34.594033 +0900,
Images/Speaker1.jpg,Images/Speaker2.jpg,Images/Speaker3.jpg,Images/Speaker4.jpg,Audio/Speaker1_Per/P1-11-Per.wav,Speaker1,گوینده ۱,1,5,85,10,,,,,49.49025674999939,,,,,,,,,,,,,,,,,,,,,,,,,,,,,,,,,,,,,,,,,46.935405791999074,0.0,False,46.93557362499996,286738,001,2024-07-02_08h58.30.009,5-29,2024.1.4,None,2024-07-02 08h58.34.594033 +0900,
Images/Speaker1.jpg,Images/Speaker2.jpg,Images/Speaker3.jpg,Images/Speaker4.jpg,Audio/Speaker4_Per/P4-14-Per.wav,Speaker4,گوینده۴,1,6,86,73,,,,,49.49025674999939,,,,,,,,,,,,,,,,,,,,,,,,,,,,,,,,,,,,,,,,,46.95150879200082,0.0,False,46.951671833001456,286738,001,2024-07-02_08h58.30.009,5-29,2024.1.4,None,2024-07-02 08h58.34.594033 +0900,
Images/Speaker1.jpg,Images/Speaker2.jpg,Images/Speaker3.jpg,Images/Speaker4.jpg,Audio/Speaker4_Per/P4-17-Per.wav,Speaker4,گوینده۴,1,7,87,76,,,,,49.49025674999939,,,,,,,,,,,,,,,,,,,,,,,,,,,,,,,,,,,,,,,,,46.96815741699902,0.0,False,46.968319042000076,286738,001,2024-07-02_08h58.30.009,5-29,2024.1.4,None,2024-07-02 08h58.34.594033 +0900,
Images/Speaker1.jpg,Images/Speaker2.jpg,Images/Speaker3.jpg,Images/Speaker4.jpg,Audio/Speaker2_Per/P2-10-Per.wav,Speaker2,گوینده۲,1,8,88,29,,,,,49.49025674999939,,,,,,,,,,,,,,,,,,,,,,,,,,,,,,,,,,,,,,,,,46.98437041699799,0.0,False,46.98454179200053,286738,001,2024-07-02_08h58.30.009,5-29,2024.1.4,None,2024-07-02 08h58.34.594033 +0900,
Images/Speaker1.jpg,Images/Speaker2.jpg,Images/Speaker3.jpg,Images/Speaker4.jpg,Audio/Speaker4_Per/P4-8-Per.wav,Speaker4,گوینده۴,1,9,89,67,,,,,49.49025674999939,,,,,,,,,,,,,,,,,,,,,,,,,,,,,,,,,,,,,,,,,47.00052191699797,0.0,False,47.00078479199874,286738,001,2024-07-02_08h58.30.009,5-29,2024.1.4,None,2024-07-02 08h58.34.594033 +0900,
Images/Speaker1.jpg,Images/Speaker2.jpg,Images/Speaker3.jpg,Images/Speaker4.jpg,Audio/Speaker1_Per/P1-4-Per.wav,Speaker1,گوینده ۱,1,10,90,13,,,,,49.49025674999939,,,,,,,,,,,,,,,,,,,,,,,,,,,,,,,,,,,,,,,,,47.01678600000014,0.0,False,47.0169869579986,286738,001,2024-07-02_08h58.30.009,5-29,2024.1.4,None,2024-07-02 08h58.34.594033 +0900,
Images/Speaker1.jpg,Images/Speaker2.jpg,Images/Speaker3.jpg,Images/Speaker4.jpg,Audio/Speaker4_Per/P4-5-Per.wav,Speaker4,گوینده۴,1,11,91,64,,,,,49.49025674999939,,,,,,,,,,,,,,,,,,,,,,,,,,,,,,,,,,,,,,,,,47.03356166699814,0.0,False,47.03375179199793,286738,001,2024-07-02_08h58.30.009,5-29,2024.1.4,None,2024-07-02 08h58.34.594033 +0900,
Images/Speaker1.jpg,Images/Speaker2.jpg,Images/Speaker3.jpg,Images/Speaker4.jpg,Audio/Speaker4_Per/P4-1-Per.wav,Speaker4,گوینده۴,1,12,92,60,,,,,49.49025674999939,,,,,,,,,,,,,,,,,,,,,,,,,,,,,,,,,,,,,,,,,47.04971137499888,0.0,False,47.04988975000015,286738,001,2024-07-02_08h58.30.009,5-29,2024.1.4,None,2024-07-02 08h58.34.594033 +0900,
Images/Speaker1.jpg,Images/Speaker2.jpg,Images/Speaker3.jpg,Images/Speaker4.jpg,Audio/Speaker4_Per/P4-7-Per.wav,Speaker4,گوینده۴,1,13,93,66,,,,,49.49025674999939,,,,,,,,,,,,,,,,,,,,,,,,,,,,,,,,,,,,,,,,,47.06581133299915,0.0,False,47.065985917000944,286738,001,2024-07-02_08h58.30.009,5-29,2024.1.4,None,2024-07-02 08h58.34.594033 +0900,
Images/Speaker1.jpg,Images/Speaker2.jpg,Images/Speaker3.jpg,Images/Speaker4.jpg,Audio/Speaker3_Per/P3-6-Per.wav,Speaker3,گوینده۳,1,14,94,45,,,,,49.49025674999939,,,,,,,,,,,,,,,,,,,,,,,,,,,,,,,,,,,,,,,,,47.08193041699997,0.0,False,47.08212637500037,286738,001,2024-07-02_08h58.30.009,5-29,2024.1.4,None,2024-07-02 08h58.34.594033 +0900,
Images/Speaker1.jpg,Images/Speaker2.jpg,Images/Speaker3.jpg,Images/Speaker4.jpg,Audio/Speaker4_Per/P4-3-Per.wav,Speaker4,گوینده۴,1,15,95,62,,,,,49.49025674999939,,,,,,,,,,,,,,,,,,,,,,,,,,,,,,,,,,,,,,,,,47.09863879199838,0.0,False,47.09881124999811,286738,001,2024-07-02_08h58.30.009,5-29,2024.1.4,None,2024-07-02 08h58.34.594033 +0900,
Images/Speaker1.jpg,Images/Speaker2.jpg,Images/Speaker3.jpg,Images/Speaker4.jpg,Audio/Speaker3_Per/P3-16-Per.wav,Speaker3,گوینده۳,1,16,96,55,,,,,49.49025674999939,,,,,,,,,,,,,,,,,,,,,,,,,,,,,,,,,,,,,,,,,47.114775582998845,0.0,False,47.11496637500022,286738,001,2024-07-02_08h58.30.009,5-29,2024.1.4,None,2024-07-02 08h58.34.594033 +0900,
Images/Speaker1.jpg,Images/Speaker2.jpg,Images/Speaker3.jpg,Images/Speaker4.jpg,Audio/Speaker1_Per/P1-3-Per.wav,Speaker1,گوینده ۱,1,17,97,2,,,,,49.49025674999939,,,,,,,,,,,,,,,,,,,,,,,,,,,,,,,,,,,,,,,,,47.13102262499888,0.0,False,47.13119387500046,286738,001,2024-07-02_08h58.30.009,5-29,2024.1.4,None,2024-07-02 08h58.34.594033 +0900,
Images/Speaker1.jpg,Images/Speaker2.jpg,Images/Speaker3.jpg,Images/Speaker4.jpg,Audio/Speaker1_Per/P1-6-Per.wav,Speaker1,گوینده ۱,1,18,98,5,,,,,49.49025674999939,,,,,,,,,,,,,,,,,,,,,,,,,,,,,,,,,,,,,,,,,47.14696237499811,0.0,False,47.14719637500093,286738,001,2024-07-02_08h58.30.009,5-29,2024.1.4,None,2024-07-02 08h58.34.594033 +0900,
Images/Speaker1.jpg,Images/Speaker2.jpg,Images/Speaker3.jpg,Images/Speaker4.jpg,Audio/Speaker3_Per/P3-14-Per.wav,Speaker3,گوینده۳,1,19,99,53,,,,,49.49025674999939,,,,,,,,,,,,,,,,,,,,,,,,,,,,,,,,,,,,,,,,,47.16390841699831,0.0,False,47.16407816699939,286738,001,2024-07-02_08h58.30.009,5-29,2024.1.4,None,2024-07-02 08h58.34.594033 +0900,
Images/Speaker1.jpg,Images/Speaker2.jpg,Images/Speaker3.jpg,Images/Speaker4.jpg,Audio/Speaker2_Per/P2-18-Per.wav,Speaker2,گوینده۲,1,20,100,37,,,,,49.49025674999939,,,,,,,,,,,,,,,,,,,,,,,,,,,,,,,,,,,,,,,,,47.17988574999981,0.0,False,47.180137708000984,286738,001,2024-07-02_08h58.30.009,5-29,2024.1.4,None,2024-07-02 08h58.34.594033 +0900,
Images/Speaker1.jpg,Images/Speaker2.jpg,Images/Speaker3.jpg,Images/Speaker4.jpg,Audio/Speaker3_Per/P3-7-Per.wav,Speaker3,گوینده۳,1,21,101,46,,,,,49.49025674999939,,,,,,,,,,,,,,,,,,,,,,,,,,,,,,,,,,,,,,,,,47.19614654199904,0.0,False,47.19634758299799,286738,001,2024-07-02_08h58.30.009,5-29,2024.1.4,None,2024-07-02 08h58.34.594033 +0900,
Images/Speaker1.jpg,Images/Speaker2.jpg,Images/Speaker3.jpg,Images/Speaker4.jpg,Audio/Speaker3_Per/P3-15-Per.wav,Speaker3,گوینده۳,1,22,102,54,,,,,49.49025674999939,,,,,,,,,,,,,,,,,,,,,,,,,,,,,,,,,,,,,,,,,47.212283417000435,0.0,False,47.212507374999404,286738,001,2024-07-02_08h58.30.009,5-29,2024.1.4,None,2024-07-02 08h58.34.594033 +0900,
Images/Speaker1.jpg,Images/Speaker2.jpg,Images/Speaker3.jpg,Images/Speaker4.jpg,Audio/Speaker2_Per/P2-9-Per.wav,Speaker2,گوینده۲,1,23,103,28,,,,,49.49025674999939,,,,,,,,,,,,,,,,,,,,,,,,,,,,,,,,,,,,,,,,,47.22899787500137,0.0,False,47.22917591700025,286738,001,2024-07-02_08h58.30.009,5-29,2024.1.4,None,2024-07-02 08h58.34.594033 +0900,
Images/Speaker1.jpg,Images/Speaker2.jpg,Images/Speaker3.jpg,Images/Speaker4.jpg,Audio/Speaker2_Per/P2-20-Per.wav,Speaker2,گوینده۲,1,24,104,39,,,,,49.49025674999939,,,,,,,,,,,,,,,,,,,,,,,,,,,,,,,,,,,,,,,,,47.2450356670015,0.0,False,47.245244875000935,286738,001,2024-07-02_08h58.30.009,5-29,2024.1.4,None,2024-07-02 08h58.34.594033 +0900,
Images/Speaker1.jpg,Images/Speaker2.jpg,Images/Speaker3.jpg,Images/Speaker4.jpg,Audio/Speaker2_Per/P2-17-Per.wav,Speaker2,گوینده۲,1,25,105,36,,,,,49.49025674999939,,,,,,,,,,,,,,,,,,,,,,,,,,,,,,,,,,,,,,,,,47.261222000001,0.0,False,47.26138108300074,286738,001,2024-07-02_08h58.30.009,5-29,2024.1.4,None,2024-07-02 08h58.34.594033 +0900,
Images/Speaker1.jpg,Images/Speaker2.jpg,Images/Speaker3.jpg,Images/Speaker4.jpg,Audio/Speaker1_Per/P1-2-Per.wav,Speaker1,گوینده ۱,1,26,106,1,,,,,49.49025674999939,,,,,,,,,,,,,,,,,,,,,,,,,,,,,,,,,,,,,,,,,47.27731854200101,0.0,False,47.27749712500008,286738,001,2024-07-02_08h58.30.009,5-29,2024.1.4,None,2024-07-02 08h58.34.594033 +0900,
Images/Speaker1.jpg,Images/Speaker2.jpg,Images/Speaker3.jpg,Images/Speaker4.jpg,Audio/Speaker2_Per/P2-8-Per.wav,Speaker2,گوینده۲,1,27,107,27,,,,,49.49025674999939,,,,,,,,,,,,,,,,,,,,,,,,,,,,,,,,,,,,,,,,,47.29393366699878,0.0,False,47.29410254200047,286738,001,2024-07-02_08h58.30.009,5-29,2024.1.4,None,2024-07-02 08h58.34.594033 +0900,
Images/Speaker1.jpg,Images/Speaker2.jpg,Images/Speaker3.jpg,Images/Speaker4.jpg,Audio/Speaker2_Per/P2-11-Per.wav,Speaker2,گوینده۲,1,28,108,30,,,,,49.49025674999939,,,,,,,,,,,,,,,,,,,,,,,,,,,,,,,,,,,,,,,,,47.30998708300103,0.0,False,47.31015141700118,286738,001,2024-07-02_08h58.30.009,5-29,2024.1.4,None,2024-07-02 08h58.34.594033 +0900,
Images/Speaker1.jpg,Images/Speaker2.jpg,Images/Speaker3.jpg,Images/Speaker4.jpg,Audio/Speaker2_Per/P2-14-Per.wav,Speaker2,گوینده۲,1,29,109,33,,,,,49.49025674999939,,,,,,,,,,,,,,,,,,,,,,,,,,,,,,,,,,,,,,,,,47.326042083001084,0.0,False,47.326252041999396,286738,001,2024-07-02_08h58.30.009,5-29,2024.1.4,None,2024-07-02 08h58.34.594033 +0900,
Images/Speaker1.jpg,Images/Speaker2.jpg,Images/Speaker3.jpg,Images/Speaker4.jpg,Audio/Speaker1_Per/P1-4-Per.wav,Speaker1,گوینده ۱,1,30,110,3,,,,,49.49025674999939,,,,,,,,,,,,,,,,,,,,,,,,,,,,,,,,,,,,,,,,,47.34220195799935,0.0,False,47.34237249999933,286738,001,2024-07-02_08h58.30.009,5-29,2024.1.4,None,2024-07-02 08h58.34.594033 +0900,
Images/Speaker1.jpg,Images/Speaker2.jpg,Images/Speaker3.jpg,Images/Speaker4.jpg,Audio/Speaker1_Per/P1-20-Per.wav,Speaker1,گوینده ۱,1,31,111,19,,,,,49.49025674999939,,,,,,,,,,,,,,,,,,,,,,,,,,,,,,,,,,,,,,,,,47.35887725000066,0.0,False,47.359080707999965,286738,001,2024-07-02_08h58.30.009,5-29,2024.1.4,None,2024-07-02 08h58.34.594033 +0900,
Images/Speaker1.jpg,Images/Speaker2.jpg,Images/Speaker3.jpg,Images/Speaker4.jpg,Audio/Speaker2_Per/P2-3-Per.wav,Speaker2,گوینده۲,1,32,112,22,,,,,49.49025674999939,,,,,,,,,,,,,,,,,,,,,,,,,,,,,,,,,,,,,,,,,47.3750062500003,0.0,False,47.375181542000064,286738,001,2024-07-02_08h58.30.009,5-29,2024.1.4,None,2024-07-02 08h58.34.594033 +0900,
Images/Speaker1.jpg,Images/Speaker2.jpg,Images/Speaker3.jpg,Images/Speaker4.jpg,Audio/Speaker2_Per/P2-2-Per.wav,Speaker2,گوینده۲,1,33,113,21,,,,,49.49025674999939,,,,,,,,,,,,,,,,,,,,,,,,,,,,,,,,,,,,,,,,,47.39116054199985,0.0,False,47.391349792000256,286738,001,2024-07-02_08h58.30.009,5-29,2024.1.4,None,2024-07-02 08h58.34.594033 +0900,
Images/Speaker1.jpg,Images/Speaker2.jpg,Images/Speaker3.jpg,Images/Speaker4.jpg,Audio/Speaker3_Per/P3-8-Per.wav,Speaker3,گوینده۳,1,34,114,47,,,,,49.49025674999939,,,,,,,,,,,,,,,,,,,,,,,,,,,,,,,,,,,,,,,,,47.40719341699878,0.0,False,47.407372582998505,286738,001,2024-07-02_08h58.30.009,5-29,2024.1.4,None,2024-07-02 08h58.34.594033 +0900,
Images/Speaker1.jpg,Images/Speaker2.jpg,Images/Speaker3.jpg,Images/Speaker4.jpg,Audio/Speaker4_Per/P4-11-Per.wav,Speaker4,گوینده۴,1,35,115,70,,,,,49.49025674999939,,,,,,,,,,,,,,,,,,,,,,,,,,,,,,,,,,,,,,,,,47.42385262500102,0.0,False,47.424017707999155,286738,001,2024-07-02_08h58.30.009,5-29,2024.1.4,None,2024-07-02 08h58.34.594033 +0900,
Images/Speaker1.jpg,Images/Speaker2.jpg,Images/Speaker3.jpg,Images/Speaker4.jpg,Audio/Speaker2_Per/P2-6-Per.wav,Speaker2,گوینده۲,1,36,116,25,,,,,49.49025674999939,,,,,,,,,,,,,,,,,,,,,,,,,,,,,,,,,,,,,,,,,47.4398687920002,0.0,False,47.440101542000775,286738,001,2024-07-02_08h58.30.009,5-29,2024.1.4,None,2024-07-02 08h58.34.594033 +0900,
Images/Speaker1.jpg,Images/Speaker2.jpg,Images/Speaker3.jpg,Images/Speaker4.jpg,Audio/Speaker1_Per/P1-7-Per.wav,Speaker1,گوینده ۱,1,37,117,6,,,,,49.49025674999939,,,,,,,,,,,,,,,,,,,,,,,,,,,,,,,,,,,,,,,,,47.45596737500091,0.0,False,47.45617429200138,286738,001,2024-07-02_08h58.30.009,5-29,2024.1.4,None,2024-07-02 08h58.34.594033 +0900,
Images/Speaker1.jpg,Images/Speaker2.jpg,Images/Speaker3.jpg,Images/Speaker4.jpg,Audio/Speaker4_Per/P4-12-Per.wav,Speaker4,گوینده۴,1,38,118,71,,,,,49.49025674999939,,,,,,,,,,,,,,,,,,,,,,,,,,,,,,,,,,,,,,,,,47.47206466699936,0.0,False,47.47223666699938,286738,001,2024-07-02_08h58.30.009,5-29,2024.1.4,None,2024-07-02 08h58.34.594033 +0900,
Images/Speaker1.jpg,Images/Speaker2.jpg,Images/Speaker3.jpg,Images/Speaker4.jpg,Audio/Speaker1_Per/P1-18-Per.wav,Speaker1,گوینده ۱,1,39,119,17,,,,,49.49025674999939,,,,,,,,,,,,,,,,,,,,,,,,,,,,,,,,,,,,,,,,,47.48881087499831,0.0,False,47.48897170800046,286738,001,2024-07-02_08h58.30.009,5-29,2024.1.4,None,2024-07-02 08h58.34.594033 +0900,
Images/Speaker1.jpg,Images/Speaker2.jpg,Images/Speaker3.jpg,Images/Speaker4.jpg,Audio/Speaker3_Per/P3-3-Per.wav,Speaker3,گوینده۳,1,40,120,42,,,,,49.49025674999939,,,,,,,,,,,,,,,,,,,,,,,,,,,,,,,,,,,,,,,,,47.50507125000149,0.0,False,47.50523774999965,286738,001,2024-07-02_08h58.30.009,5-29,2024.1.4,None,2024-07-02 08h58.34.594033 +0900,
Images/Speaker1.jpg,Images/Speaker2.jpg,Images/Speaker3.jpg,Images/Speaker4.jpg,Audio/Speaker1_Per/P1-9-Per.wav,Speaker1,گوینده ۱,1,41,121,8,,,,,49.49025674999939,,,,,,,,,,,,,,,,,,,,,,,,,,,,,,,,,,,,,,,,,47.521015833001,0.0,False,47.52122070800033,286738,001,2024-07-02_08h58.30.009,5-29,2024.1.4,None,2024-07-02 08h58.34.594033 +0900,
Images/Speaker1.jpg,Images/Speaker2.jpg,Images/Speaker3.jpg,Images/Speaker4.jpg,Audio/Speaker1_Per/P1-10-Per.wav,Speaker1,گوینده ۱,1,42,122,9,,,,,49.49025674999939,,,,,,,,,,,,,,,,,,,,,,,,,,,,,,,,,,,,,,,,,47.53714495799795,0.0,False,47.537303000000975,286738,001,2024-07-02_08h58.30.009,5-29,2024.1.4,None,2024-07-02 08h58.34.594033 +0900,
Images/Speaker1.jpg,Images/Speaker2.jpg,Images/Speaker3.jpg,Images/Speaker4.jpg,Audio/Speaker3_Per/P3-17-Per.wav,Speaker3,گوینده۳,1,43,123,56,,,,,49.49025674999939,,,,,,,,,,,,,,,,,,,,,,,,,,,,,,,,,,,,,,,,,47.553853999997955,0.0,False,47.55405691700071,286738,001,2024-07-02_08h58.30.009,5-29,2024.1.4,None,2024-07-02 08h58.34.594033 +0900,
Images/Speaker1.jpg,Images/Speaker2.jpg,Images/Speaker3.jpg,Images/Speaker4.jpg,Audio/Speaker3_Per/P3-4-Per.wav,Speaker3,گوینده۳,1,44,124,43,,,,,49.49025674999939,,,,,,,,,,,,,,,,,,,,,,,,,,,,,,,,,,,,,,,,,47.569995707999624,0.0,False,47.57016337499954,286738,001,2024-07-02_08h58.30.009,5-29,2024.1.4,None,2024-07-02 08h58.34.594033 +0900,
Images/Speaker1.jpg,Images/Speaker2.jpg,Images/Speaker3.jpg,Images/Speaker4.jpg,Audio/Speaker3_Per/P3-12-Per.wav,Speaker3,گوینده۳,1,45,125,51,,,,,49.49025674999939,,,,,,,,,,,,,,,,,,,,,,,,,,,,,,,,,,,,,,,,,47.586125124998944,0.0,False,47.58629816699977,286738,001,2024-07-02_08h58.30.009,5-29,2024.1.4,None,2024-07-02 08h58.34.594033 +0900,
Images/Speaker1.jpg,Images/Speaker2.jpg,Images/Speaker3.jpg,Images/Speaker4.jpg,Audio/Speaker2_Per/P2-12-Per.wav,Speaker2,گوینده۲,1,46,126,31,,,,,49.49025674999939,,,,,,,,,,,,,,,,,,,,,,,,,,,,,,,,,,,,,,,,,47.60227204200055,0.0,False,47.6024328329986,286738,001,2024-07-02_08h58.30.009,5-29,2024.1.4,None,2024-07-02 08h58.34.594033 +0900,
Images/Speaker1.jpg,Images/Speaker2.jpg,Images/Speaker3.jpg,Images/Speaker4.jpg,Audio/Speaker1_Per/P1-8-Per.wav,Speaker1,گوینده ۱,1,47,127,7,,,,,49.49025674999939,,,,,,,,,,,,,,,,,,,,,,,,,,,,,,,,,,,,,,,,,47.61914162500034,0.0,False,47.619307832999766,286738,001,2024-07-02_08h58.30.009,5-29,2024.1.4,None,2024-07-02 08h58.34.594033 +0900,
Images/Speaker1.jpg,Images/Speaker2.jpg,Images/Speaker3.jpg,Images/Speaker4.jpg,Audio/Speaker3_Per/P3-20-Per.wav,Speaker3,گوینده۳,1,48,128,59,,,,,49.49025674999939,,,,,,,,,,,,,,,,,,,,,,,,,,,,,,,,,,,,,,,,,47.6351327500015,0.0,False,47.63529304199983,286738,001,2024-07-02_08h58.30.009,5-29,2024.1.4,None,2024-07-02 08h58.34.594033 +0900,
Images/Speaker1.jpg,Images/Speaker2.jpg,Images/Speaker3.jpg,Images/Speaker4.jpg,Audio/Speaker4_Per/P4-16-Per.wav,Speaker4,گوینده۴,1,49,129,75,,,,,49.49025674999939,,,,,,,,,,,,,,,,,,,,,,,,,,,,,,,,,,,,,,,,,47.65124054199987,0.0,False,47.651413291998324,286738,001,2024-07-02_08h58.30.009,5-29,2024.1.4,None,2024-07-02 08h58.34.594033 +0900,
Images/Speaker1.jpg,Images/Speaker2.jpg,Images/Speaker3.jpg,Images/Speaker4.jpg,Audio/Speaker1_Per/P1-12-Per.wav,Speaker1,گوینده ۱,1,50,130,11,,,,,49.49025674999939,,,,,,,,,,,,,,,,,,,,,,,,,,,,,,,,,,,,,,,,,47.66733833299804,0.0,False,47.667495249999774,286738,001,2024-07-02_08h58.30.009,5-29,2024.1.4,None,2024-07-02 08h58.34.594033 +0900,
Images/Speaker1.jpg,Images/Speaker2.jpg,Images/Speaker3.jpg,Images/Speaker4.jpg,Audio/Speaker3_Per/P3-11-Per.wav,Speaker3,گوینده۳,1,51,131,50,,,,,49.49025674999939,,,,,,,,,,,,,,,,,,,,,,,,,,,,,,,,,,,,,,,,,47.68386229200041,0.0,False,47.68401204199836,286738,001,2024-07-02_08h58.30.009,5-29,2024.1.4,None,2024-07-02 08h58.34.594033 +0900,
Images/Speaker1.jpg,Images/Speaker2.jpg,Images/Speaker3.jpg,Images/Speaker4.jpg,Audio/Speaker4_Per/P4-20-Per.wav,Speaker4,گوینده۴,1,52,132,79,,,,,49.49025674999939,,,,,,,,,,,,,,,,,,,,,,,,,,,,,,,,,,,,,,,,,47.700000083001214,0.0,False,47.70017179199931,286738,001,2024-07-02_08h58.30.009,5-29,2024.1.4,None,2024-07-02 08h58.34.594033 +0900,
Images/Speaker1.jpg,Images/Speaker2.jpg,Images/Speaker3.jpg,Images/Speaker4.jpg,Audio/Speaker3_Per/P3-1-Per.wav,Speaker3,گوینده۳,1,53,133,40,,,,,49.49025674999939,,,,,,,,,,,,,,,,,,,,,,,,,,,,,,,,,,,,,,,,,47.716115750001336,0.0,False,47.71627525000076,286738,001,2024-07-02_08h58.30.009,5-29,2024.1.4,None,2024-07-02 08h58.34.594033 +0900,
Images/Speaker1.jpg,Images/Speaker2.jpg,Images/Speaker3.jpg,Images/Speaker4.jpg,Audio/Speaker4_Per/P4-4-Per.wav,Speaker4,گوینده۴,1,54,134,63,,,,,49.49025674999939,,,,,,,,,,,,,,,,,,,,,,,,,,,,,,,,,,,,,,,,,47.73200758299936,0.0,False,47.732153000000835,286738,001,2024-07-02_08h58.30.009,5-29,2024.1.4,None,2024-07-02 08h58.34.594033 +0900,
Images/Speaker1.jpg,Images/Speaker2.jpg,Images/Speaker3.jpg,Images/Speaker4.jpg,Audio/Speaker1_Per/P1-15-Per.wav,Speaker1,گوینده ۱,1,55,135,14,,,,,49.49025674999939,,,,,,,,,,,,,,,,,,,,,,,,,,,,,,,,,,,,,,,,,47.7487038750005,0.0,False,47.74886008300018,286738,001,2024-07-02_08h58.30.009,5-29,2024.1.4,None,2024-07-02 08h58.34.594033 +0900,
Images/Speaker1.jpg,Images/Speaker2.jpg,Images/Speaker3.jpg,Images/Speaker4.jpg,Audio/Speaker3_Per/P3-9-Per.wav,Speaker3,گوینده۳,1,56,136,48,,,,,49.49025674999939,,,,,,,,,,,,,,,,,,,,,,,,,,,,,,,,,,,,,,,,,47.76478187500106,0.0,False,47.76498429200001,286738,001,2024-07-02_08h58.30.009,5-29,2024.1.4,None,2024-07-02 08h58.34.594033 +0900,
Images/Speaker1.jpg,Images/Speaker2.jpg,Images/Speaker3.jpg,Images/Speaker4.jpg,Audio/Speaker2_Per/P2-7-Per.wav,Speaker2,گوینده۲,1,57,137,26,,,,,49.49025674999939,,,,,,,,,,,,,,,,,,,,,,,,,,,,,,,,,,,,,,,,,47.78080945799957,0.0,False,47.78099341699999,286738,001,2024-07-02_08h58.30.009,5-29,2024.1.4,None,2024-07-02 08h58.34.594033 +0900,
Images/Speaker1.jpg,Images/Speaker2.jpg,Images/Speaker3.jpg,Images/Speaker4.jpg,Audio/Speaker2_Per/P2-1-Per.wav,Speaker2,گوینده۲,1,58,138,20,,,,,49.49025674999939,,,,,,,,,,,,,,,,,,,,,,,,,,,,,,,,,,,,,,,,,47.79694675000064,0.0,False,47.797117750000325,286738,001,2024-07-02_08h58.30.009,5-29,2024.1.4,None,2024-07-02 08h58.34.594033 +0900,
Images/Speaker1.jpg,Images/Speaker2.jpg,Images/Speaker3.jpg,Images/Speaker4.jpg,Audio/Speaker1_Per/P1-5-Per.wav,Speaker1,گوینده ۱,1,59,139,4,,,,,49.49025674999939,,,,,,,,,,,,,,,,,,,,,,,,,,,,,,,,,,,,,,,,,47.81362870800149,0.0,False,47.81380016700132,286738,001,2024-07-02_08h58.30.009,5-29,2024.1.4,None,2024-07-02 08h58.34.594033 +0900,
Images/Speaker1.jpg,Images/Speaker2.jpg,Images/Speaker3.jpg,Images/Speaker4.jpg,Audio/Speaker1_Per/P1-19-Per.wav,Speaker1,گوینده ۱,1,60,140,18,,,,,49.49025674999939,,,,,,,,,,,,,,,,,,,,,,,,,,,,,,,,,,,,,,,,,47.829765582999244,0.0,False,47.82993208300104,286738,001,2024-07-02_08h58.30.009,5-29,2024.1.4,None,2024-07-02 08h58.34.594033 +0900,
Images/Speaker1.jpg,Images/Speaker2.jpg,Images/Speaker3.jpg,Images/Speaker4.jpg,Audio/Speaker1_Per/P1-16-Per.wav,Speaker1,گوینده ۱,1,61,141,15,,,,,49.49025674999939,,,,,,,,,,,,,,,,,,,,,,,,,,,,,,,,,,,,,,,,,47.84588249999797,0.0,False,47.846071583000594,286738,001,2024-07-02_08h58.30.009,5-29,2024.1.4,None,2024-07-02 08h58.34.594033 +0900,
Images/Speaker1.jpg,Images/Speaker2.jpg,Images/Speaker3.jpg,Images/Speaker4.jpg,Audio/Speaker4_Per/P4-9-Per.wav,Speaker4,گوینده۴,1,62,142,68,,,,,49.49025674999939,,,,,,,,,,,,,,,,,,,,,,,,,,,,,,,,,,,,,,,,,47.861960541999,0.0,False,47.86219204200097,286738,001,2024-07-02_08h58.30.009,5-29,2024.1.4,None,2024-07-02 08h58.34.594033 +0900,
Images/Speaker1.jpg,Images/Speaker2.jpg,Images/Speaker3.jpg,Images/Speaker4.jpg,Audio/Speaker1_Per/P1-1-Per.wav,Speaker1,گوینده ۱,1,63,143,0,,,,,49.49025674999939,,,,,,,,,,,,,,,,,,,,,,,,,,,,,,,,,,,,,,,,,47.8786864169997,0.0,False,47.87886737499866,286738,001,2024-07-02_08h58.30.009,5-29,2024.1.4,None,2024-07-02 08h58.34.594033 +0900,
Images/Speaker1.jpg,Images/Speaker2.jpg,Images/Speaker3.jpg,Images/Speaker4.jpg,Audio/Speaker4_Per/P4-15-Per.wav,Speaker4,گوینده۴,1,64,144,74,,,,,49.49025674999939,,,,,,,,,,,,,,,,,,,,,,,,,,,,,,,,,,,,,,,,,47.89485083299951,0.0,False,47.89502808299949,286738,001,2024-07-02_08h58.30.009,5-29,2024.1.4,None,2024-07-02 08h58.34.594033 +0900,
Images/Speaker1.jpg,Images/Speaker2.jpg,Images/Speaker3.jpg,Images/Speaker4.jpg,Audio/Speaker4_Per/P4-19-Per.wav,Speaker4,گوینده۴,1,65,145,78,,,,,49.49025674999939,,,,,,,,,,,,,,,,,,,,,,,,,,,,,,,,,,,,,,,,,47.91099224999925,0.0,False,47.91118904199902,286738,001,2024-07-02_08h58.30.009,5-29,2024.1.4,None,2024-07-02 08h58.34.594033 +0900,
Images/Speaker1.jpg,Images/Speaker2.jpg,Images/Speaker3.jpg,Images/Speaker4.jpg,Audio/Speaker4_Per/P4-13-Per.wav,Speaker4,گوینده۴,1,66,146,72,,,,,49.49025674999939,,,,,,,,,,,,,,,,,,,,,,,,,,,,,,,,,,,,,,,,,47.92702808299873,0.0,False,47.927214208000805,286738,001,2024-07-02_08h58.30.009,5-29,2024.1.4,None,2024-07-02 08h58.34.594033 +0900,
Images/Speaker1.jpg,Images/Speaker2.jpg,Images/Speaker3.jpg,Images/Speaker4.jpg,Audio/Speaker1_Per/P1-13-Per.wav,Speaker1,گوینده ۱,1,67,147,12,,,,,49.49025674999939,,,,,,,,,,,,,,,,,,,,,,,,,,,,,,,,,,,,,,,,,47.94370945799892,0.0,False,47.9438755830015,286738,001,2024-07-02_08h58.30.009,5-29,2024.1.4,None,2024-07-02 08h58.34.594033 +0900,
Images/Speaker1.jpg,Images/Speaker2.jpg,Images/Speaker3.jpg,Images/Speaker4.jpg,Audio/Speaker4_Per/P4-6-Per.wav,Speaker4,گوینده۴,1,68,148,65,,,,,49.49025674999939,,,,,,,,,,,,,,,,,,,,,,,,,,,,,,,,,,,,,,,,,47.959940832999564,0.0,False,47.96014208300039,286738,001,2024-07-02_08h58.30.009,5-29,2024.1.4,None,2024-07-02 08h58.34.594033 +0900,
Images/Speaker1.jpg,Images/Speaker2.jpg,Images/Speaker3.jpg,Images/Speaker4.jpg,Audio/Speaker2_Per/P2-13-Per.wav,Speaker2,گوینده۲,1,69,149,32,,,,,49.49025674999939,,,,,,,,,,,,,,,,,,,,,,,,,,,,,,,,,,,,,,,,,47.975997458001075,0.0,False,47.97616954199839,286738,001,2024-07-02_08h58.30.009,5-29,2024.1.4,None,2024-07-02 08h58.34.594033 +0900,
Images/Speaker1.jpg,Images/Speaker2.jpg,Images/Speaker3.jpg,Images/Speaker4.jpg,Audio/Speaker2_Per/P2-4-Per.wav,Speaker2,گوینده۲,1,70,150,23,,,,,49.49025674999939,,,,,,,,,,,,,,,,,,,,,,,,,,,,,,,,,,,,,,,,,47.992047583000385,0.0,False,47.99226749999798,286738,001,2024-07-02_08h58.30.009,5-29,2024.1.4,None,2024-07-02 08h58.34.594033 +0900,
Images/Speaker1.jpg,Images/Speaker2.jpg,Images/Speaker3.jpg,Images/Speaker4.jpg,Audio/Speaker3_Per/P3-13-Per.wav,Speaker3,گوینده۳,1,71,151,52,,,,,49.49025674999939,,,,,,,,,,,,,,,,,,,,,,,,,,,,,,,,,,,,,,,,,48.00879887499832,0.0,False,48.00896737500079,286738,001,2024-07-02_08h58.30.009,5-29,2024.1.4,None,2024-07-02 08h58.34.594033 +0900,
Images/Speaker1.jpg,Images/Speaker2.jpg,Images/Speaker3.jpg,Images/Speaker4.jpg,Audio/Speaker2_Per/P2-19-Per.wav,Speaker2,گوینده۲,1,72,152,38,,,,,49.49025674999939,,,,,,,,,,,,,,,,,,,,,,,,,,,,,,,,,,,,,,,,,48.02496670799883,0.0,False,48.025162541998725,286738,001,2024-07-02_08h58.30.009,5-29,2024.1.4,None,2024-07-02 08h58.34.594033 +0900,
Images/Speaker1.jpg,Images/Speaker2.jpg,Images/Speaker3.jpg,Images/Speaker4.jpg,Audio/Speaker2_Per/P2-15-Per.wav,Speaker2,گوینده۲,1,73,153,34,,,,,49.49025674999939,,,,,,,,,,,,,,,,,,,,,,,,,,,,,,,,,,,,,,,,,48.04118479200042,0.0,False,48.041342749998876,286738,001,2024-07-02_08h58.30.009,5-29,2024.1.4,None,2024-07-02 08h58.34.594033 +0900,
Images/Speaker1.jpg,Images/Speaker2.jpg,Images/Speaker3.jpg,Images/Speaker4.jpg,Audio/Speaker4_Per/P4-18-Per.wav,Speaker4,گوینده۴,1,74,154,77,,,,,49.49025674999939,,,,,,,,,,,,,,,,,,,,,,,,,,,,,,,,,,,,,,,,,48.05719916700036,0.0,False,48.05736391699975,286738,001,2024-07-02_08h58.30.009,5-29,2024.1.4,None,2024-07-02 08h58.34.594033 +0900,
Images/Speaker1.jpg,Images/Speaker2.jpg,Images/Speaker3.jpg,Images/Speaker4.jpg,Audio/Speaker2_Per/P2-16-Per.wav,Speaker2,گوینده۲,1,75,155,35,,,,,49.49025674999939,,,,,,,,,,,,,,,,,,,,,,,,,,,,,,,,,,,,,,,,,48.0739179580014,0.0,False,48.07408641700022,286738,001,2024-07-02_08h58.30.009,5-29,2024.1.4,None,2024-07-02 08h58.34.594033 +0900,
Images/Speaker1.jpg,Images/Speaker2.jpg,Images/Speaker3.jpg,Images/Speaker4.jpg,Audio/Speaker3_Per/P3-5-Per.wav,Speaker3,گوینده۳,1,76,156,44,,,,,49.49025674999939,,,,,,,,,,,,,,,,,,,,,,,,,,,,,,,,,,,,,,,,,48.089889708000555,0.0,False,48.09007316700081,286738,001,2024-07-02_08h58.30.009,5-29,2024.1.4,None,2024-07-02 08h58.34.594033 +0900,
Images/Speaker1.jpg,Images/Speaker2.jpg,Images/Speaker3.jpg,Images/Speaker4.jpg,Audio/Speaker3_Per/P3-2-Per.wav,Speaker3,گوینده۳,1,77,157,41,,,,,49.49025674999939,,,,,,,,,,,,,,,,,,,,,,,,,,,,,,,,,,,,,,,,,48.10605066700009,0.0,False,48.10622175000026,286738,001,2024-07-02_08h58.30.009,5-29,2024.1.4,None,2024-07-02 08h58.34.594033 +0900,
Images/Speaker1.jpg,Images/Speaker2.jpg,Images/Speaker3.jpg,Images/Speaker4.jpg,Audio/Speaker2_Per/P2-5-Per.wav,Speaker2,گوینده۲,1,78,158,24,,,,,49.49025674999939,,,,,,,,,,,,,,,,,,,,,,,,,,,,,,,,,,,,,,,,,48.12212625000029,0.0,False,48.12232858299831,286738,001,2024-07-02_08h58.30.009,5-29,2024.1.4,None,2024-07-02 08h58.34.594033 +0900,
Images/Speaker1.jpg,Images/Speaker2.jpg,Images/Speaker3.jpg,Images/Speaker4.jpg,Audio/Speaker3_Per/P3-19-Per.wav,Speaker3,گوینده۳,1,79,159,58,,,,,49.49025674999939,,,,,,,,,,,,,,,,,,,,,,,,,,,,,,,,,,,,,,,,,48.138785082999675,0.0,False,48.13895429200056,286738,001,2024-07-02_08h58.30.009,5-29,2024.1.4,None,2024-07-02 08h58.34.594033 +0900,
Images/Speaker1.jpg,Images/Speaker2.jpg,Images/Speaker3.jpg,Images/Speaker4.jpg,Audio/Speaker1_Per/P1-7-Per.wav,Speaker1,گوینده ۱,2,0,160,6,,,,,49.49025674999939,,,,,,,,,,,,,,,,,,,,,,,,,,,,,,,,,,,,,,,,,48.15484508300142,0.0,False,48.15501716699873,286738,001,2024-07-02_08h58.30.009,5-29,2024.1.4,None,2024-07-02 08h58.34.594033 +0900,
Images/Speaker1.jpg,Images/Speaker2.jpg,Images/Speaker3.jpg,Images/Speaker4.jpg,Audio/Speaker4_Per/P4-1-Per.wav,Speaker4,گوینده۴,2,1,161,60,,,,,49.49025674999939,,,,,,,,,,,,,,,,,,,,,,,,,,,,,,,,,,,,,,,,,48.170999041998584,0.0,False,48.171206916998926,286738,001,2024-07-02_08h58.30.009,5-29,2024.1.4,None,2024-07-02 08h58.34.594033 +0900,
Images/Speaker1.jpg,Images/Speaker2.jpg,Images/Speaker3.jpg,Images/Speaker4.jpg,Audio/Speaker3_Per/P3-19-Per.wav,Speaker3,گوینده۳,2,2,162,58,,,,,49.49025674999939,,,,,,,,,,,,,,,,,,,,,,,,,,,,,,,,,,,,,,,,,48.18718770800115,0.0,False,48.18736649999846,286738,001,2024-07-02_08h58.30.009,5-29,2024.1.4,None,2024-07-02 08h58.34.594033 +0900,
Images/Speaker1.jpg,Images/Speaker2.jpg,Images/Speaker3.jpg,Images/Speaker4.jpg,Audio/Speaker2_Per/P2-20-Per.wav,Speaker2,گوینده۲,2,3,163,39,,,,,49.49025674999939,,,,,,,,,,,,,,,,,,,,,,,,,,,,,,,,,,,,,,,,,48.203984916999616,0.0,False,48.204166457999236,286738,001,2024-07-02_08h58.30.009,5-29,2024.1.4,None,2024-07-02 08h58.34.594033 +0900,
Images/Speaker1.jpg,Images/Speaker2.jpg,Images/Speaker3.jpg,Images/Speaker4.jpg,Audio/Speaker3_Per/P3-20-Per.wav,Speaker3,گوینده۳,2,4,164,59,,,,,49.49025674999939,,,,,,,,,,,,,,,,,,,,,,,,,,,,,,,,,,,,,,,,,48.22011604200088,0.0,False,48.22028479199798,286738,001,2024-07-02_08h58.30.009,5-29,2024.1.4,None,2024-07-02 08h58.34.594033 +0900,
Images/Speaker1.jpg,Images/Speaker2.jpg,Images/Speaker3.jpg,Images/Speaker4.jpg,Audio/Speaker4_Per/P4-17-Per.wav,Speaker4,گوینده۴,2,5,165,76,,,,,49.49025674999939,,,,,,,,,,,,,,,,,,,,,,,,,,,,,,,,,,,,,,,,,48.23622937500113,0.0,False,48.23643529200126,286738,001,2024-07-02_08h58.30.009,5-29,2024.1.4,None,2024-07-02 08h58.34.594033 +0900,
Images/Speaker1.jpg,Images/Speaker2.jpg,Images/Speaker3.jpg,Images/Speaker4.jpg,Audio/Speaker1_Per/P1-20-Per.wav,Speaker1,گوینده ۱,2,6,166,19,,,,,49.49025674999939,,,,,,,,,,,,,,,,,,,,,,,,,,,,,,,,,,,,,,,,,48.25233274999846,0.0,False,48.25256379200073,286738,001,2024-07-02_08h58.30.009,5-29,2024.1.4,None,2024-07-02 08h58.34.594033 +0900,
Images/Speaker1.jpg,Images/Speaker2.jpg,Images/Speaker3.jpg,Images/Speaker4.jpg,Audio/Speaker1_Per/P1-1-Per.wav,Speaker1,گوینده ۱,2,7,167,0,,,,,49.49025674999939,,,,,,,,,,,,,,,,,,,,,,,,,,,,,,,,,,,,,,,,,48.26910258299904,0.0,False,48.269277583000076,286738,001,2024-07-02_08h58.30.009,5-29,2024.1.4,None,2024-07-02 08h58.34.594033 +0900,
Images/Speaker1.jpg,Images/Speaker2.jpg,Images/Speaker3.jpg,Images/Speaker4.jpg,Audio/Speaker2_Per/P2-2-Per.wav,Speaker2,گوینده۲,2,8,168,21,,,,,49.49025674999939,,,,,,,,,,,,,,,,,,,,,,,,,,,,,,,,,,,,,,,,,48.28524762500092,0.0,False,48.28542841699891,286738,001,2024-07-02_08h58.30.009,5-29,2024.1.4,None,2024-07-02 08h58.34.594033 +0900,
Images/Speaker1.jpg,Images/Speaker2.jpg,Images/Speaker3.jpg,Images/Speaker4.jpg,Audio/Speaker1_Per/P1-5-Per.wav,Speaker1,گوینده ۱,2,9,169,4,,,,,49.49025674999939,,,,,,,,,,,,,,,,,,,,,,,,,,,,,,,,,,,,,,,,,48.30135733299903,0.0,False,48.30152129199996,286738,001,2024-07-02_08h58.30.009,5-29,2024.1.4,None,2024-07-02 08h58.34.594033 +0900,
Images/Speaker1.jpg,Images/Speaker2.jpg,Images/Speaker3.jpg,Images/Speaker4.jpg,Audio/Speaker4_Per/P4-5-Per.wav,Speaker4,گوینده۴,2,10,170,64,,,,,49.49025674999939,,,,,,,,,,,,,,,,,,,,,,,,,,,,,,,,,,,,,,,,,48.317532083001424,0.0,False,48.31768983299844,286738,001,2024-07-02_08h58.30.009,5-29,2024.1.4,None,2024-07-02 08h58.34.594033 +0900,
Images/Speaker1.jpg,Images/Speaker2.jpg,Images/Speaker3.jpg,Images/Speaker4.jpg,Audio/Speaker4_Per/P4-10-Per.wav,Speaker4,گوینده۴,2,11,171,69,,,,,49.49025674999939,,,,,,,,,,,,,,,,,,,,,,,,,,,,,,,,,,,,,,,,,48.33428316700156,0.0,False,48.33448525000131,286738,001,2024-07-02_08h58.30.009,5-29,2024.1.4,None,2024-07-02 08h58.34.594033 +0900,
Images/Speaker1.jpg,Images/Speaker2.jpg,Images/Speaker3.jpg,Images/Speaker4.jpg,Audio/Speaker1_Per/P1-18-Per.wav,Speaker1,گوینده ۱,2,12,172,17,,,,,49.49025674999939,,,,,,,,,,,,,,,,,,,,,,,,,,,,,,,,,,,,,,,,,48.350451541999064,0.0,False,48.350627916999656,286738,001,2024-07-02_08h58.30.009,5-29,2024.1.4,None,2024-07-02 08h58.34.594033 +0900,
Images/Speaker1.jpg,Images/Speaker2.jpg,Images/Speaker3.jpg,Images/Speaker4.jpg,Audio/Speaker2_Per/P2-5-Per.wav,Speaker2,گوینده۲,2,13,173,24,,,,,49.49025674999939,,,,,,,,,,,,,,,,,,,,,,,,,,,,,,,,,,,,,,,,,48.36646666700108,0.0,False,48.36665591700148,286738,001,2024-07-02_08h58.30.009,5-29,2024.1.4,None,2024-07-02 08h58.34.594033 +0900,
Images/Speaker1.jpg,Images/Speaker2.jpg,Images/Speaker3.jpg,Images/Speaker4.jpg,Audio/Speaker1_Per/P1-2-Per.wav,Speaker1,گوینده ۱,2,14,174,1,,,,,49.49025674999939,,,,,,,,,,,,,,,,,,,,,,,,,,,,,,,,,,,,,,,,,48.38263279199964,0.0,False,48.38282312500087,286738,001,2024-07-02_08h58.30.009,5-29,2024.1.4,None,2024-07-02 08h58.34.594033 +0900,
Images/Speaker1.jpg,Images/Speaker2.jpg,Images/Speaker3.jpg,Images/Speaker4.jpg,Audio/Speaker1_Per/P1-4-Per.wav,Speaker1,گوینده ۱,2,15,175,13,,,,,49.49025674999939,,,,,,,,,,,,,,,,,,,,,,,,,,,,,,,,,,,,,,,,,48.399331749998964,0.0,False,48.39949108300061,286738,001,2024-07-02_08h58.30.009,5-29,2024.1.4,None,2024-07-02 08h58.34.594033 +0900,
Images/Speaker1.jpg,Images/Speaker2.jpg,Images/Speaker3.jpg,Images/Speaker4.jpg,Audio/Speaker4_Per/P4-6-Per.wav,Speaker4,گوینده۴,2,16,176,65,,,,,49.49025674999939,,,,,,,,,,,,,,,,,,,,,,,,,,,,,,,,,,,,,,,,,48.41540716699819,0.0,False,48.41556879199925,286738,001,2024-07-02_08h58.30.009,5-29,2024.1.4,None,2024-07-02 08h58.34.594033 +0900,
Images/Speaker1.jpg,Images/Speaker2.jpg,Images/Speaker3.jpg,Images/Speaker4.jpg,Audio/Speaker2_Per/P2-8-Per.wav,Speaker2,گوینده۲,2,17,177,27,,,,,49.49025674999939,,,,,,,,,,,,,,,,,,,,,,,,,,,,,,,,,,,,,,,,,48.43151479199878,0.0,False,48.431679875000555,286738,001,2024-07-02_08h58.30.009,5-29,2024.1.4,None,2024-07-02 08h58.34.594033 +0900,
Images/Speaker1.jpg,Images/Speaker2.jpg,Images/Speaker3.jpg,Images/Speaker4.jpg,Audio/Speaker3_Per/P3-10-Per.wav,Speaker3,گوینده۳,2,18,178,49,,,,,49.49025674999939,,,,,,,,,,,,,,,,,,,,,,,,,,,,,,,,,,,,,,,,,48.447511833001045,0.0,False,48.44768658300018,286738,001,2024-07-02_08h58.30.009,5-29,2024.1.4,None,2024-07-02 08h58.34.594033 +0900,
Images/Speaker1.jpg,Images/Speaker2.jpg,Images/Speaker3.jpg,Images/Speaker4.jpg,Audio/Speaker3_Per/P3-12-Per.wav,Speaker3,گوینده۳,2,19,179,51,,,,,49.49025674999939,,,,,,,,,,,,,,,,,,,,,,,,,,,,,,,,,,,,,,,,,48.46414208300121,0.0,False,48.46431154200036,286738,001,2024-07-02_08h58.30.009,5-29,2024.1.4,None,2024-07-02 08h58.34.594033 +0900,
Images/Speaker1.jpg,Images/Speaker2.jpg,Images/Speaker3.jpg,Images/Speaker4.jpg,Audio/Speaker2_Per/P2-9-Per.wav,Speaker2,گوینده۲,2,20,180,28,,,,,49.49025674999939,,,,,,,,,,,,,,,,,,,,,,,,,,,,,,,,,,,,,,,,,48.480279874998814,0.0,False,48.48046720799903,286738,001,2024-07-02_08h58.30.009,5-29,2024.1.4,None,2024-07-02 08h58.34.594033 +0900,
Images/Speaker1.jpg,Images/Speaker2.jpg,Images/Speaker3.jpg,Images/Speaker4.jpg,Audio/Speaker1_Per/P1-17-Per.wav,Speaker1,گوینده ۱,2,21,181,16,,,,,49.49025674999939,,,,,,,,,,,,,,,,,,,,,,,,,,,,,,,,,,,,,,,,,48.496350541998254,0.0,False,48.49656929200137,286738,001,2024-07-02_08h58.30.009,5-29,2024.1.4,None,2024-07-02 08h58.34.594033 +0900,
Images/Speaker1.jpg,Images/Speaker2.jpg,Images/Speaker3.jpg,Images/Speaker4.jpg,Audio/Speaker3_Per/P3-13-Per.wav,Speaker3,گوینده۳,2,22,182,52,,,,,49.49025674999939,,,,,,,,,,,,,,,,,,,,,,,,,,,,,,,,,,,,,,,,,48.51249458299935,0.0,False,48.51264870800151,286738,001,2024-07-02_08h58.30.009,5-29,2024.1.4,None,2024-07-02 08h58.34.594033 +0900,
Images/Speaker1.jpg,Images/Speaker2.jpg,Images/Speaker3.jpg,Images/Speaker4.jpg,Audio/Speaker3_Per/P3-5-Per.wav,Speaker3,گوینده۳,2,23,183,44,,,,,49.49025674999939,,,,,,,,,,,,,,,,,,,,,,,,,,,,,,,,,,,,,,,,,48.52925454199794,0.0,False,48.52943483299896,286738,001,2024-07-02_08h58.30.009,5-29,2024.1.4,None,2024-07-02 08h58.34.594033 +0900,
Images/Speaker1.jpg,Images/Speaker2.jpg,Images/Speaker3.jpg,Images/Speaker4.jpg,Audio/Speaker3_Per/P3-14-Per.wav,Speaker3,گوینده۳,2,24,184,53,,,,,49.49025674999939,,,,,,,,,,,,,,,,,,,,,,,,,,,,,,,,,,,,,,,,,48.5453545829987,0.0,False,48.545512874999986,286738,001,2024-07-02_08h58.30.009,5-29,2024.1.4,None,2024-07-02 08h58.34.594033 +0900,
Images/Speaker1.jpg,Images/Speaker2.jpg,Images/Speaker3.jpg,Images/Speaker4.jpg,Audio/Speaker3_Per/P3-15-Per.wav,Speaker3,گوینده۳,2,25,185,54,,,,,49.49025674999939,,,,,,,,,,,,,,,,,,,,,,,,,,,,,,,,,,,,,,,,,48.56146158299816,0.0,False,48.56162979199871,286738,001,2024-07-02_08h58.30.009,5-29,2024.1.4,None,2024-07-02 08h58.34.594033 +0900,
Images/Speaker1.jpg,Images/Speaker2.jpg,Images/Speaker3.jpg,Images/Speaker4.jpg,Audio/Speaker4_Per/P4-3-Per.wav,Speaker4,گوینده۴,2,26,186,62,,,,,49.49025674999939,,,,,,,,,,,,,,,,,,,,,,,,,,,,,,,,,,,,,,,,,48.57760683300148,0.0,False,48.57778183299888,286738,001,2024-07-02_08h58.30.009,5-29,2024.1.4,None,2024-07-02 08h58.34.594033 +0900,
Images/Speaker1.jpg,Images/Speaker2.jpg,Images/Speaker3.jpg,Images/Speaker4.jpg,Audio/Speaker2_Per/P2-14-Per.wav,Speaker2,گوینده۲,2,27,187,33,,,,,49.49025674999939,,,,,,,,,,,,,,,,,,,,,,,,,,,,,,,,,,,,,,,,,48.59439595799995,0.0,False,48.59460354199837,286738,001,2024-07-02_08h58.30.009,5-29,2024.1.4,None,2024-07-02 08h58.34.594033 +0900,
Images/Speaker1.jpg,Images/Speaker2.jpg,Images/Speaker3.jpg,Images/Speaker4.jpg,Audio/Speaker4_Per/P4-11-Per.wav,Speaker4,گوینده۴,2,28,188,70,,,,,49.49025674999939,,,,,,,,,,,,,,,,,,,,,,,,,,,,,,,,,,,,,,,,,48.61055058299826,0.0,False,48.61071562500001,286738,001,2024-07-02_08h58.30.009,5-29,2024.1.4,None,2024-07-02 08h58.34.594033 +0900,
Images/Speaker1.jpg,Images/Speaker2.jpg,Images/Speaker3.jpg,Images/Speaker4.jpg,Audio/Speaker4_Per/P4-15-Per.wav,Speaker4,گوینده۴,2,29,189,74,,,,,49.49025674999939,,,,,,,,,,,,,,,,,,,,,,,,,,,,,,,,,,,,,,,,,48.626538374999654,0.0,False,48.62669533300141,286738,001,2024-07-02_08h58.30.009,5-29,2024.1.4,None,2024-07-02 08h58.34.594033 +0900,
Images/Speaker1.jpg,Images/Speaker2.jpg,Images/Speaker3.jpg,Images/Speaker4.jpg,Audio/Speaker2_Per/P2-6-Per.wav,Speaker2,گوینده۲,2,30,190,25,,,,,49.49025674999939,,,,,,,,,,,,,,,,,,,,,,,,,,,,,,,,,,,,,,,,,48.64271158300107,0.0,False,48.64289849999841,286738,001,2024-07-02_08h58.30.009,5-29,2024.1.4,None,2024-07-02 08h58.34.594033 +0900,
Images/Speaker1.jpg,Images/Speaker2.jpg,Images/Speaker3.jpg,Images/Speaker4.jpg,Audio/Speaker2_Per/P2-11-Per.wav,Speaker2,گوینده۲,2,31,191,30,,,,,49.49025674999939,,,,,,,,,,,,,,,,,,,,,,,,,,,,,,,,,,,,,,,,,48.6594585419989,0.0,False,48.659612542000104,286738,001,2024-07-02_08h58.30.009,5-29,2024.1.4,None,2024-07-02 08h58.34.594033 +0900,
Images/Speaker1.jpg,Images/Speaker2.jpg,Images/Speaker3.jpg,Images/Speaker4.jpg,Audio/Speaker3_Per/P3-3-Per.wav,Speaker3,گوینده۳,2,32,192,42,,,,,49.49025674999939,,,,,,,,,,,,,,,,,,,,,,,,,,,,,,,,,,,,,,,,,48.6754354170007,0.0,False,48.67558483299945,286738,001,2024-07-02_08h58.30.009,5-29,2024.1.4,None,2024-07-02 08h58.34.594033 +0900,
Images/Speaker1.jpg,Images/Speaker2.jpg,Images/Speaker3.jpg,Images/Speaker4.jpg,Audio/Speaker1_Per/P1-16-Per.wav,Speaker1,گوینده ۱,2,33,193,15,,,,,49.49025674999939,,,,,,,,,,,,,,,,,,,,,,,,,,,,,,,,,,,,,,,,,48.69151420799972,0.0,False,48.69170304200088,286738,001,2024-07-02_08h58.30.009,5-29,2024.1.4,None,2024-07-02 08h58.34.594033 +0900,
Images/Speaker1.jpg,Images/Speaker2.jpg,Images/Speaker3.jpg,Images/Speaker4.jpg,Audio/Speaker3_Per/P3-6-Per.wav,Speaker3,گوینده۳,2,34,194,45,,,,,49.49025674999939,,,,,,,,,,,,,,,,,,,,,,,,,,,,,,,,,,,,,,,,,48.707564291999006,0.0,False,48.70776100000148,286738,001,2024-07-02_08h58.30.009,5-29,2024.1.4,None,2024-07-02 08h58.34.594033 +0900,
Images/Speaker1.jpg,Images/Speaker2.jpg,Images/Speaker3.jpg,Images/Speaker4.jpg,Audio/Speaker3_Per/P3-8-Per.wav,Speaker3,گوینده۳,2,35,195,47,,,,,49.49025674999939,,,,,,,,,,,,,,,,,,,,,,,,,,,,,,,,,,,,,,,,,48.72424795799816,0.0,False,48.724403207997966,286738,001,2024-07-02_08h58.30.009,5-29,2024.1.4,None,2024-07-02 08h58.34.594033 +0900,
Images/Speaker1.jpg,Images/Speaker2.jpg,Images/Speaker3.jpg,Images/Speaker4.jpg,Audio/Speaker2_Per/P2-7-Per.wav,Speaker2,گوینده۲,2,36,196,26,,,,,49.49025674999939,,,,,,,,,,,,,,,,,,,,,,,,,,,,,,,,,,,,,,,,,48.74030720800147,0.0,False,48.74047129199971,286738,001,2024-07-02_08h58.30.009,5-29,2024.1.4,None,2024-07-02 08h58.34.594033 +0900,
Images/Speaker1.jpg,Images/Speaker2.jpg,Images/Speaker3.jpg,Images/Speaker4.jpg,Audio/Speaker4_Per/P4-8-Per.wav,Speaker4,گوینده۴,2,37,197,67,,,,,49.49025674999939,,,,,,,,,,,,,,,,,,,,,,,,,,,,,,,,,,,,,,,,,48.756217999998626,0.0,False,48.75637733300027,286738,001,2024-07-02_08h58.30.009,5-29,2024.1.4,None,2024-07-02 08h58.34.594033 +0900,
Images/Speaker1.jpg,Images/Speaker2.jpg,Images/Speaker3.jpg,Images/Speaker4.jpg,Audio/Speaker1_Per/P1-4-Per.wav,Speaker1,گوینده ۱,2,38,198,3,,,,,49.49025674999939,,,,,,,,,,,,,,,,,,,,,,,,,,,,,,,,,,,,,,,,,48.772208875001525,0.0,False,48.77235729200038,286738,001,2024-07-02_08h58.30.009,5-29,2024.1.4,None,2024-07-02 08h58.34.594033 +0900,
Images/Speaker1.jpg,Images/Speaker2.jpg,Images/Speaker3.jpg,Images/Speaker4.jpg,Audio/Speaker1_Per/P1-15-Per.wav,Speaker1,گوینده ۱,2,39,199,14,,,,,49.49025674999939,,,,,,,,,,,,,,,,,,,,,,,,,,,,,,,,,,,,,,,,,48.78896862499823,0.0,False,48.78915291700105,286738,001,2024-07-02_08h58.30.009,5-29,2024.1.4,None,2024-07-02 08h58.34.594033 +0900,
Images/Speaker1.jpg,Images/Speaker2.jpg,Images/Speaker3.jpg,Images/Speaker4.jpg,Audio/Speaker4_Per/P4-9-Per.wav,Speaker4,گوینده۴,2,40,200,68,,,,,49.49025674999939,,,,,,,,,,,,,,,,,,,,,,,,,,,,,,,,,,,,,,,,,48.80505583299964,0.0,False,48.80522808299793,286738,001,2024-07-02_08h58.30.009,5-29,2024.1.4,None,2024-07-02 08h58.34.594033 +0900,
Images/Speaker1.jpg,Images/Speaker2.jpg,Images/Speaker3.jpg,Images/Speaker4.jpg,Audio/Speaker2_Per/P2-16-Per.wav,Speaker2,گوینده۲,2,41,201,35,,,,,49.49025674999939,,,,,,,,,,,,,,,,,,,,,,,,,,,,,,,,,,,,,,,,,48.82108637499914,0.0,False,48.82129837499815,286738,001,2024-07-02_08h58.30.009,5-29,2024.1.4,None,2024-07-02 08h58.34.594033 +0900,
Images/Speaker1.jpg,Images/Speaker2.jpg,Images/Speaker3.jpg,Images/Speaker4.jpg,Audio/Speaker4_Per/P4-19-Per.wav,Speaker4,گوینده۴,2,42,202,78,,,,,49.49025674999939,,,,,,,,,,,,,,,,,,,,,,,,,,,,,,,,,,,,,,,,,48.83719920799922,0.0,False,48.83736120799949,286738,001,2024-07-02_08h58.30.009,5-29,2024.1.4,None,2024-07-02 08h58.34.594033 +0900,
Images/Speaker1.jpg,Images/Speaker2.jpg,Images/Speaker3.jpg,Images/Speaker4.jpg,Audio/Speaker2_Per/P2-17-Per.wav,Speaker2,گوینده۲,2,43,203,36,,,,,49.49025674999939,,,,,,,,,,,,,,,,,,,,,,,,,,,,,,,,,,,,,,,,,48.85395854200033,0.0,False,48.854187042001286,286738,001,2024-07-02_08h58.30.009,5-29,2024.1.4,None,2024-07-02 08h58.34.594033 +0900,
Images/Speaker1.jpg,Images/Speaker2.jpg,Images/Speaker3.jpg,Images/Speaker4.jpg,Audio/Speaker1_Per/P1-12-Per.wav,Speaker1,گوینده ۱,2,44,204,11,,,,,49.49025674999939,,,,,,,,,,,,,,,,,,,,,,,,,,,,,,,,,,,,,,,,,48.87012833300105,0.0,False,48.87034349999885,286738,001,2024-07-02_08h58.30.009,5-29,2024.1.4,None,2024-07-02 08h58.34.594033 +0900,
Images/Speaker1.jpg,Images/Speaker2.jpg,Images/Speaker3.jpg,Images/Speaker4.jpg,Audio/Speaker4_Per/P4-16-Per.wav,Speaker4,گوینده۴,2,45,205,75,,,,,49.49025674999939,,,,,,,,,,,,,,,,,,,,,,,,,,,,,,,,,,,,,,,,,48.886295707998215,0.0,False,48.88646383300147,286738,001,2024-07-02_08h58.30.009,5-29,2024.1.4,None,2024-07-02 08h58.34.594033 +0900,
Images/Speaker1.jpg,Images/Speaker2.jpg,Images/Speaker3.jpg,Images/Speaker4.jpg,Audio/Speaker4_Per/P4-2-Per.wav,Speaker4,گوینده۴,2,46,206,61,,,,,49.49025674999939,,,,,,,,,,,,,,,,,,,,,,,,,,,,,,,,,,,,,,,,,48.90242283299813,0.0,False,48.90260745799969,286738,001,2024-07-02_08h58.30.009,5-29,2024.1.4,None,2024-07-02 08h58.34.594033 +0900,
Images/Speaker1.jpg,Images/Speaker2.jpg,Images/Speaker3.jpg,Images/Speaker4.jpg,Audio/Speaker1_Per/P1-6-Per.wav,Speaker1,گوینده ۱,2,47,207,5,,,,,49.49025674999939,,,,,,,,,,,,,,,,,,,,,,,,,,,,,,,,,,,,,,,,,48.91911279199849,0.0,False,48.91927662499802,286738,001,2024-07-02_08h58.30.009,5-29,2024.1.4,None,2024-07-02 08h58.34.594033 +0900,
Images/Speaker1.jpg,Images/Speaker2.jpg,Images/Speaker3.jpg,Images/Speaker4.jpg,Audio/Speaker3_Per/P3-16-Per.wav,Speaker3,گوینده۳,2,48,208,55,,,,,49.49025674999939,,,,,,,,,,,,,,,,,,,,,,,,,,,,,,,,,,,,,,,,,48.935156332998304,0.0,False,48.935326499999064,286738,001,2024-07-02_08h58.30.009,5-29,2024.1.4,None,2024-07-02 08h58.34.594033 +0900,
Images/Speaker1.jpg,Images/Speaker2.jpg,Images/Speaker3.jpg,Images/Speaker4.jpg,Audio/Speaker1_Per/P1-10-Per.wav,Speaker1,گوینده ۱,2,49,209,9,,,,,49.49025674999939,,,,,,,,,,,,,,,,,,,,,,,,,,,,,,,,,,,,,,,,,48.95124116700026,0.0,False,48.95141470800081,286738,001,2024-07-02_08h58.30.009,5-29,2024.1.4,None,2024-07-02 08h58.34.594033 +0900,
Images/Speaker1.jpg,Images/Speaker2.jpg,Images/Speaker3.jpg,Images/Speaker4.jpg,Audio/Speaker4_Per/P4-4-Per.wav,Speaker4,گوینده۴,2,50,210,63,,,,,49.49025674999939,,,,,,,,,,,,,,,,,,,,,,,,,,,,,,,,,,,,,,,,,48.96727954200105,0.0,False,48.96744699999908,286738,001,2024-07-02_08h58.30.009,5-29,2024.1.4,None,2024-07-02 08h58.34.594033 +0900,
Images/Speaker1.jpg,Images/Speaker2.jpg,Images/Speaker3.jpg,Images/Speaker4.jpg,Audio/Speaker4_Per/P4-20-Per.wav,Speaker4,گوینده۴,2,51,211,79,,,,,49.49025674999939,,,,,,,,,,,,,,,,,,,,,,,,,,,,,,,,,,,,,,,,,48.984036417001334,0.0,False,48.9842313750014,286738,001,2024-07-02_08h58.30.009,5-29,2024.1.4,None,2024-07-02 08h58.34.594033 +0900,
Images/Speaker1.jpg,Images/Speaker2.jpg,Images/Speaker3.jpg,Images/Speaker4.jpg,Audio/Speaker3_Per/P3-9-Per.wav,Speaker3,گوینده۳,2,52,212,48,,,,,49.49025674999939,,,,,,,,,,,,,,,,,,,,,,,,,,,,,,,,,,,,,,,,,49.00013383300029,0.0,False,49.0003627920014,286738,001,2024-07-02_08h58.30.009,5-29,2024.1.4,None,2024-07-02 08h58.34.594033 +0900,
Images/Speaker1.jpg,Images/Speaker2.jpg,Images/Speaker3.jpg,Images/Speaker4.jpg,Audio/Speaker1_Per/P1-11-Per.wav,Speaker1,گوینده ۱,2,53,213,10,,,,,49.49025674999939,,,,,,,,,,,,,,,,,,,,,,,,,,,,,,,,,,,,,,,,,49.016287833001115,0.0,False,49.016455542001495,286738,001,2024-07-02_08h58.30.009,5-29,2024.1.4,None,2024-07-02 08h58.34.594033 +0900,
Images/Speaker1.jpg,Images/Speaker2.jpg,Images/Speaker3.jpg,Images/Speaker4.jpg,Audio/Speaker2_Per/P2-3-Per.wav,Speaker2,گوینده۲,2,54,214,22,,,,,49.49025674999939,,,,,,,,,,,,,,,,,,,,,,,,,,,,,,,,,,,,,,,,,49.03237120799895,0.0,False,49.03255637500115,286738,001,2024-07-02_08h58.30.009,5-29,2024.1.4,None,2024-07-02 08h58.34.594033 +0900,
Images/Speaker1.jpg,Images/Speaker2.jpg,Images/Speaker3.jpg,Images/Speaker4.jpg,Audio/Speaker1_Per/P1-8-Per.wav,Speaker1,گوینده ۱,2,55,215,7,,,,,49.49025674999939,,,,,,,,,,,,,,,,,,,,,,,,,,,,,,,,,,,,,,,,,49.049094582998805,0.0,False,49.04925862500022,286738,001,2024-07-02_08h58.30.009,5-29,2024.1.4,None,2024-07-02 08h58.34.594033 +0900,
Images/Speaker1.jpg,Images/Speaker2.jpg,Images/Speaker3.jpg,Images/Speaker4.jpg,Audio/Speaker3_Per/P3-17-Per.wav,Speaker3,گوینده۳,2,56,216,56,,,,,49.49025674999939,,,,,,,,,,,,,,,,,,,,,,,,,,,,,,,,,,,,,,,,,49.06518537499869,0.0,False,49.06535754200013,286738,001,2024-07-02_08h58.30.009,5-29,2024.1.4,None,2024-07-02 08h58.34.594033 +0900,
Images/Speaker1.jpg,Images/Speaker2.jpg,Images/Speaker3.jpg,Images/Speaker4.jpg,Audio/Speaker4_Per/P4-14-Per.wav,Speaker4,گوینده۴,2,57,217,73,,,,,49.49025674999939,,,,,,,,,,,,,,,,,,,,,,,,,,,,,,,,,,,,,,,,,49.08120808300009,0.0,False,49.081376124999224,286738,001,2024-07-02_08h58.30.009,5-29,2024.1.4,None,2024-07-02 08h58.34.594033 +0900,
Images/Speaker1.jpg,Images/Speaker2.jpg,Images/Speaker3.jpg,Images/Speaker4.jpg,Audio/Speaker2_Per/P2-18-Per.wav,Speaker2,گوینده۲,2,58,218,37,,,,,49.49025674999939,,,,,,,,,,,,,,,,,,,,,,,,,,,,,,,,,,,,,,,,,49.097359499999584,0.0,False,49.09752450000087,286738,001,2024-07-02_08h58.30.009,5-29,2024.1.4,None,2024-07-02 08h58.34.594033 +0900,
Images/Speaker1.jpg,Images/Speaker2.jpg,Images/Speaker3.jpg,Images/Speaker4.jpg,Audio/Speaker1_Per/P1-13-Per.wav,Speaker1,گوینده ۱,2,59,219,12,,,,,49.49025674999939,,,,,,,,,,,,,,,,,,,,,,,,,,,,,,,,,,,,,,,,,49.11412120800014,0.0,False,49.114295542000036,286738,001,2024-07-02_08h58.30.009,5-29,2024.1.4,None,2024-07-02 08h58.34.594033 +0900,
Images/Speaker1.jpg,Images/Speaker2.jpg,Images/Speaker3.jpg,Images/Speaker4.jpg,Audio/Speaker4_Per/P4-7-Per.wav,Speaker4,گوینده۴,2,60,220,66,,,,,49.49025674999939,,,,,,,,,,,,,,,,,,,,,,,,,,,,,,,,,,,,,,,,,49.13018437500068,0.0,False,49.13034999999945,286738,001,2024-07-02_08h58.30.009,5-29,2024.1.4,None,2024-07-02 08h58.34.594033 +0900,
Images/Speaker1.jpg,Images/Speaker2.jpg,Images/Speaker3.jpg,Images/Speaker4.jpg,Audio/Speaker4_Per/P4-18-Per.wav,Speaker4,گوینده۴,2,61,221,77,,,,,49.49025674999939,,,,,,,,,,,,,,,,,,,,,,,,,,,,,,,,,,,,,,,,,49.14634054199996,0.0,False,49.14651537499958,286738,001,2024-07-02_08h58.30.009,5-29,2024.1.4,None,2024-07-02 08h58.34.594033 +0900,
Images/Speaker1.jpg,Images/Speaker2.jpg,Images/Speaker3.jpg,Images/Speaker4.jpg,Audio/Speaker3_Per/P3-18-Per.wav,Speaker3,گوینده۳,2,62,222,57,,,,,49.49025674999939,,,,,,,,,,,,,,,,,,,,,,,,,,,,,,,,,,,,,,,,,49.16245962500034,0.0,False,49.16263504200106,286738,001,2024-07-02_08h58.30.009,5-29,2024.1.4,None,2024-07-02 08h58.34.594033 +0900,
Images/Speaker1.jpg,Images/Speaker2.jpg,Images/Speaker3.jpg,Images/Speaker4.jpg,Audio/Speaker1_Per/P1-9-Per.wav,Speaker1,گوینده ۱,2,63,223,8,,,,,49.49025674999939,,,,,,,,,,,,,,,,,,,,,,,,,,,,,,,,,,,,,,,,,49.17921316700085,0.0,False,49.179391082998336,286738,001,2024-07-02_08h58.30.009,5-29,2024.1.4,None,2024-07-02 08h58.34.594033 +0900,
Images/Speaker1.jpg,Images/Speaker2.jpg,Images/Speaker3.jpg,Images/Speaker4.jpg,Audio/Speaker2_Per/P2-12-Per.wav,Speaker2,گوینده۲,2,64,224,31,,,,,49.49025674999939,,,,,,,,,,,,,,,,,,,,,,,,,,,,,,,,,,,,,,,,,49.19531879200076,0.0,False,49.195497707998584,286738,001,2024-07-02_08h58.30.009,5-29,2024.1.4,None,2024-07-02 08h58.34.594033 +0900,
Images/Speaker1.jpg,Images/Speaker2.jpg,Images/Speaker3.jpg,Images/Speaker4.jpg,Audio/Speaker3_Per/P3-4-Per.wav,Speaker3,گوینده۳,2,65,225,43,,,,,49.49025674999939,,,,,,,,,,,,,,,,,,,,,,,,,,,,,,,,,,,,,,,,,49.21150345799833,0.0,False,49.21169391700096,286738,001,2024-07-02_08h58.30.009,5-29,2024.1.4,None,2024-07-02 08h58.34.594033 +0900,
Images/Speaker1.jpg,Images/Speaker2.jpg,Images/Speaker3.jpg,Images/Speaker4.jpg,Audio/Speaker1_Per/P1-3-Per.wav,Speaker1,گوینده ۱,2,66,226,2,,,,,49.49025674999939,,,,,,,,,,,,,,,,,,,,,,,,,,,,,,,,,,,,,,,,,49.22767895799916,0.0,False,49.22785691700119,286738,001,2024-07-02_08h58.30.009,5-29,2024.1.4,None,2024-07-02 08h58.34.594033 +0900,
Images/Speaker1.jpg,Images/Speaker2.jpg,Images/Speaker3.jpg,Images/Speaker4.jpg,Audio/Speaker2_Per/P2-10-Per.wav,Speaker2,گوینده۲,2,67,227,29,,,,,49.49025674999939,,,,,,,,,,,,,,,,,,,,,,,,,,,,,,,,,,,,,,,,,49.24449541699869,0.0,False,49.244664249999914,286738,001,2024-07-02_08h58.30.009,5-29,2024.1.4,None,2024-07-02 08h58.34.594033 +0900,
Images/Speaker1.jpg,Images/Speaker2.jpg,Images/Speaker3.jpg,Images/Speaker4.jpg,Audio/Speaker2_Per/P2-13-Per.wav,Speaker2,گوینده۲,2,68,228,32,,,,,49.49025674999939,,,,,,,,,,,,,,,,,,,,,,,,,,,,,,,,,,,,,,,,,49.26054333299908,0.0,False,49.26072637499965,286738,001,2024-07-02_08h58.30.009,5-29,2024.1.4,None,2024-07-02 08h58.34.594033 +0900,
Images/Speaker1.jpg,Images/Speaker2.jpg,Images/Speaker3.jpg,Images/Speaker4.jpg,Audio/Speaker2_Per/P2-19-Per.wav,Speaker2,گوینده۲,2,69,229,38,,,,,49.49025674999939,,,,,,,,,,,,,,,,,,,,,,,,,,,,,,,,,,,,,,,,,49.276753457997984,0.0,False,49.276918708001176,286738,001,2024-07-02_08h58.30.009,5-29,2024.1.4,None,2024-07-02 08h58.34.594033 +0900,
Images/Speaker1.jpg,Images/Speaker2.jpg,Images/Speaker3.jpg,Images/Speaker4.jpg,Audio/Speaker3_Per/P3-11-Per.wav,Speaker3,گوینده۳,2,70,230,50,,,,,49.49025674999939,,,,,,,,,,,,,,,,,,,,,,,,,,,,,,,,,,,,,,,,,49.29282541700013,0.0,False,49.292987458000425,286738,001,2024-07-02_08h58.30.009,5-29,2024.1.4,None,2024-07-02 08h58.34.594033 +0900,
Images/Speaker1.jpg,Images/Speaker2.jpg,Images/Speaker3.jpg,Images/Speaker4.jpg,Audio/Speaker4_Per/P4-12-Per.wav,Speaker4,گوینده۴,2,71,231,71,,,,,49.49025674999939,,,,,,,,,,,,,,,,,,,,,,,,,,,,,,,,,,,,,,,,,49.30952020800032,0.0,False,49.309700875001,286738,001,2024-07-02_08h58.30.009,5-29,2024.1.4,None,2024-07-02 08h58.34.594033 +0900,
Images/Speaker1.jpg,Images/Speaker2.jpg,Images/Speaker3.jpg,Images/Speaker4.jpg,Audio/Speaker1_Per/P1-19-Per.wav,Speaker1,گوینده ۱,2,72,232,18,,,,,49.49025674999939,,,,,,,,,,,,,,,,,,,,,,,,,,,,,,,,,,,,,,,,,49.32570904200111,0.0,False,49.325873917001445,286738,001,2024-07-02_08h58.30.009,5-29,2024.1.4,None,2024-07-02 08h58.34.594033 +0900,
Images/Speaker1.jpg,Images/Speaker2.jpg,Images/Speaker3.jpg,Images/Speaker4.jpg,Audio/Speaker2_Per/P2-1-Per.wav,Speaker2,گوینده۲,2,73,233,20,,,,,49.49025674999939,,,,,,,,,,,,,,,,,,,,,,,,,,,,,,,,,,,,,,,,,49.34167858300134,0.0,False,49.34190274999855,286738,001,2024-07-02_08h58.30.009,5-29,2024.1.4,None,2024-07-02 08h58.34.594033 +0900,
Images/Speaker1.jpg,Images/Speaker2.jpg,Images/Speaker3.jpg,Images/Speaker4.jpg,Audio/Speaker3_Per/P3-1-Per.wav,Speaker3,گوینده۳,2,74,234,40,,,,,49.49025674999939,,,,,,,,,,,,,,,,,,,,,,,,,,,,,,,,,,,,,,,,,49.35781266699996,0.0,False,49.358041916999355,286738,001,2024-07-02_08h58.30.009,5-29,2024.1.4,None,2024-07-02 08h58.34.594033 +0900,
Images/Speaker1.jpg,Images/Speaker2.jpg,Images/Speaker3.jpg,Images/Speaker4.jpg,Audio/Speaker3_Per/P3-2-Per.wav,Speaker3,گوینده۳,2,75,235,41,,,,,49.49025674999939,,,,,,,,,,,,,,,,,,,,,,,,,,,,,,,,,,,,,,,,,49.374559291998594,0.0,False,49.37472324999908,286738,001,2024-07-02_08h58.30.009,5-29,2024.1.4,None,2024-07-02 08h58.34.594033 +0900,
Images/Speaker1.jpg,Images/Speaker2.jpg,Images/Speaker3.jpg,Images/Speaker4.jpg,Audio/Speaker2_Per/P2-15-Per.wav,Speaker2,گوینده۲,2,76,236,34,,,,,49.49025674999939,,,,,,,,,,,,,,,,,,,,,,,,,,,,,,,,,,,,,,,,,49.39075754199803,0.0,False,49.39134254199962,286738,001,2024-07-02_08h58.30.009,5-29,2024.1.4,None,2024-07-02 08h58.34.594033 +0900,
Images/Speaker1.jpg,Images/Speaker2.jpg,Images/Speaker3.jpg,Images/Speaker4.jpg,Audio/Speaker2_Per/P2-4-Per.wav,Speaker2,گوینده۲,2,77,237,23,,,,,49.49025674999939,,,,,,,,,,,,,,,,,,,,,,,,,,,,,,,,,,,,,,,,,49.40738241700092,0.0,False,49.407600582999294,286738,001,2024-07-02_08h58.30.009,5-29,2024.1.4,None,2024-07-02 08h58.34.594033 +0900,
Images/Speaker1.jpg,Images/Speaker2.jpg,Images/Speaker3.jpg,Images/Speaker4.jpg,Audio/Speaker4_Per/P4-13-Per.wav,Speaker4,گوینده۴,2,78,238,72,,,,,49.49025674999939,,,,,,,,,,,,,,,,,,,,,,,,,,,,,,,,,,,,,,,,,49.42364908300078,0.0,False,49.423845207998966,286738,001,2024-07-02_08h58.30.009,5-29,2024.1.4,None,2024-07-02 08h58.34.594033 +0900,
Images/Speaker1.jpg,Images/Speaker2.jpg,Images/Speaker3.jpg,Images/Speaker4.jpg,Audio/Speaker3_Per/P3-7-Per.wav,Speaker3,گوینده۳,2,79,239,46,,,,,49.49025674999939,,,,,,,,,,,,,,,,,,,,,,,,,,,,,,,,,,,,,,,,,49.440440582999145,0.0,False,49.440602750000835,286738,001,2024-07-02_08h58.30.009,5-29,2024.1.4,None,2024-07-02 08h58.34.594033 +0900,
Images/Speaker1.jpg,Images/Speaker2.jpg,Images/Speaker3.jpg,Images/Speaker4.jpg,Audio/Speaker3_Per/P3-8-Per.wav,Speaker3,گوینده۳,3,0,240,47,,,,,49.49025674999939,,,,,,,,,,,,,,,,,,,,,,,,,,,,,,,,,,,,,,,,,49.4565521250006,0.0,False,49.45672237499821,286738,001,2024-07-02_08h58.30.009,5-29,2024.1.4,None,2024-07-02 08h58.34.594033 +0900,
,,,,,,,,,,,,,,,49.49025674999939,,,,,,,,,,,,,,,,,,,,,,,,,,,,,,,,,,,,,,,,,49.47281508300148,0.0,False,,,,,,,,,
