SpeakerImage1,SpeakerImage2,SpeakerImage3,SpeakerImage4,TrainingSound,EnglishCorrectAnswer,PersianCorrectAnswer,SpeakerPhoto1,SpeakerPhoto2,SpeakerPhoto3,SpeakerPhoto4,TestingSound,EnglishCorrectResponse,PersianCorrectResponse,TrainingLoopGroup1.thisRepN,TrainingLoopGroup1.thisTrialN,TrainingLoopGroup1.thisN,TrainingLoopGroup1.thisIndex,TrainingLoopGroup2.thisRepN,TrainingLoopGroup2.thisTrialN,TrainingLoopGroup2.thisN,TrainingLoopGroup2.thisIndex,TrainingLoopGroup3.thisRepN,TrainingLoopGroup3.thisTrialN,TrainingLoopGroup3.thisN,TrainingLoopGroup3.thisIndex,testPhase1Loop.thisRepN,testPhase1Loop.thisTrialN,testPhase1Loop.thisN,testPhase1Loop.thisIndex,thisRow.t,notes,trial.started,trial.stopped,GroupSelection.started,GroupInstructions.started,key_resp.started,GroupSelection.stopped,key_resp.keys,key_resp.rt,key_resp.duration,Introduction.started,text_2.started,image.started,sound_7.started,text_4.started,text_2.stopped,sound_8.started,image.stopped,text_4.stopped,image_7.started,sound_9.started,text_5.started,sound_10.started,image_7.stopped,text_5.stopped,image_8.started,sound_11.started,text_6.started,sound_12.started,image_8.stopped,text_6.stopped,image_9.started,sound_13.started,text_7.started,sound_14.started,image_9.stopped,text_7.stopped,Introduction.stopped,Instructions.started,InstructionText.started,InstructionText.stopped,Instructions.stopped,InitializeExperiment.started,InitializeExperiment.stopped,TrainingGroup3.started,SpeakerPicture3.started,image_15.started,image_16.started,image_17.started,Sound3.started,Instruction3.started,Response3.started,TrainingGroup3.stopped,feedbackText,Response3.keys,Response3.rt,Response3.duration,correct_responses,total_trials,FeedbackRoutine3.started,FeedbackText3.started,FeedbackRoutine3.stopped,FeedbackText3.stopped,TransitionRoutine.started,TransitionRoutine.stopped,nextRoutine,WelcomeTest.started,text_12.started,text_12.stopped,WelcomeTest.stopped,TestPhase1.started,test1_image1.started,test1_image2.started,test1_image3.started,test1_image4.started,test1_sound.started,text_3.started,test1_response_keyboard.started,TestPhase1.stopped,test1_response_keyboard.keys,test1_response_keyboard.rt,test1_response_keyboard.duration,test1_response,test1_image_file1,test1_image_file2,test1_image_file3,test1_image_file4,test1_sound_file,english_correct_answer,persian_correct_answer,participant,session,date,expName,psychopyVersion,frameRate,expStart,
,,,,,,,,,,,,,,,,,,,,,,,,,,,,,,,,0.010896249994402751,0.011254166980506852,,,,,,,,,,,,,,,,,,,,,,,,,,,,,,,,,,,,,,,,,,,,,,,,,,,,,,,,,,,,,,,,,,,,,,,,,,,,,,,,,,,,,,,,289911,001,2024-06-28_12h27.01.674,5-21,2024.1.4,None,2024-06-28 12h27.06.370967 +0900,
,,,,,,,,,,,,,,,,,,,,,,,,,,,,,,,,,,0.01126749999821186,0.01593241697992198,0.01593241697992198,0.755470542004332,3,0.696293582994258,None,,,,,,,,,,,,,,,,,,,,,,,,,,,,,,,,,,,,,,,,,,,,,,,,,,,,,,,,,,,,,,,,,,,,,,,,,,,,,,,,,289911,001,2024-06-28_12h27.01.674,5-21,2024.1.4,None,2024-06-28 12h27.06.370967 +0900,
,,,,,,,,,,,,,,,,,,,,,,,,,,,,,,,,,,,,,,,,,0.7554917079978622,0.8074331249808893,5.754323207976995,5.758101749645236,5.754323207976995,5.8057971249800175,10.757610291653934,15.752008791983826,15.752008791983826,15.752008791983826,15.757789833649683,15.752008791983826,20.75847066665689,25.752970250003273,25.752970250003273,25.752970250003273,25.76448283365268,25.752970250003273,30.75930366665513,35.753580958000384,35.753580958000384,35.753580958000384,35.76358304164411,35.753580958000384,40.75703416666171,45.74952470799326,45.74952470799326,45.74566366698127,,,,,,,,,,,,,,,,,,,,,,,,,,,,,,,,,,,,,,,,,,,,,,,,,,,,,289911,001,2024-06-28_12h27.01.674,5-21,2024.1.4,None,2024-06-28 12h27.06.370967 +0900,
,,,,,,,,,,,,,,,,,,,,,,,,,,,,,,,,,,,,,,,,,,,,,,,,,,,,,,,,,,,,,,,,,,,,,45.74568279198138,45.74952470799326,46.82611054199515,46.739943666994805,,,,,,,,,,,,,,,,,,,,,,,,,,,,,,,,,,,,,,,,,,,,,,,,,289911,001,2024-06-28_12h27.01.674,5-21,2024.1.4,None,2024-06-28 12h27.06.370967 +0900,
,,,,,,,,,,,,,,,,,,,,,,,,,,,,,,,,,,,,,,,,,,,,,,,,,,,,,,,,,,,,,,,,,,,,,,,,,46.73998162499629,46.740258791978704,,,,,,,,,,,,,,,,,,,,,,,,,,,,,,,,,,,,,,,,,,,,,,,289911,001,2024-06-28_12h27.01.674,5-21,2024.1.4,None,2024-06-28 12h27.06.370967 +0900,
Images/Speaker1.jpg,Images/Speaker2.jpg,Images/Speaker3.jpg,Images/Speaker4.jpg,Audio/Speaker4_En/P4-19-En.wav,Speaker4,گوینده۴,,,,,,,,,,,,,,,,0,0,0,78,,,,,46.82611054199515,,,,,,,,,,,,,,,,,,,,,,,,,,,,,,,,,,,,,,,,,,,,,46.79808924999088,46.82611054199515,46.82611054199515,46.82611054199515,46.82611054199515,46.822472666322334,46.82611054199515,46.82611054199515,51.29808941698866,Incorrect! The correct answer is Speaker4. نادرست! پاسخ صحیح گوینده۴ است,1,4.467404042021371,None,0,1,51.298523082979955,51.31214362499304,53.30435195798054,,,,,,,,,,,,,,,,,,,,,,,,,,,,,289911,001,2024-06-28_12h27.01.674,5-21,2024.1.4,None,2024-06-28 12h27.06.370967 +0900,
Images/Speaker1.jpg,Images/Speaker2.jpg,Images/Speaker3.jpg,Images/Speaker4.jpg,Audio/Speaker1_En/P1-20-En.wav,Speaker1,گوینده ۱,,,,,,,,,,,,,,,,0,1,1,19,,,,,53.336474457988515,,,,,,,,,,,,,,,,,,,,,,,,,,,,,,,,,,,,,,,,,,,,,53.304522624996025,53.336474457988515,53.336474457988515,53.336474457988515,53.336474457988515,53.337646375330706,53.336474457988515,53.336474457988515,53.33716120797908,Correct! صحیح است,1,6.468310541997198,None,0,2,53.341311583004426,53.351005624979734,55.342795249976916,,,,,,,,,,,,,,,,,,,,,,,,,,,,,289911,001,2024-06-28_12h27.01.674,5-21,2024.1.4,None,2024-06-28 12h27.06.370967 +0900,
Images/Speaker1.jpg,Images/Speaker2.jpg,Images/Speaker3.jpg,Images/Speaker4.jpg,Audio/Speaker3_En/P3-8-En.wav,Speaker3,گوینده۳,,,,,,,,,,,,,,,,0,2,2,47,,,,,55.365829249989474,,,,,,,,,,,,,,,,,,,,,,,,,,,,,,,,,,,,,,,,,,,,,55.343005375005305,55.365829249989474,55.365829249989474,55.365829249989474,55.365829249989474,55.376090625337866,55.365829249989474,55.365829249989474,55.36641837499337,Incorrect! The correct answer is Speaker3. نادرست! پاسخ صحیح گوینده۳ است,1,1.9516276250069495,None,0,3,55.36690516700037,55.377014375000726,57.35964329200215,57.38313116697827,,,,,,,,,,,,,,,,,,,,,,,,,,,,289911,001,2024-06-28_12h27.01.674,5-21,2024.1.4,None,2024-06-28 12h27.06.370967 +0900,
Images/Speaker1.jpg,Images/Speaker2.jpg,Images/Speaker3.jpg,Images/Speaker4.jpg,Audio/Speaker2_En/P2-10-En.wav,Speaker2,گوینده۲,,,,,,,,,,,,,,,,0,3,3,29,,,,,57.38313116697827,,,,,,,,,,,,,,,,,,,,,,,,,,,,,,,,,,,,,,,,,,,,,57.35984550000285,57.38313116697827,57.38313116697827,57.38313116697827,57.38313116697827,57.39272633332487,57.38313116697827,57.38313116697827,58.37301408298663,Incorrect! The correct answer is Speaker2. نادرست! پاسخ صحیح گوینده۲ است,1,0.9871385419974104,None,0,4,58.377130124979885,58.39045195799554,60.38502483299817,,,,,,,,,,,,,,,,,,,,,,,,,,,,,289911,001,2024-06-28_12h27.01.674,5-21,2024.1.4,None,2024-06-28 12h27.06.370967 +0900,
Images/Speaker1.jpg,Images/Speaker2.jpg,Images/Speaker3.jpg,Images/Speaker4.jpg,Audio/Speaker1_En/P1-3-En.wav,Speaker1,گوینده ۱,,,,,,,,,,,,,,,,0,4,4,2,,,,,60.408030666993,,,,,,,,,,,,,,,,,,,,,,,,,,,,,,,,,,,,,,,,,,,,,60.38521304199821,60.408030666993,60.408030666993,60.408030666993,60.408030666993,60.401649874668024,60.408030666993,60.408030666993,60.72621199997957,Correct! صحیح است,1,0.30530329199973494,None,0,5,60.7301093749993,60.741083457978675,62.72752699998091,62.75024137500441,,,,,,,,,,,,,,,,,,,,,,,,,,,,289911,001,2024-06-28_12h27.01.674,5-21,2024.1.4,None,2024-06-28 12h27.06.370967 +0900,
Images/Speaker1.jpg,Images/Speaker2.jpg,Images/Speaker3.jpg,Images/Speaker4.jpg,Audio/Speaker4_En/P4-17-En.wav,Speaker4,گوینده۴,,,,,,,,,,,,,,,,0,5,5,76,,,,,62.75024137500441,,,,,,,,,,,,,,,,,,,,,,,,,,,,,,,,,,,,,,,,,,,,,62.72771283300244,62.75024137500441,62.75024137500441,62.75024137500441,62.75024137500441,62.74388024965107,62.75024137500441,62.75024137500441,63.00241712498246,Incorrect! The correct answer is Speaker4. نادرست! پاسخ صحیح گوینده۴ است,1,0.24869145898264833,None,0,6,63.006359082995914,63.02054720799788,65.00686908297939,65.0333547499904,,,,,,,,,,,,,,,,,,,,,,,,,,,,289911,001,2024-06-28_12h27.01.674,5-21,2024.1.4,None,2024-06-28 12h27.06.370967 +0900,
Images/Speaker1.jpg,Images/Speaker2.jpg,Images/Speaker3.jpg,Images/Speaker4.jpg,Audio/Speaker4_En/P4-3-En.wav,Speaker4,گوینده۴,,,,,,,,,,,,,,,,0,6,6,62,,,,,65.0333547499904,,,,,,,,,,,,,,,,,,,,,,,,,,,,,,,,,,,,,,,,,,,,,65.00757258298108,65.0333547499904,65.0333547499904,65.0333547499904,65.0333547499904,65.03941737532344,65.0333547499904,65.0333547499904,65.31778054198367,Incorrect! The correct answer is Speaker4. نادرست! پاسخ صحیح گوینده۴ است,1,0.28346495801815763,None,0,7,65.32162116697873,65.33442400000058,67.33000954199815,,,,,,,,,,,,,,,,,,,,,,,,,,,,,289911,001,2024-06-28_12h27.01.674,5-21,2024.1.4,None,2024-06-28 12h27.06.370967 +0900,
Images/Speaker1.jpg,Images/Speaker2.jpg,Images/Speaker3.jpg,Images/Speaker4.jpg,Audio/Speaker1_En/P1-4-En.wav,Speaker1,گوینده ۱,,,,,,,,,,,,,,,,0,7,7,3,,,,,67.3546370829863,,,,,,,,,,,,,,,,,,,,,,,,,,,,,,,,,,,,,,,,,,,,,67.330165708001,67.3546370829863,67.3546370829863,67.3546370829863,67.3546370829863,67.3633076663323,67.3546370829863,67.3546370829863,67.56809283298207,Correct! صحیح است,1,0.20685166600742377,None,0,8,67.57229449998704,67.5834900419868,69.56750774997636,69.59100858299644,,,,,,,,,,,,,,,,,,,,,,,,,,,,289911,001,2024-06-28_12h27.01.674,5-21,2024.1.4,None,2024-06-28 12h27.06.370967 +0900,
Images/Speaker1.jpg,Images/Speaker2.jpg,Images/Speaker3.jpg,Images/Speaker4.jpg,Audio/Speaker3_En/P3-7-En.wav,Speaker3,گوینده۳,,,,,,,,,,,,,,,,0,8,8,46,,,,,69.59100858299644,,,,,,,,,,,,,,,,,,,,,,,,,,,,,,,,,,,,,,,,,,,,,69.5677255000046,69.59100858299644,69.59100858299644,69.59100858299644,69.59100858299644,69.60061975033798,69.59100858299644,69.59100858299644,69.7756407079869,Incorrect! The correct answer is Speaker3. نادرست! پاسخ صحیح گوینده۳ است,1,0.18361837501288392,None,0,9,69.7794826249883,69.79195562499808,71.78710975000286,,,,,,,,,,,,,,,,,,,,,,,,,,,,,289911,001,2024-06-28_12h27.01.674,5-21,2024.1.4,None,2024-06-28 12h27.06.370967 +0900,
Images/Speaker1.jpg,Images/Speaker2.jpg,Images/Speaker3.jpg,Images/Speaker4.jpg,Audio/Speaker4_En/P4-10-En.wav,Speaker4,گوینده۴,,,,,,,,,,,,,,,,0,9,9,69,,,,,71.8101507499814,,,,,,,,,,,,,,,,,,,,,,,,,,,,,,,,,,,,,,,,,,,,,71.7872648749908,71.8101507499814,71.8101507499814,71.8101507499814,71.8101507499814,71.80373316666034,71.8101507499814,71.8101507499814,71.81073174998164,Incorrect! The correct answer is Speaker4. نادرست! پاسخ صحیح گوینده۴ است,1,2.112264666997362,None,0,10,71.81479112498346,71.82443087498541,73.81601995800156,,,,,,,,,,,,,,,,,,,,,,,,,,,,,289911,001,2024-06-28_12h27.01.674,5-21,2024.1.4,None,2024-06-28 12h27.06.370967 +0900,
Images/Speaker1.jpg,Images/Speaker2.jpg,Images/Speaker3.jpg,Images/Speaker4.jpg,Audio/Speaker3_En/P3-13-En.wav,Speaker3,گوینده۳,,,,,,,,,,,,,,,,0,10,10,52,,,,,73.84020679199602,,,,,,,,,,,,,,,,,,,,,,,,,,,,,,,,,,,,,,,,,,,,,73.81618241698015,73.84020679199602,73.84020679199602,73.84020679199602,73.84020679199602,73.84931495833055,73.84020679199602,73.84020679199602,74.12907291698502,Incorrect! The correct answer is Speaker3. نادرست! پاسخ صحیح گوینده۳ است,1,0.2782047920045443,None,0,11,74.13328512498992,74.14643983298447,76.13862783298828,,,,,,,,,,,,,,,,,,,,,,,,,,,,,289911,001,2024-06-28_12h27.01.674,5-21,2024.1.4,None,2024-06-28 12h27.06.370967 +0900,
Images/Speaker1.jpg,Images/Speaker2.jpg,Images/Speaker3.jpg,Images/Speaker4.jpg,Audio/Speaker3_En/P3-3-En.wav,Speaker3,گوینده۳,,,,,,,,,,,,,,,,0,11,11,42,,,,,76.16419754197705,,,,,,,,,,,,,,,,,,,,,,,,,,,,,,,,,,,,,,,,,,,,,76.13926208298653,76.16419754197705,76.16419754197705,76.16419754197705,76.16419754197705,76.17179004132825,76.16419754197705,76.16419754197705,76.17984554197756,Incorrect! The correct answer is Speaker3. نادرست! پاسخ صحیح گوینده۳ است,1,0.013633082999149337,None,0,12,76.1835842919827,76.19608116699965,78.18205974999,78.20558612499735,,,,,,,,,,,,,,,,,,,,,,,,,,,,289911,001,2024-06-28_12h27.01.674,5-21,2024.1.4,None,2024-06-28 12h27.06.370967 +0900,
Images/Speaker1.jpg,Images/Speaker2.jpg,Images/Speaker3.jpg,Images/Speaker4.jpg,Audio/Speaker4_En/P4-5-En.wav,Speaker4,گوینده۴,,,,,,,,,,,,,,,,0,12,12,64,,,,,78.20558612499735,,,,,,,,,,,,,,,,,,,,,,,,,,,,,,,,,,,,,,,,,,,,,78.18224987498252,78.20558612499735,78.20558612499735,78.20558612499735,78.20558612499735,78.21517608332991,78.20558612499735,78.20558612499735,78.58164854199276,Incorrect! The correct answer is Speaker4. نادرست! پاسخ صحیح گوینده۴ است,1,0.36931466599344276,None,0,13,78.58547920797719,78.59837249998236,80.58668325000326,,,,,,,,,,,,,,,,,,,,,,,,,,,,,289911,001,2024-06-28_12h27.01.674,5-21,2024.1.4,None,2024-06-28 12h27.06.370967 +0900,
Images/Speaker1.jpg,Images/Speaker2.jpg,Images/Speaker3.jpg,Images/Speaker4.jpg,Audio/Speaker1_En/P1-8-En.wav,Speaker1,گوینده ۱,,,,,,,,,,,,,,,,0,13,13,7,,,,,80.60972637499799,,,,,,,,,,,,,,,,,,,,,,,,,,,,,,,,,,,,,,,,,,,,,80.5868531249871,80.60972637499799,80.60972637499799,80.60972637499799,80.60972637499799,80.60331916666861,80.60972637499799,80.60972637499799,81.23418079200201,Correct! صحیح است,1,0.6218866250128485,None,0,14,81.23798991699005,81.24931262500468,83.23298629198689,83.25985791700077,,,,,,,,,,,,,,,,,,,,,,,,,,,,289911,001,2024-06-28_12h27.01.674,5-21,2024.1.4,None,2024-06-28 12h27.06.370967 +0900,
Images/Speaker1.jpg,Images/Speaker2.jpg,Images/Speaker3.jpg,Images/Speaker4.jpg,Audio/Speaker1_En/P1-7-En.wav,Speaker1,گوینده ۱,,,,,,,,,,,,,,,,0,14,14,6,,,,,83.25985791700077,,,,,,,,,,,,,,,,,,,,,,,,,,,,,,,,,,,,,,,,,,,,,83.2339135420043,83.25985791700077,83.25985791700077,83.25985791700077,83.25985791700077,83.2653527083244,83.25985791700077,83.25985791700077,86.45757254198543,Correct! صحیح است,1,3.195397291012341,None,0,15,86.45784891699441,86.46944012498716,88.4541852499824,88.4776873329829,,,,,,,,,,,,,,,,,,,,,,,,,,,,289911,001,2024-06-28_12h27.01.674,5-21,2024.1.4,None,2024-06-28 12h27.06.370967 +0900,
Images/Speaker1.jpg,Images/Speaker2.jpg,Images/Speaker3.jpg,Images/Speaker4.jpg,Audio/Speaker4_En/P4-8-En.wav,Speaker4,گوینده۴,,,,,,,,,,,,,,,,0,15,15,67,,,,,88.4776873329829,,,,,,,,,,,,,,,,,,,,,,,,,,,,,,,,,,,,,,,,,,,,,88.45434104200103,88.4776873329829,88.4776873329829,88.4776873329829,88.4776873329829,88.48726687531646,88.4776873329829,88.4776873329829,90.03566787499585,Incorrect! The correct answer is Speaker4. نادرست! پاسخ صحیح گوینده۴ است,1,1.5490521250176243,None,0,16,90.03968758299015,90.05107816698728,92.04046550000203,,,,,,,,,,,,,,,,,,,,,,,,,,,,,289911,001,2024-06-28_12h27.01.674,5-21,2024.1.4,None,2024-06-28 12h27.06.370967 +0900,
Images/Speaker1.jpg,Images/Speaker2.jpg,Images/Speaker3.jpg,Images/Speaker4.jpg,Audio/Speaker4_En/P4-11-En.wav,Speaker4,گوینده۴,,,,,,,,,,,,,,,,0,16,16,70,,,,,92.06394929200178,,,,,,,,,,,,,,,,,,,,,,,,,,,,,,,,,,,,,,,,,,,,,92.0406453750038,92.06394929200178,92.06394929200178,92.06394929200178,92.06394929200178,92.073755625323,92.06394929200178,92.06394929200178,92.67115320797893,Incorrect! The correct answer is Speaker4. نادرست! پاسخ صحیح گوینده۴ است,1,0.6052767919900361,None,0,17,92.67486899998039,92.68765058298595,94.68321929199737,,,,,,,,,,,,,,,,,,,,,,,,,,,,,289911,001,2024-06-28_12h27.01.674,5-21,2024.1.4,None,2024-06-28 12h27.06.370967 +0900,
Images/Speaker1.jpg,Images/Speaker2.jpg,Images/Speaker3.jpg,Images/Speaker4.jpg,Audio/Speaker2_En/P2-15-En.wav,Speaker2,گوینده۲,,,,,,,,,,,,,,,,0,17,17,34,,,,,94.7085950000037,,,,,,,,,,,,,,,,,,,,,,,,,,,,,,,,,,,,,,,,,,,,,94.68382791700424,94.7085950000037,94.7085950000037,94.7085950000037,94.7085950000037,94.7164036253312,94.7085950000037,94.7085950000037,95.08548645800329,Incorrect! The correct answer is Speaker2. نادرست! پاسخ صحیح گوینده۲ است,1,0.36943950000568293,None,0,18,95.09006008299184,95.10408037499292,97.09592312498717,,,,,,,,,,,,,,,,,,,,,,,,,,,,,289911,001,2024-06-28_12h27.01.674,5-21,2024.1.4,None,2024-06-28 12h27.06.370967 +0900,
Images/Speaker1.jpg,Images/Speaker2.jpg,Images/Speaker3.jpg,Images/Speaker4.jpg,Audio/Speaker4_En/P4-14-En.wav,Speaker4,گوینده۴,,,,,,,,,,,,,,,,0,18,18,73,,,,,97.12073383299867,,,,,,,,,,,,,,,,,,,,,,,,,,,,,,,,,,,,,,,,,,,,,97.0960908329871,97.12073383299867,97.12073383299867,97.12073383299867,97.12073383299867,97.12922216632481,97.12073383299867,97.12073383299867,97.44740583299426,Incorrect! The correct answer is Speaker4. نادرست! پاسخ صحیح گوینده۴ است,1,0.3245777919946704,None,0,19,97.45116937498096,97.4640785829979,99.44721679200302,99.47018204198685,,,,,,,,,,,,,,,,,,,,,,,,,,,,289911,001,2024-06-28_12h27.01.674,5-21,2024.1.4,None,2024-06-28 12h27.06.370967 +0900,
Images/Speaker1.jpg,Images/Speaker2.jpg,Images/Speaker3.jpg,Images/Speaker4.jpg,Audio/Speaker1_En/P1-5-En.wav,Speaker1,گوینده ۱,,,,,,,,,,,,,,,,0,19,19,4,,,,,99.47018204198685,,,,,,,,,,,,,,,,,,,,,,,,,,,,,,,,,,,,,,,,,,,,,99.44740554198506,99.47018204198685,99.47018204198685,99.47018204198685,99.47018204198685,99.4802738333315,99.47018204198685,99.47018204198685,99.74565070797689,Correct! صحیح است,1,0.2701264999923296,None,0,20,99.74993987497874,99.760725250002,101.74619895798969,101.76895716699073,,,,,,,,,,,,,,,,,,,,,,,,,,,,289911,001,2024-06-28_12h27.01.674,5-21,2024.1.4,None,2024-06-28 12h27.06.370967 +0900,
Images/Speaker1.jpg,Images/Speaker2.jpg,Images/Speaker3.jpg,Images/Speaker4.jpg,Audio/Speaker2_En/P2-8-En.wav,Speaker2,گوینده۲,,,,,,,,,,,,,,,,0,20,20,27,,,,,101.76895716699073,,,,,,,,,,,,,,,,,,,,,,,,,,,,,,,,,,,,,,,,,,,,,101.74634899999364,101.76895716699073,101.76895716699073,101.76895716699073,101.76895716699073,101.76265137465477,101.76895716699073,101.76895716699073,102.16345495800488,Incorrect! The correct answer is Speaker2. نادرست! پاسخ صحیح گوینده۲ است,1,0.39329791598720476,None,0,21,102.16747120799846,102.18035241699545,104.16502724998281,104.18877874998725,,,,,,,,,,,,,,,,,,,,,,,,,,,,289911,001,2024-06-28_12h27.01.674,5-21,2024.1.4,None,2024-06-28 12h27.06.370967 +0900,
Images/Speaker1.jpg,Images/Speaker2.jpg,Images/Speaker3.jpg,Images/Speaker4.jpg,Audio/Speaker1_En/P1-2-En.wav,Speaker1,گوینده ۱,,,,,,,,,,,,,,,,0,21,21,1,,,,,104.18877874998725,,,,,,,,,,,,,,,,,,,,,,,,,,,,,,,,,,,,,,,,,,,,,104.16522762499517,104.18877874998725,104.18877874998725,104.18877874998725,104.18877874998725,104.19814845833073,104.18877874998725,104.18877874998725,104.37959149997914,Correct! صحیح است,1,0.18604591599432752,None,0,22,104.38371612498304,104.3962454579887,106.39072270799079,,,,,,,,,,,,,,,,,,,,,,,,,,,,,289911,001,2024-06-28_12h27.01.674,5-21,2024.1.4,None,2024-06-28 12h27.06.370967 +0900,
Images/Speaker1.jpg,Images/Speaker2.jpg,Images/Speaker3.jpg,Images/Speaker4.jpg,Audio/Speaker2_En/P2-7-En.wav,Speaker2,گوینده۲,,,,,,,,,,,,,,,,0,22,22,26,,,,,106.41564962497796,,,,,,,,,,,,,,,,,,,,,,,,,,,,,,,,,,,,,,,,,,,,,106.39136645800318,106.41564962497796,106.41564962497796,106.41564962497796,106.41564962497796,106.42384254132824,106.41564962497796,106.41564962497796,106.63939016699442,Incorrect! The correct answer is Speaker2. نادرست! پاسخ صحیح گوینده۲ است,1,0.21206624998012558,None,0,23,106.64342049998231,106.65617454200401,108.64859533298295,,,,,,,,,,,,,,,,,,,,,,,,,,,,,289911,001,2024-06-28_12h27.01.674,5-21,2024.1.4,None,2024-06-28 12h27.06.370967 +0900,
Images/Speaker1.jpg,Images/Speaker2.jpg,Images/Speaker3.jpg,Images/Speaker4.jpg,Audio/Speaker2_En/P2-13-En.wav,Speaker2,گوینده۲,,,,,,,,,,,,,,,,0,23,23,32,,,,,108.67464341700543,,,,,,,,,,,,,,,,,,,,,,,,,,,,,,,,,,,,,,,,,,,,,108.6492210830038,108.67464341700543,108.67464341700543,108.67464341700543,108.67464341700543,108.68176075031127,108.67464341700543,108.67464341700543,108.78698770797928,Incorrect! The correct answer is Speaker2. نادرست! پاسخ صحیح گوینده۲ است,1,0.10425912498612888,None,0,24,108.7911933749856,108.80153274998884,110.79648583297967,,,,,,,,,,,,,,,,,,,,,,,,,,,,,289911,001,2024-06-28_12h27.01.674,5-21,2024.1.4,None,2024-06-28 12h27.06.370967 +0900,
Images/Speaker1.jpg,Images/Speaker2.jpg,Images/Speaker3.jpg,Images/Speaker4.jpg,Audio/Speaker2_En/P2-4-En.wav,Speaker2,گوینده۲,,,,,,,,,,,,,,,,0,24,24,23,,,,,110.82225370800006,,,,,,,,,,,,,,,,,,,,,,,,,,,,,,,,,,,,,,,,,,,,,110.7971400419774,110.82225370800006,110.82225370800006,110.82225370800006,110.82225370800006,110.82964808331647,110.82225370800006,110.82225370800006,111.06607366699609,Incorrect! The correct answer is Speaker2. نادرست! پاسخ صحیح گوینده۲ است,1,0.2297881250269711,None,0,25,111.07002258297871,111.08279687497998,113.07111679197988,,,,,,,,,,,,,,,,,,,,,,,,,,,,,289911,001,2024-06-28_12h27.01.674,5-21,2024.1.4,None,2024-06-28 12h27.06.370967 +0900,
Images/Speaker1.jpg,Images/Speaker2.jpg,Images/Speaker3.jpg,Images/Speaker4.jpg,Audio/Speaker3_En/P3-17-En.wav,Speaker3,گوینده۳,,,,,,,,,,,,,,,,0,25,25,56,,,,,113.09394937500474,,,,,,,,,,,,,,,,,,,,,,,,,,,,,,,,,,,,,,,,,,,,,113.07128295800067,113.09394937500474,113.09394937500474,113.09394937500474,113.09394937500474,113.08774945864958,113.09394937500474,113.09394937500474,113.3177838329866,Incorrect! The correct answer is Speaker3. نادرست! پاسخ صحیح گوینده۳ است,1,0.2228459999896586,None,0,26,113.32188520798809,113.33516304197838,115.33109345799312,,,,,,,,,,,,,,,,,,,,,,,,,,,,,289911,001,2024-06-28_12h27.01.674,5-21,2024.1.4,None,2024-06-28 12h27.06.370967 +0900,
Images/Speaker1.jpg,Images/Speaker2.jpg,Images/Speaker3.jpg,Images/Speaker4.jpg,Audio/Speaker2_En/P2-3-En.wav,Speaker2,گوینده۲,,,,,,,,,,,,,,,,0,26,26,22,,,,,115.35616533298162,,,,,,,,,,,,,,,,,,,,,,,,,,,,,,,,,,,,,,,,,,,,,115.33166399999755,115.35616533298162,115.35616533298162,115.35616533298162,115.35616533298162,115.36424920833863,115.35616533298162,115.35616533298162,115.56655012498959,Incorrect! The correct answer is Speaker2. نادرست! پاسخ صحیح گوینده۲ است,1,0.20262958298553713,None,0,27,115.57065266699647,115.58049562497763,117.57300566698541,,,,,,,,,,,,,,,,,,,,,,,,,,,,,289911,001,2024-06-28_12h27.01.674,5-21,2024.1.4,None,2024-06-28 12h27.06.370967 +0900,
Images/Speaker1.jpg,Images/Speaker2.jpg,Images/Speaker3.jpg,Images/Speaker4.jpg,Audio/Speaker4_En/P4-4-En.wav,Speaker4,گوینده۴,,,,,,,,,,,,,,,,0,27,27,63,,,,,117.5971350419859,,,,,,,,,,,,,,,,,,,,,,,,,,,,,,,,,,,,,,,,,,,,,117.573178791994,117.5971350419859,117.5971350419859,117.5971350419859,117.5971350419859,117.6062985413378,117.5971350419859,117.5971350419859,117.75407883297885,Incorrect! The correct answer is Speaker4. نادرست! پاسخ صحیح گوینده۴ است,1,0.15585954202106223,None,0,28,117.75812799998675,117.77109029199346,119.76470699999481,,,,,,,,,,,,,,,,,,,,,,,,,,,,,289911,001,2024-06-28_12h27.01.674,5-21,2024.1.4,None,2024-06-28 12h27.06.370967 +0900,
Images/Speaker1.jpg,Images/Speaker2.jpg,Images/Speaker3.jpg,Images/Speaker4.jpg,Audio/Speaker3_En/P3-4-En.wav,Speaker3,گوینده۳,,,,,,,,,,,,,,,,0,28,28,43,,,,,119.79206224999507,,,,,,,,,,,,,,,,,,,,,,,,,,,,,,,,,,,,,,,,,,,,,119.76531841699034,119.79206224999507,119.79206224999507,119.79206224999507,119.79206224999507,119.79782829131776,119.79206224999507,119.79206224999507,119.90090904198587,Incorrect! The correct answer is Speaker3. نادرست! پاسخ صحیح گوینده۳ است,1,0.10588770799222402,None,0,29,119.90471454200451,119.91741666698363,121.91265033298987,,,,,,,,,,,,,,,,,,,,,,,,,,,,,289911,001,2024-06-28_12h27.01.674,5-21,2024.1.4,None,2024-06-28 12h27.06.370967 +0900,
Images/Speaker1.jpg,Images/Speaker2.jpg,Images/Speaker3.jpg,Images/Speaker4.jpg,Audio/Speaker2_En/P2-19-En.wav,Speaker2,گوینده۲,,,,,,,,,,,,,,,,0,29,29,38,,,,,121.93695287499577,,,,,,,,,,,,,,,,,,,,,,,,,,,,,,,,,,,,,,,,,,,,,121.91281733298092,121.93695287499577,121.93695287499577,121.93695287499577,121.93695287499577,121.94594900031419,121.93695287499577,121.93695287499577,122.24074137498974,Incorrect! The correct answer is Speaker2. نادرست! پاسخ صحیح گوینده۲ است,1,0.30077154200989753,None,0,30,122.24507924998761,122.25812462499016,124.24139958299929,124.27035341699957,,,,,,,,,,,,,,,,,,,,,,,,,,,,289911,001,2024-06-28_12h27.01.674,5-21,2024.1.4,None,2024-06-28 12h27.06.370967 +0900,
Images/Speaker1.jpg,Images/Speaker2.jpg,Images/Speaker3.jpg,Images/Speaker4.jpg,Audio/Speaker3_En/P3-11-En.wav,Speaker3,گوینده۳,,,,,,,,,,,,,,,,0,30,30,50,,,,,124.27035341699957,,,,,,,,,,,,,,,,,,,,,,,,,,,,,,,,,,,,,,,,,,,,,124.2423156669829,124.27035341699957,124.27035341699957,124.27035341699957,124.27035341699957,124.27384270833184,124.27035341699957,124.27035341699957,124.73297387498314,Incorrect! The correct answer is Speaker3. نادرست! پاسخ صحیح گوینده۳ است,1,0.45056712499354035,None,0,31,124.73727074998897,124.74820199998794,126.74492595798802,,,,,,,,,,,,,,,,,,,,,,,,,,,,,289911,001,2024-06-28_12h27.01.674,5-21,2024.1.4,None,2024-06-28 12h27.06.370967 +0900,
Images/Speaker1.jpg,Images/Speaker2.jpg,Images/Speaker3.jpg,Images/Speaker4.jpg,Audio/Speaker2_En/P2-16-En.wav,Speaker2,گوینده۲,,,,,,,,,,,,,,,,0,31,31,35,,,,,126.77068866699119,,,,,,,,,,,,,,,,,,,,,,,,,,,,,,,,,,,,,,,,,,,,,126.74547004199121,126.77068866699119,126.77068866699119,126.77068866699119,126.77068866699119,126.77811125032216,126.77068866699119,126.77068866699119,127.03857458298444,Incorrect! The correct answer is Speaker2. نادرست! پاسخ صحیح گوینده۲ است,1,0.26615529198898,None,0,32,127.04380408299039,127.05700516697834,129.0448873330024,,,,,,,,,,,,,,,,,,,,,,,,,,,,,289911,001,2024-06-28_12h27.01.674,5-21,2024.1.4,None,2024-06-28 12h27.06.370967 +0900,
Images/Speaker1.jpg,Images/Speaker2.jpg,Images/Speaker3.jpg,Images/Speaker4.jpg,Audio/Speaker1_En/P1-4-En.wav,Speaker1,گوینده ۱,,,,,,,,,,,,,,,,0,32,32,13,,,,,129.06945608300157,,,,,,,,,,,,,,,,,,,,,,,,,,,,,,,,,,,,,,,,,,,,,129.04505262497696,129.06945608300157,129.06945608300157,129.06945608300157,129.06945608300157,129.07817945833864,129.06945608300157,129.06945608300157,129.32326254199143,Correct! صحیح است,1,0.2501357090077363,None,0,33,129.32702391699422,129.3377748329949,131.32834162499057,,,,,,,,,,,,,,,,,,,,,,,,,,,,,289911,001,2024-06-28_12h27.01.674,5-21,2024.1.4,None,2024-06-28 12h27.06.370967 +0900,
Images/Speaker1.jpg,Images/Speaker2.jpg,Images/Speaker3.jpg,Images/Speaker4.jpg,Audio/Speaker1_En/P1-9-En.wav,Speaker1,گوینده ۱,,,,,,,,,,,,,,,,0,33,33,8,,,,,131.3559637919825,,,,,,,,,,,,,,,,,,,,,,,,,,,,,,,,,,,,,,,,,,,,,131.32895858297707,131.3559637919825,131.3559637919825,131.3559637919825,131.3559637919825,131.3615002503289,131.3559637919825,131.3559637919825,131.55106333299773,Correct! صحیح است,1,0.1918077500013169,None,0,34,131.55483633300173,131.5659530419798,133.5584902499977,,,,,,,,,,,,,,,,,,,,,,,,,,,,,289911,001,2024-06-28_12h27.01.674,5-21,2024.1.4,None,2024-06-28 12h27.06.370967 +0900,
Images/Speaker1.jpg,Images/Speaker2.jpg,Images/Speaker3.jpg,Images/Speaker4.jpg,Audio/Speaker1_En/P1-16-En.wav,Speaker1,گوینده ۱,,,,,,,,,,,,,,,,0,34,34,15,,,,,133.58144129198627,,,,,,,,,,,,,,,,,,,,,,,,,,,,,,,,,,,,,,,,,,,,,133.5586599999806,133.58144129198627,133.58144129198627,133.58144129198627,133.58144129198627,133.57512512465863,133.58144129198627,133.58144129198627,133.6946094580053,Correct! صحیح است,1,None,None,0,35,133.69894199998816,133.70745083299698,135.69409470798564,135.7218629999843,,,,,,,,,,,,,,,,,,,,,,,,,,,,289911,001,2024-06-28_12h27.01.674,5-21,2024.1.4,None,2024-06-28 12h27.06.370967 +0900,
Images/Speaker1.jpg,Images/Speaker2.jpg,Images/Speaker3.jpg,Images/Speaker4.jpg,Audio/Speaker4_En/P4-7-En.wav,Speaker4,گوینده۴,,,,,,,,,,,,,,,,0,35,35,66,,,,,135.7218629999843,,,,,,,,,,,,,,,,,,,,,,,,,,,,,,,,,,,,,,,,,,,,,135.69481983297737,135.7218629999843,135.7218629999843,135.7218629999843,135.7218629999843,135.7265491253134,135.7218629999843,135.7218629999843,135.93413466698257,Incorrect! The correct answer is Speaker4. نادرست! پاسخ صحیح گوینده۴ است,1,0.21054345899028704,None,0,36,135.93823354199412,135.95218049999676,137.93721649999497,137.96076512499712,,,,,,,,,,,,,,,,,,,,,,,,,,,,289911,001,2024-06-28_12h27.01.674,5-21,2024.1.4,None,2024-06-28 12h27.06.370967 +0900,
Images/Speaker1.jpg,Images/Speaker2.jpg,Images/Speaker3.jpg,Images/Speaker4.jpg,Audio/Speaker4_En/P4-1-En.wav,Speaker4,گوینده۴,,,,,,,,,,,,,,,,0,36,36,60,,,,,137.96076512499712,,,,,,,,,,,,,,,,,,,,,,,,,,,,,,,,,,,,,,,,,,,,,137.9373805419891,137.96076512499712,137.96076512499712,137.96076512499712,137.96076512499712,137.97034625031716,137.96076512499712,137.96076512499712,138.47076249998645,Incorrect! The correct answer is Speaker4. نادرست! پاسخ صحیح گوینده۴ است,1,0.5062863329949323,None,0,37,138.47451416699914,138.48912466698675,140.47318212498794,140.49732045800192,,,,,,,,,,,,,,,,,,,,,,,,,,,,289911,001,2024-06-28_12h27.01.674,5-21,2024.1.4,None,2024-06-28 12h27.06.370967 +0900,
Images/Speaker1.jpg,Images/Speaker2.jpg,Images/Speaker3.jpg,Images/Speaker4.jpg,Audio/Speaker2_En/P2-14-En.wav,Speaker2,گوینده۲,,,,,,,,,,,,,,,,0,37,37,33,,,,,140.49732045800192,,,,,,,,,,,,,,,,,,,,,,,,,,,,,,,,,,,,,,,,,,,,,140.4733803329873,140.49732045800192,140.49732045800192,140.49732045800192,140.49732045800192,140.50630520832107,140.49732045800192,140.49732045800192,140.5084354999999,Incorrect! The correct answer is Speaker2. نادرست! پاسخ صحیح گوینده۲ است,1,0.006623499997658655,None,0,38,140.51260449999245,140.5251552919799,142.50827270798618,142.5316749170015,,,,,,,,,,,,,,,,,,,,,,,,,,,,289911,001,2024-06-28_12h27.01.674,5-21,2024.1.4,None,2024-06-28 12h27.06.370967 +0900,
Images/Speaker1.jpg,Images/Speaker2.jpg,Images/Speaker3.jpg,Images/Speaker4.jpg,Audio/Speaker1_En/P1-19-En.wav,Speaker1,گوینده ۱,,,,,,,,,,,,,,,,0,38,38,18,,,,,142.5316749170015,,,,,,,,,,,,,,,,,,,,,,,,,,,,,,,,,,,,,,,,,,,,,142.50846541699138,142.5316749170015,142.5316749170015,142.5316749170015,142.5316749170015,142.541326166313,142.5316749170015,142.5316749170015,142.73647695800173,Correct! صحیح است,1,0.2015072920185048,None,0,39,142.74148641698412,142.7539752080047,144.73909787498997,144.76353274998837,,,,,,,,,,,,,,,,,,,,,,,,,,,,289911,001,2024-06-28_12h27.01.674,5-21,2024.1.4,None,2024-06-28 12h27.06.370967 +0900,
Images/Speaker1.jpg,Images/Speaker2.jpg,Images/Speaker3.jpg,Images/Speaker4.jpg,Audio/Speaker2_En/P2-5-En.wav,Speaker2,گوینده۲,,,,,,,,,,,,,,,,0,39,39,24,,,,,144.76353274998837,,,,,,,,,,,,,,,,,,,,,,,,,,,,,,,,,,,,,,,,,,,,,144.73925262500416,144.76353274998837,144.76353274998837,144.76353274998837,144.76353274998837,144.75554037467035,144.76353274998837,144.76353274998837,144.92982095800107,Incorrect! The correct answer is Speaker2. نادرست! پاسخ صحیح گوینده۲ است,1,None,None,0,40,144.93360670798575,144.94461037497967,146.9343654169934,146.9598641670018,,,,,,,,,,,,,,,,,,,,,,,,,,,,289911,001,2024-06-28_12h27.01.674,5-21,2024.1.4,None,2024-06-28 12h27.06.370967 +0900,
Images/Speaker1.jpg,Images/Speaker2.jpg,Images/Speaker3.jpg,Images/Speaker4.jpg,Audio/Speaker2_En/P2-18-En.wav,Speaker2,گوینده۲,,,,,,,,,,,,,,,,0,40,40,37,,,,,146.9598641670018,,,,,,,,,,,,,,,,,,,,,,,,,,,,,,,,,,,,,,,,,,,,,146.93537599997944,146.9598641670018,146.9598641670018,146.9598641670018,146.9598641670018,146.9668493333234,146.9598641670018,146.9598641670018,147.17507037500036,Incorrect! The correct answer is Speaker2. نادرست! پاسخ صحیح گوینده۲ است,1,0.21361949999118224,None,0,41,147.18018741699052,147.193579416984,149.18375770800048,,,,,,,,,,,,,,,,,,,,,,,,,,,,,289911,001,2024-06-28_12h27.01.674,5-21,2024.1.4,None,2024-06-28 12h27.06.370967 +0900,
Images/Speaker1.jpg,Images/Speaker2.jpg,Images/Speaker3.jpg,Images/Speaker4.jpg,Audio/Speaker1_En/P1-13-En.wav,Speaker1,گوینده ۱,,,,,,,,,,,,,,,,0,41,41,12,,,,,149.20906379199005,,,,,,,,,,,,,,,,,,,,,,,,,,,,,,,,,,,,,,,,,,,,,149.18436466698768,149.20906379199005,149.20906379199005,149.20906379199005,149.20906379199005,149.21693645831743,149.20906379199005,149.20906379199005,149.4165097079822,Correct! صحیح است,1,0.19664529198780656,None,0,42,149.4207987919799,149.43131262500538,151.4240668329876,,,,,,,,,,,,,,,,,,,,,,,,,,,,,289911,001,2024-06-28_12h27.01.674,5-21,2024.1.4,None,2024-06-28 12h27.06.370967 +0900,
Images/Speaker1.jpg,Images/Speaker2.jpg,Images/Speaker3.jpg,Images/Speaker4.jpg,Audio/Speaker4_En/P4-13-En.wav,Speaker4,گوینده۴,,,,,,,,,,,,,,,,0,42,42,72,,,,,151.44705104199238,,,,,,,,,,,,,,,,,,,,,,,,,,,,,,,,,,,,,,,,,,,,,151.42423841697746,151.44705104199238,151.44705104199238,151.44705104199238,151.44705104199238,151.44070045865763,151.44705104199238,151.44705104199238,151.70036808299483,Incorrect! The correct answer is Speaker4. نادرست! پاسخ صحیح گوینده۴ است,1,0.25235774999600835,None,0,43,151.70424445800018,151.71765695800423,153.70456887499313,,,,,,,,,,,,,,,,,,,,,,,,,,,,,289911,001,2024-06-28_12h27.01.674,5-21,2024.1.4,None,2024-06-28 12h27.06.370967 +0900,
Images/Speaker1.jpg,Images/Speaker2.jpg,Images/Speaker3.jpg,Images/Speaker4.jpg,Audio/Speaker2_En/P2-12-En.wav,Speaker2,گوینده۲,,,,,,,,,,,,,,,,0,43,43,31,,,,,153.7321773750009,,,,,,,,,,,,,,,,,,,,,,,,,,,,,,,,,,,,,,,,,,,,,153.70527870798833,153.7321773750009,153.7321773750009,153.7321773750009,153.7321773750009,153.73771758331765,153.7321773750009,153.7321773750009,153.73837641699356,Incorrect! The correct answer is Speaker2. نادرست! پاسخ صحیح گوینده۲ است,1,0.0029517500079236925,None,0,44,153.74268291698536,153.755192874989,155.743619957997,,,,,,,,,,,,,,,,,,,,,,,,,,,,,289911,001,2024-06-28_12h27.01.674,5-21,2024.1.4,None,2024-06-28 12h27.06.370967 +0900,
Images/Speaker1.jpg,Images/Speaker2.jpg,Images/Speaker3.jpg,Images/Speaker4.jpg,Audio/Speaker3_En/P3-19-En.wav,Speaker3,گوینده۳,,,,,,,,,,,,,,,,0,44,44,58,,,,,155.77153187498334,,,,,,,,,,,,,,,,,,,,,,,,,,,,,,,,,,,,,,,,,,,,,155.7442864170007,155.77153187498334,155.77153187498334,155.77153187498334,155.77153187498334,155.77672958331146,155.77153187498334,155.77153187498334,156.1395992919861,Incorrect! The correct answer is Speaker3. نادرست! پاسخ صحیح گوینده۳ است,1,0.3590100830188021,None,0,45,156.14422854199074,156.1576609579788,158.140770375001,158.1653795419843,,,,,,,,,,,,,,,,,,,,,,,,,,,,289911,001,2024-06-28_12h27.01.674,5-21,2024.1.4,None,2024-06-28 12h27.06.370967 +0900,
Images/Speaker1.jpg,Images/Speaker2.jpg,Images/Speaker3.jpg,Images/Speaker4.jpg,Audio/Speaker4_En/P4-16-En.wav,Speaker4,گوینده۴,,,,,,,,,,,,,,,,0,45,45,75,,,,,158.1653795419843,,,,,,,,,,,,,,,,,,,,,,,,,,,,,,,,,,,,,,,,,,,,,158.14093637498445,158.1653795419843,158.1653795419843,158.1653795419843,158.1653795419843,158.17388679131597,158.1653795419843,158.1653795419843,158.4726587079931,Incorrect! The correct answer is Speaker4. نادرست! پاسخ صحیح گوینده۴ است,1,0.2962739579961635,None,0,46,158.47649291699054,158.4899714999774,160.4861753330042,,,,,,,,,,,,,,,,,,,,,,,,,,,,,289911,001,2024-06-28_12h27.01.674,5-21,2024.1.4,None,2024-06-28 12h27.06.370967 +0900,
Images/Speaker1.jpg,Images/Speaker2.jpg,Images/Speaker3.jpg,Images/Speaker4.jpg,Audio/Speaker3_En/P3-5-En.wav,Speaker3,گوینده۳,,,,,,,,,,,,,,,,0,46,46,44,,,,,160.51355400000466,,,,,,,,,,,,,,,,,,,,,,,,,,,,,,,,,,,,,,,,,,,,,160.48676945798798,160.51355400000466,160.51355400000466,160.51355400000466,160.51355400000466,160.51932458332936,160.51355400000466,160.51355400000466,160.66995529198903,Incorrect! The correct answer is Speaker3. نادرست! پاسخ صحیح گوینده۳ است,1,0.15543470799457282,None,0,47,160.67368362497655,160.68627333300537,162.66993679199368,162.69329233298777,,,,,,,,,,,,,,,,,,,,,,,,,,,,289911,001,2024-06-28_12h27.01.674,5-21,2024.1.4,None,2024-06-28 12h27.06.370967 +0900,
Images/Speaker1.jpg,Images/Speaker2.jpg,Images/Speaker3.jpg,Images/Speaker4.jpg,Audio/Speaker2_En/P2-20-En.wav,Speaker2,گوینده۲,,,,,,,,,,,,,,,,0,47,47,39,,,,,162.69329233298777,,,,,,,,,,,,,,,,,,,,,,,,,,,,,,,,,,,,,,,,,,,,,162.6701206669968,162.69329233298777,162.69329233298777,162.69329233298777,162.69329233298777,162.70306500033672,162.69329233298777,162.69329233298777,162.69394037500024,Incorrect! The correct answer is Speaker2. نادرست! پاسخ صحیح گوینده۲ است,1,2.0871354159899056,None,0,48,162.69424870799412,162.70375295798294,164.6877711249981,164.7121713749948,,,,,,,,,,,,,,,,,,,,,,,,,,,,289911,001,2024-06-28_12h27.01.674,5-21,2024.1.4,None,2024-06-28 12h27.06.370967 +0900,
Images/Speaker1.jpg,Images/Speaker2.jpg,Images/Speaker3.jpg,Images/Speaker4.jpg,Audio/Speaker3_En/P3-1-En.wav,Speaker3,گوینده۳,,,,,,,,,,,,,,,,0,48,48,40,,,,,164.7121713749948,,,,,,,,,,,,,,,,,,,,,,,,,,,,,,,,,,,,,,,,,,,,,164.68796666699927,164.7121713749948,164.7121713749948,164.7121713749948,164.7121713749948,164.720894916311,164.7121713749948,164.7121713749948,164.9255060419964,Incorrect! The correct answer is Speaker3. نادرست! پاسخ صحیح گوینده۳ است,1,0.20451091701397672,None,0,49,164.9293070419808,164.94241320798756,166.92922645798535,166.95027524998295,,,,,,,,,,,,,,,,,,,,,,,,,,,,289911,001,2024-06-28_12h27.01.674,5-21,2024.1.4,None,2024-06-28 12h27.06.370967 +0900,
Images/Speaker1.jpg,Images/Speaker2.jpg,Images/Speaker3.jpg,Images/Speaker4.jpg,Audio/Speaker3_En/P3-12-En.wav,Speaker3,گوینده۳,,,,,,,,,,,,,,,,0,49,49,51,,,,,166.95027524998295,,,,,,,,,,,,,,,,,,,,,,,,,,,,,,,,,,,,,,,,,,,,,166.9294079169922,166.95027524998295,166.95027524998295,166.95027524998295,166.95027524998295,166.94566174966556,166.95027524998295,166.95027524998295,167.17989737499738,Incorrect! The correct answer is Speaker3. نادرست! پاسخ صحیح گوینده۳ است,1,0.22479337500408292,None,0,50,167.18368679197738,167.19615291699301,169.18069620800088,169.20308870798908,,,,,,,,,,,,,,,,,,,,,,,,,,,,289911,001,2024-06-28_12h27.01.674,5-21,2024.1.4,None,2024-06-28 12h27.06.370967 +0900,
Images/Speaker1.jpg,Images/Speaker2.jpg,Images/Speaker3.jpg,Images/Speaker4.jpg,Audio/Speaker1_En/P1-17-En.wav,Speaker1,گوینده ۱,,,,,,,,,,,,,,,,0,50,50,16,,,,,169.20308870798908,,,,,,,,,,,,,,,,,,,,,,,,,,,,,,,,,,,,,,,,,,,,,169.18086974998005,169.20308870798908,169.20308870798908,169.20308870798908,169.20308870798908,169.19710808367043,169.20308870798908,169.20308870798908,169.39270112500526,Correct! صحیح است,1,0.18172795898863114,None,0,51,169.39651054199203,169.40818133298308,171.3938968750008,171.42050433298573,,,,,,,,,,,,,,,,,,,,,,,,,,,,289911,001,2024-06-28_12h27.01.674,5-21,2024.1.4,None,2024-06-28 12h27.06.370967 +0900,
Images/Speaker1.jpg,Images/Speaker2.jpg,Images/Speaker3.jpg,Images/Speaker4.jpg,Audio/Speaker1_En/P1-18-En.wav,Speaker1,گوینده ۱,,,,,,,,,,,,,,,,0,51,51,17,,,,,171.42050433298573,,,,,,,,,,,,,,,,,,,,,,,,,,,,,,,,,,,,,,,,,,,,,171.39445958298165,171.42050433298573,171.42050433298573,171.42050433298573,171.42050433298573,171.4263110833204,171.42050433298573,171.42050433298573,171.711850666994,Correct! صحیح است,1,0.28796754201175645,None,0,52,171.71591258299304,171.72700641700067,173.71857037500013,,,,,,,,,,,,,,,,,,,,,,,,,,,,,289911,001,2024-06-28_12h27.01.674,5-21,2024.1.4,None,2024-06-28 12h27.06.370967 +0900,
Images/Speaker1.jpg,Images/Speaker2.jpg,Images/Speaker3.jpg,Images/Speaker4.jpg,Audio/Speaker2_En/P2-9-En.wav,Speaker2,گوینده۲,,,,,,,,,,,,,,,,0,52,52,28,,,,,173.74319345797994,,,,,,,,,,,,,,,,,,,,,,,,,,,,,,,,,,,,,,,,,,,,,173.7191292079806,173.74319345797994,173.74319345797994,173.74319345797994,173.74319345797994,173.75170983331242,173.74319345797994,173.74319345797994,173.93399770799442,Incorrect! The correct answer is Speaker2. نادرست! پاسخ صحیح گوینده۲ است,1,0.18975045799743384,None,0,53,173.93780200000037,173.95046562497737,175.93571070799953,175.96230287497747,,,,,,,,,,,,,,,,,,,,,,,,,,,,289911,001,2024-06-28_12h27.01.674,5-21,2024.1.4,None,2024-06-28 12h27.06.370967 +0900,
Images/Speaker1.jpg,Images/Speaker2.jpg,Images/Speaker3.jpg,Images/Speaker4.jpg,Audio/Speaker2_En/P2-11-En.wav,Speaker2,گوینده۲,,,,,,,,,,,,,,,,0,53,53,30,,,,,175.96230287497747,,,,,,,,,,,,,,,,,,,,,,,,,,,,,,,,,,,,,,,,,,,,,175.93636208298267,175.96230287497747,175.96230287497747,175.96230287497747,175.96230287497747,175.96810625031554,175.96230287497747,175.96230287497747,176.2251602920005,Incorrect! The correct answer is Speaker2. نادرست! پاسخ صحیح گوینده۲ است,1,0.25498537500970997,None,0,54,176.22906045799027,176.24150416700286,178.22692799998913,178.25334820800344,,,,,,,,,,,,,,,,,,,,,,,,,,,,289911,001,2024-06-28_12h27.01.674,5-21,2024.1.4,None,2024-06-28 12h27.06.370967 +0900,
Images/Speaker1.jpg,Images/Speaker2.jpg,Images/Speaker3.jpg,Images/Speaker4.jpg,Audio/Speaker3_En/P3-15-En.wav,Speaker3,گوینده۳,,,,,,,,,,,,,,,,0,54,54,54,,,,,178.25334820800344,,,,,,,,,,,,,,,,,,,,,,,,,,,,,,,,,,,,,,,,,,,,,178.2274312079826,178.25334820800344,178.25334820800344,178.25334820800344,178.25334820800344,178.2593094583213,178.25334820800344,178.25334820800344,178.43176020798273,Incorrect! The correct answer is Speaker3. نادرست! پاسخ صحیح گوینده۳ است,1,0.17471004198887385,None,0,55,178.43600337498356,178.44884408300277,180.44364008298726,,,,,,,,,,,,,,,,,,,,,,,,,,,,,289911,001,2024-06-28_12h27.01.674,5-21,2024.1.4,None,2024-06-28 12h27.06.370967 +0900,
Images/Speaker1.jpg,Images/Speaker2.jpg,Images/Speaker3.jpg,Images/Speaker4.jpg,Audio/Speaker2_En/P2-1-En.wav,Speaker2,گوینده۲,,,,,,,,,,,,,,,,0,55,55,20,,,,,180.46953645799658,,,,,,,,,,,,,,,,,,,,,,,,,,,,,,,,,,,,,,,,,,,,,180.44424924999475,180.46953645799658,180.46953645799658,180.46953645799658,180.46953645799658,180.47677404131588,180.46953645799658,180.46953645799658,180.74243279200164,Incorrect! The correct answer is Speaker2. نادرست! پاسخ صحیح گوینده۲ است,1,0.2643134999962058,None,0,56,180.74765858298633,180.76175266699283,182.74492195798666,182.77124458298204,,,,,,,,,,,,,,,,,,,,,,,,,,,,289911,001,2024-06-28_12h27.01.674,5-21,2024.1.4,None,2024-06-28 12h27.06.370967 +0900,
Images/Speaker1.jpg,Images/Speaker2.jpg,Images/Speaker3.jpg,Images/Speaker4.jpg,Audio/Speaker1_En/P1-12-En.wav,Speaker1,گوینده ۱,,,,,,,,,,,,,,,,0,56,56,11,,,,,182.77124458298204,,,,,,,,,,,,,,,,,,,,,,,,,,,,,,,,,,,,,,,,,,,,,182.74570212498656,182.77124458298204,182.77124458298204,182.77124458298204,182.77124458298204,182.77747254132606,182.77124458298204,182.77124458298204,183.00752008298878,Correct! صحیح است,1,0.23072416600189172,None,0,57,183.01155658299103,183.0229184999771,185.01799616697826,,,,,,,,,,,,,,,,,,,,,,,,,,,,,289911,001,2024-06-28_12h27.01.674,5-21,2024.1.4,None,2024-06-28 12h27.06.370967 +0900,
Images/Speaker1.jpg,Images/Speaker2.jpg,Images/Speaker3.jpg,Images/Speaker4.jpg,Audio/Speaker4_En/P4-20-En.wav,Speaker4,گوینده۴,,,,,,,,,,,,,,,,0,57,57,79,,,,,185.04063720800332,,,,,,,,,,,,,,,,,,,,,,,,,,,,,,,,,,,,,,,,,,,,,185.01863145799143,185.04063720800332,185.04063720800332,185.04063720800332,185.04063720800332,185.03452233365195,185.04063720800332,185.04063720800332,185.25736483299988,Incorrect! The correct answer is Speaker4. نادرست! پاسخ صحیح گوینده۴ است,1,0.2155966660066042,None,0,58,185.26155504200142,185.27548654199927,187.26948320798692,,,,,,,,,,,,,,,,,,,,,,,,,,,,,289911,001,2024-06-28_12h27.01.674,5-21,2024.1.4,None,2024-06-28 12h27.06.370967 +0900,
Images/Speaker1.jpg,Images/Speaker2.jpg,Images/Speaker3.jpg,Images/Speaker4.jpg,Audio/Speaker2_En/P2-17-En.wav,Speaker2,گوینده۲,,,,,,,,,,,,,,,,0,58,58,36,,,,,187.2957180829835,,,,,,,,,,,,,,,,,,,,,,,,,,,,,,,,,,,,,,,,,,,,,187.27003954199608,187.2957180829835,187.2957180829835,187.2957180829835,187.2957180829835,187.30265029133494,187.2957180829835,187.2957180829835,187.60002908299793,Incorrect! The correct answer is Speaker2. نادرست! پاسخ صحیح گوینده۲ است,1,0.2969917500158772,None,0,59,187.60375941699021,187.6163325419766,189.59955212500063,189.62247629198828,,,,,,,,,,,,,,,,,,,,,,,,,,,,289911,001,2024-06-28_12h27.01.674,5-21,2024.1.4,None,2024-06-28 12h27.06.370967 +0900,
Images/Speaker1.jpg,Images/Speaker2.jpg,Images/Speaker3.jpg,Images/Speaker4.jpg,Audio/Speaker3_En/P3-18-En.wav,Speaker3,گوینده۳,,,,,,,,,,,,,,,,0,59,59,57,,,,,189.62247629198828,,,,,,,,,,,,,,,,,,,,,,,,,,,,,,,,,,,,,,,,,,,,,189.59971487498842,189.62247629198828,189.62247629198828,189.62247629198828,189.62247629198828,189.61591591666027,189.62247629198828,189.62247629198828,189.88400979200378,Incorrect! The correct answer is Speaker3. نادرست! پاسخ صحیح گوینده۳ است,1,0.2524577500007581,None,0,60,189.88819116700324,189.90099324999028,191.88739170800545,191.91167199998745,,,,,,,,,,,,,,,,,,,,,,,,,,,,289911,001,2024-06-28_12h27.01.674,5-21,2024.1.4,None,2024-06-28 12h27.06.370967 +0900,
Images/Speaker1.jpg,Images/Speaker2.jpg,Images/Speaker3.jpg,Images/Speaker4.jpg,Audio/Speaker1_En/P1-15-En.wav,Speaker1,گوینده ۱,,,,,,,,,,,,,,,,0,60,60,14,,,,,191.91167199998745,,,,,,,,,,,,,,,,,,,,,,,,,,,,,,,,,,,,,,,,,,,,,191.88755591699737,191.91167199998745,191.91167199998745,191.91167199998745,191.91167199998745,191.9204430413161,191.91167199998745,191.91167199998745,192.34641158298473,Correct! صحیح است,1,0.43233504201634787,None,0,61,192.35068262499408,192.36222920799628,194.346788750001,194.37019074999262,,,,,,,,,,,,,,,,,,,,,,,,,,,,289911,001,2024-06-28_12h27.01.674,5-21,2024.1.4,None,2024-06-28 12h27.06.370967 +0900,
Images/Speaker1.jpg,Images/Speaker2.jpg,Images/Speaker3.jpg,Images/Speaker4.jpg,Audio/Speaker4_En/P4-6-En.wav,Speaker4,گوینده۴,,,,,,,,,,,,,,,,0,61,61,65,,,,,194.37019074999262,,,,,,,,,,,,,,,,,,,,,,,,,,,,,,,,,,,,,,,,,,,,,194.34696329198778,194.37019074999262,194.37019074999262,194.37019074999262,194.37019074999262,194.3798157913339,194.37019074999262,194.37019074999262,194.8188567920006,Incorrect! The correct answer is Speaker4. نادرست! پاسخ صحیح گوینده۴ است,1,0.4451478330011014,None,0,62,194.82292787497863,194.83627129197703,196.820901375002,196.84415716698277,,,,,,,,,,,,,,,,,,,,,,,,,,,,289911,001,2024-06-28_12h27.01.674,5-21,2024.1.4,None,2024-06-28 12h27.06.370967 +0900,
Images/Speaker1.jpg,Images/Speaker2.jpg,Images/Speaker3.jpg,Images/Speaker4.jpg,Audio/Speaker4_En/P4-18-En.wav,Speaker4,گوینده۴,,,,,,,,,,,,,,,,0,62,62,77,,,,,196.84415716698277,,,,,,,,,,,,,,,,,,,,,,,,,,,,,,,,,,,,,,,,,,,,,196.8210841669934,196.84415716698277,196.84415716698277,196.84415716698277,196.84415716698277,196.85401654133653,196.84415716698277,196.84415716698277,197.30550887499703,Incorrect! The correct answer is Speaker4. نادرست! پاسخ صحیح گوینده۴ است,1,0.4599935839942191,None,0,63,197.3094866249885,197.3228895420034,199.3106518329878,,,,,,,,,,,,,,,,,,,,,,,,,,,,,289911,001,2024-06-28_12h27.01.674,5-21,2024.1.4,None,2024-06-28 12h27.06.370967 +0900,
Images/Speaker1.jpg,Images/Speaker2.jpg,Images/Speaker3.jpg,Images/Speaker4.jpg,Audio/Speaker2_En/P2-2-En.wav,Speaker2,گوینده۲,,,,,,,,,,,,,,,,0,63,63,21,,,,,199.33411445800448,,,,,,,,,,,,,,,,,,,,,,,,,,,,,,,,,,,,,,,,,,,,,199.31082541699288,199.33411445800448,199.33411445800448,199.33411445800448,199.33411445800448,199.34394595831014,199.33411445800448,199.33411445800448,199.62061666700174,Incorrect! The correct answer is Speaker2. نادرست! پاسخ صحیح گوینده۲ است,1,0.27883950000978075,None,0,64,199.62448529197718,199.63488374999724,201.6280605829961,,,,,,,,,,,,,,,,,,,,,,,,,,,,,289911,001,2024-06-28_12h27.01.674,5-21,2024.1.4,None,2024-06-28 12h27.06.370967 +0900,
Images/Speaker1.jpg,Images/Speaker2.jpg,Images/Speaker3.jpg,Images/Speaker4.jpg,Audio/Speaker4_En/P4-2-En.wav,Speaker4,گوینده۴,,,,,,,,,,,,,,,,0,64,64,61,,,,,201.6521945419954,,,,,,,,,,,,,,,,,,,,,,,,,,,,,,,,,,,,,,,,,,,,,201.62824849999743,201.6521945419954,201.6521945419954,201.6521945419954,201.6521945419954,201.6613574583103,201.6521945419954,201.6521945419954,202.09131274998072,Incorrect! The correct answer is Speaker4. نادرست! پاسخ صحیح گوینده۴ است,1,0.4307162079785485,None,0,65,202.09641041699797,202.11068574999808,204.1013591249939,,,,,,,,,,,,,,,,,,,,,,,,,,,,,289911,001,2024-06-28_12h27.01.674,5-21,2024.1.4,None,2024-06-28 12h27.06.370967 +0900,
Images/Speaker1.jpg,Images/Speaker2.jpg,Images/Speaker3.jpg,Images/Speaker4.jpg,Audio/Speaker1_En/P1-11-En.wav,Speaker1,گوینده ۱,,,,,,,,,,,,,,,,0,65,65,10,,,,,204.12619124999037,,,,,,,,,,,,,,,,,,,,,,,,,,,,,,,,,,,,,,,,,,,,,204.1015702500008,204.12619124999037,204.12619124999037,204.12619124999037,204.12619124999037,204.13464554132275,204.12619124999037,204.12619124999037,204.58040395798162,Correct! صحیح است,1,0.45132462499896064,None,0,66,204.58516345798853,204.59771558298962,206.58647066698177,,,,,,,,,,,,,,,,,,,,,,,,,,,,,289911,001,2024-06-28_12h27.01.674,5-21,2024.1.4,None,2024-06-28 12h27.06.370967 +0900,
Images/Speaker1.jpg,Images/Speaker2.jpg,Images/Speaker3.jpg,Images/Speaker4.jpg,Audio/Speaker3_En/P3-6-En.wav,Speaker3,گوینده۳,,,,,,,,,,,,,,,,0,66,66,45,,,,,206.61496441697818,,,,,,,,,,,,,,,,,,,,,,,,,,,,,,,,,,,,,,,,,,,,,206.58706433299812,206.61496441697818,206.61496441697818,206.61496441697818,206.61496441697818,206.61961283331817,206.61496441697818,206.61496441697818,207.2002748749801,Incorrect! The correct answer is Speaker3. نادرست! پاسخ صحیح گوینده۳ است,1,0.5816064999962691,None,0,67,207.20445629197638,207.21709741698578,209.20329708300414,209.22623849997763,,,,,,,,,,,,,,,,,,,,,,,,,,,,289911,001,2024-06-28_12h27.01.674,5-21,2024.1.4,None,2024-06-28 12h27.06.370967 +0900,
Images/Speaker1.jpg,Images/Speaker2.jpg,Images/Speaker3.jpg,Images/Speaker4.jpg,Audio/Speaker4_En/P4-12-En.wav,Speaker4,گوینده۴,,,,,,,,,,,,,,,,0,67,67,71,,,,,209.22623849997763,,,,,,,,,,,,,,,,,,,,,,,,,,,,,,,,,,,,,,,,,,,,,209.20345354199526,209.22623849997763,209.22623849997763,209.22623849997763,209.22623849997763,209.21975791667163,209.22623849997763,209.22623849997763,209.24223591698683,Incorrect! The correct answer is Speaker4. نادرست! پاسخ صحیح گوینده۴ است,1,0.01255295900045894,None,0,68,209.2460804579896,209.25898841698654,211.25245145798544,,,,,,,,,,,,,,,,,,,,,,,,,,,,,289911,001,2024-06-28_12h27.01.674,5-21,2024.1.4,None,2024-06-28 12h27.06.370967 +0900,
Images/Speaker1.jpg,Images/Speaker2.jpg,Images/Speaker3.jpg,Images/Speaker4.jpg,Audio/Speaker3_En/P3-16-En.wav,Speaker3,گوینده۳,,,,,,,,,,,,,,,,0,68,68,55,,,,,211.27784041699488,,,,,,,,,,,,,,,,,,,,,,,,,,,,,,,,,,,,,,,,,,,,,211.2530327079876,211.27784041699488,211.27784041699488,211.27784041699488,211.27784041699488,211.28562716631183,211.27784041699488,211.27784041699488,211.60075199999847,Incorrect! The correct answer is Speaker3. نادرست! پاسخ صحیح گوینده۳ است,1,0.3136635410191957,None,0,69,211.60453216699534,211.61731249999139,213.6094339999836,,,,,,,,,,,,,,,,,,,,,,,,,,,,,289911,001,2024-06-28_12h27.01.674,5-21,2024.1.4,None,2024-06-28 12h27.06.370967 +0900,
Images/Speaker1.jpg,Images/Speaker2.jpg,Images/Speaker3.jpg,Images/Speaker4.jpg,Audio/Speaker1_En/P1-6-En.wav,Speaker1,گوینده ۱,,,,,,,,,,,,,,,,0,69,69,5,,,,,213.63482274999842,,,,,,,,,,,,,,,,,,,,,,,,,,,,,,,,,,,,,,,,,,,,,213.6101590420003,213.63482274999842,213.63482274999842,213.63482274999842,213.63482274999842,213.64261733330983,213.63482274999842,213.63482274999842,213.8714627919835,Correct! صحیح است,1,0.22642254197853617,None,0,70,213.8763502499787,213.88869545797934,215.8769233749772,,,,,,,,,,,,,,,,,,,,,,,,,,,,,289911,001,2024-06-28_12h27.01.674,5-21,2024.1.4,None,2024-06-28 12h27.06.370967 +0900,
Images/Speaker1.jpg,Images/Speaker2.jpg,Images/Speaker3.jpg,Images/Speaker4.jpg,Audio/Speaker3_En/P3-14-En.wav,Speaker3,گوینده۳,,,,,,,,,,,,,,,,0,70,70,53,,,,,215.90495270799147,,,,,,,,,,,,,,,,,,,,,,,,,,,,,,,,,,,,,,,,,,,,,215.87762083299458,215.90495270799147,215.90495270799147,215.90495270799147,215.90495270799147,215.91004879133158,215.90495270799147,215.90495270799147,216.19177487498382,Incorrect! The correct answer is Speaker3. نادرست! پاسخ صحیح گوینده۳ است,1,0.27728787501109764,None,0,71,216.19583541699103,216.20889795798576,218.2024894169881,,,,,,,,,,,,,,,,,,,,,,,,,,,,,289911,001,2024-06-28_12h27.01.674,5-21,2024.1.4,None,2024-06-28 12h27.06.370967 +0900,
Images/Speaker1.jpg,Images/Speaker2.jpg,Images/Speaker3.jpg,Images/Speaker4.jpg,Audio/Speaker1_En/P1-10-En.wav,Speaker1,گوینده ۱,,,,,,,,,,,,,,,,0,71,71,9,,,,,218.22941029199865,,,,,,,,,,,,,,,,,,,,,,,,,,,,,,,,,,,,,,,,,,,,,218.20309708299465,218.22941029199865,218.22941029199865,218.22941029199865,218.22941029199865,218.235652333337,218.22941029199865,218.22941029199865,218.59687404197757,Correct! صحیح است,1,0.3647190000046976,None,0,72,218.60083283297718,218.61184283299372,220.59587304198067,220.61942758297664,,,,,,,,,,,,,,,,,,,,,,,,,,,,289911,001,2024-06-28_12h27.01.674,5-21,2024.1.4,None,2024-06-28 12h27.06.370967 +0900,
Images/Speaker1.jpg,Images/Speaker2.jpg,Images/Speaker3.jpg,Images/Speaker4.jpg,Audio/Speaker3_En/P3-9-En.wav,Speaker3,گوینده۳,,,,,,,,,,,,,,,,0,72,72,48,,,,,220.61942758297664,,,,,,,,,,,,,,,,,,,,,,,,,,,,,,,,,,,,,,,,,,,,,220.5960470830032,220.61942758297664,220.61942758297664,220.61942758297664,220.61942758297664,220.6289976253252,220.61942758297664,220.61942758297664,221.09726120799314,Incorrect! The correct answer is Speaker3. نادرست! پاسخ صحیح گوینده۳ است,1,0.4762587079894729,None,0,73,221.10134120797738,221.11462812498212,223.10973833300523,,,,,,,,,,,,,,,,,,,,,,,,,,,,,289911,001,2024-06-28_12h27.01.674,5-21,2024.1.4,None,2024-06-28 12h27.06.370967 +0900,
Images/Speaker1.jpg,Images/Speaker2.jpg,Images/Speaker3.jpg,Images/Speaker4.jpg,Audio/Speaker2_En/P2-6-En.wav,Speaker2,گوینده۲,,,,,,,,,,,,,,,,0,73,73,25,,,,,223.1357337499794,,,,,,,,,,,,,,,,,,,,,,,,,,,,,,,,,,,,,,,,,,,,,223.11047045799205,223.1357337499794,223.1357337499794,223.1357337499794,223.1357337499794,223.1429055003178,223.1357337499794,223.1357337499794,223.4172797499923,Incorrect! The correct answer is Speaker2. نادرست! پاسخ صحیح گوینده۲ است,1,0.2724584169918671,None,0,74,223.42146520799724,223.43358695798088,225.4168598749966,225.43893695800216,,,,,,,,,,,,,,,,,,,,,,,,,,,,289911,001,2024-06-28_12h27.01.674,5-21,2024.1.4,None,2024-06-28 12h27.06.370967 +0900,
Images/Speaker1.jpg,Images/Speaker2.jpg,Images/Speaker3.jpg,Images/Speaker4.jpg,Audio/Speaker3_En/P3-20-En.wav,Speaker3,گوینده۳,,,,,,,,,,,,,,,,0,74,74,59,,,,,225.43893695800216,,,,,,,,,,,,,,,,,,,,,,,,,,,,,,,,,,,,,,,,,,,,,225.41703729200526,225.43893695800216,225.43893695800216,225.43893695800216,225.43893695800216,225.43329729166388,225.43893695800216,225.43893695800216,225.4395503749838,Incorrect! The correct answer is Speaker3. نادرست! پاسخ صحیح گوینده۳ است,1,2.2505176670092624,None,0,75,225.44362595799612,225.45369924997794,227.43973766698036,227.46311279200017,,,,,,,,,,,,,,,,,,,,,,,,,,,,289911,001,2024-06-28_12h27.01.674,5-21,2024.1.4,None,2024-06-28 12h27.06.370967 +0900,
Images/Speaker1.jpg,Images/Speaker2.jpg,Images/Speaker3.jpg,Images/Speaker4.jpg,Audio/Speaker3_En/P3-10-En.wav,Speaker3,گوینده۳,,,,,,,,,,,,,,,,0,75,75,49,,,,,227.46311279200017,,,,,,,,,,,,,,,,,,,,,,,,,,,,,,,,,,,,,,,,,,,,,227.43989341700217,227.46311279200017,227.46311279200017,227.46311279200017,227.46311279200017,227.4727885413236,227.46311279200017,227.46311279200017,227.63268162499298,Incorrect! The correct answer is Speaker3. نادرست! پاسخ صحیح گوینده۳ است,1,0.15930233299150132,None,0,76,227.63678449997678,227.6492619169876,229.63697133297683,229.66314691698062,,,,,,,,,,,,,,,,,,,,,,,,,,,,289911,001,2024-06-28_12h27.01.674,5-21,2024.1.4,None,2024-06-28 12h27.06.370967 +0900,
Images/Speaker1.jpg,Images/Speaker2.jpg,Images/Speaker3.jpg,Images/Speaker4.jpg,Audio/Speaker4_En/P4-15-En.wav,Speaker4,گوینده۴,,,,,,,,,,,,,,,,0,76,76,74,,,,,229.66314691698062,,,,,,,,,,,,,,,,,,,,,,,,,,,,,,,,,,,,,,,,,,,,,229.63788504200056,229.66314691698062,229.66314691698062,229.66314691698062,229.66314691698062,229.66940708331146,229.66314691698062,229.66314691698062,229.88380316700204,Incorrect! The correct answer is Speaker4. نادرست! پاسخ صحیح گوینده۴ است,1,0.21508949997951277,None,0,77,229.88804562500445,229.90093750000233,231.89355245800107,,,,,,,,,,,,,,,,,,,,,,,,,,,,,289911,001,2024-06-28_12h27.01.674,5-21,2024.1.4,None,2024-06-28 12h27.06.370967 +0900,
Images/Speaker1.jpg,Images/Speaker2.jpg,Images/Speaker3.jpg,Images/Speaker4.jpg,Audio/Speaker3_En/P3-2-En.wav,Speaker3,گوینده۳,,,,,,,,,,,,,,,,0,77,77,41,,,,,231.91958208297729,,,,,,,,,,,,,,,,,,,,,,,,,,,,,,,,,,,,,,,,,,,,,231.89410750000388,231.91958208297729,231.91958208297729,231.91958208297729,231.91958208297729,231.92671825033227,231.91958208297729,231.91958208297729,232.19895399999223,Incorrect! The correct answer is Speaker3. نادرست! پاسخ صحیح گوینده۳ است,1,0.2780041249934584,None,0,78,232.20372620798298,232.21860204200493,234.2014414999867,234.22424504198716,,,,,,,,,,,,,,,,,,,,,,,,,,,,289911,001,2024-06-28_12h27.01.674,5-21,2024.1.4,None,2024-06-28 12h27.06.370967 +0900,
Images/Speaker1.jpg,Images/Speaker2.jpg,Images/Speaker3.jpg,Images/Speaker4.jpg,Audio/Speaker4_En/P4-9-En.wav,Speaker4,گوینده۴,,,,,,,,,,,,,,,,0,78,78,68,,,,,234.22424504198716,,,,,,,,,,,,,,,,,,,,,,,,,,,,,,,,,,,,,,,,,,,,,234.20160949998535,234.22424504198716,234.22424504198716,234.22424504198716,234.22424504198716,234.21785687466425,234.22424504198716,234.22424504198716,234.3026574999967,Incorrect! The correct answer is Speaker4. نادرست! پاسخ صحیح گوینده۴ است,1,0.06802145901019685,None,0,79,234.3068200419948,234.31849216698902,236.31246049999027,,,,,,,,,,,,,,,,,,,,,,,,,,,,,289911,001,2024-06-28_12h27.01.674,5-21,2024.1.4,None,2024-06-28 12h27.06.370967 +0900,
Images/Speaker1.jpg,Images/Speaker2.jpg,Images/Speaker3.jpg,Images/Speaker4.jpg,Audio/Speaker1_En/P1-1-En.wav,Speaker1,گوینده ۱,,,,,,,,,,,,,,,,0,79,79,0,,,,,236.33987187498133,,,,,,,,,,,,,,,,,,,,,,,,,,,,,,,,,,,,,,,,,,,,,236.31311124999775,236.33987187498133,236.33987187498133,236.33987187498133,236.33987187498133,236.34560629132517,236.33987187498133,236.33987187498133,236.5579485000053,Correct! صحیح است,1,0.21263862500200048,None,0,80,236.5618354579783,236.5728649579978,238.56168245797744,238.5660782920022,,,,,,,,,,,,,,,,,,,,,,,,,,,,289911,001,2024-06-28_12h27.01.674,5-21,2024.1.4,None,2024-06-28 12h27.06.370967 +0900,
,,,,,,,,,,,,,,,,,,,,,,,,,,,,,,,,,,,,,,,,,,,,,,,,,,,,,,,,,,,,,,,,,,,,,,,,,,,,,,,,,,,,,,,,,,,,,,238.56172674999107,238.56189895799616,TrainingGroup1,,,,,,,,,,,,,,,,,,,,,,,,,289911,001,2024-06-28_12h27.01.674,5-21,2024.1.4,None,2024-06-28 12h27.06.370967 +0900,
,,,,,,,,,,,,,,,,,,,,,,,,,,,,,,,,,,,,,,,,,,,,,,,,,,,,,,,,,,,,,,,,,,,,,,,,,,,,,,,,,,,,,,,,,,,,,,,,,238.56191433299682,238.5660782920022,243.5921362079971,243.54969737498323,,,,,,,,,,,,,,,,,,,,,289911,001,2024-06-28_12h27.01.674,5-21,2024.1.4,None,2024-06-28 12h27.06.370967 +0900,
,,,,,,,Images/Speaker1.jpg,Images/Speaker2.jpg,Images/Speaker3.jpg,Images/Speaker4.jpg,Audio/Speaker3_Per/P3-19-Per.wav,Speaker3,گوینده۳,,,,,,,,,,,,,0,0,0,58,243.5921362079971,,,,,,,,,,,,,,,,,,,,,,,,,,,,,,,,,,,,,,,,,,,,,,,,,,,,,,,,,,,,,,,,,,,,,,,243.5680686669948,243.5921362079971,243.5921362079971,243.5921362079971,243.5921362079971,243.59946070798907,243.5921362079971,243.5921362079971,250.1158542500052,1,6.518501125014154,None,1,Images/Speaker1.jpg,Images/Speaker2.jpg,Images/Speaker3.jpg,Images/Speaker4.jpg,Audio/Speaker3_Per/P3-19-Per.wav,Speaker1,گوینده ۱,289911,001,2024-06-28_12h27.01.674,5-21,2024.1.4,None,2024-06-28 12h27.06.370967 +0900,
,,,,,,,Images/Speaker1.jpg,Images/Speaker2.jpg,Images/Speaker3.jpg,Images/Speaker4.jpg,Audio/Speaker2_Per/P2-19-Per.wav,Speaker2,گوینده۲,,,,,,,,,,,,,0,1,1,38,250.1404902919894,,,,,,,,,,,,,,,,,,,,,,,,,,,,,,,,,,,,,,,,,,,,,,,,,,,,,,,,,,,,,,,,,,,,,,,250.11636608297704,250.1404902919894,250.1404902919894,250.1404902919894,250.1404902919894,250.13166374966775,250.1404902919894,250.1404902919894,252.89912270798231,2,2.7445146660029422,None,2,Images/Speaker1.jpg,Images/Speaker2.jpg,Images/Speaker3.jpg,Images/Speaker4.jpg,Audio/Speaker2_Per/P2-19-Per.wav,Speaker1,گوینده ۱,289911,001,2024-06-28_12h27.01.674,5-21,2024.1.4,None,2024-06-28 12h27.06.370967 +0900,
,,,,,,,Images/Speaker1.jpg,Images/Speaker2.jpg,Images/Speaker3.jpg,Images/Speaker4.jpg,Audio/Speaker1_Per/P1-7-Per.wav,Speaker1,گوینده ۱,,,,,,,,,,,,,0,2,2,6,252.92684308299795,,,,,,,,,,,,,,,,,,,,,,,,,,,,,,,,,,,,,,,,,,,,,,,,,,,,,,,,,,,,,,,,,,,,,,,252.90335287500056,252.92684308299795,252.92684308299795,252.92684308299795,252.92684308299795,252.9287135003329,252.92684308299795,252.92684308299795,255.15890416697948,4,2.2306082080176566,None,4,Images/Speaker1.jpg,Images/Speaker2.jpg,Images/Speaker3.jpg,Images/Speaker4.jpg,Audio/Speaker1_Per/P1-7-Per.wav,Speaker1,گوینده ۱,289911,001,2024-06-28_12h27.01.674,5-21,2024.1.4,None,2024-06-28 12h27.06.370967 +0900,
,,,,,,,Images/Speaker1.jpg,Images/Speaker2.jpg,Images/Speaker3.jpg,Images/Speaker4.jpg,Audio/Speaker3_Per/P3-5-Per.wav,Speaker3,گوینده۳,,,,,,,,,,,,,0,3,3,44,255.18738208297873,,,,,,,,,,,,,,,,,,,,,,,,,,,,,,,,,,,,,,,,,,,,,,,,,,,,,,,,,,,,,,,,,,,,,,,255.16337483297684,255.18738208297873,255.18738208297873,255.18738208297873,255.18738208297873,255.1913919583099,255.18738208297873,255.18738208297873,257.7640948329936,3,2.565499458985869,None,3,Images/Speaker1.jpg,Images/Speaker2.jpg,Images/Speaker3.jpg,Images/Speaker4.jpg,Audio/Speaker3_Per/P3-5-Per.wav,Speaker1,گوینده ۱,289911,001,2024-06-28_12h27.01.674,5-21,2024.1.4,None,2024-06-28 12h27.06.370967 +0900,
,,,,,,,Images/Speaker1.jpg,Images/Speaker2.jpg,Images/Speaker3.jpg,Images/Speaker4.jpg,Audio/Speaker2_Per/P2-15-Per.wav,Speaker2,گوینده۲,,,,,,,,,,,,,0,4,4,34,257.79675999999745,,,,,,,,,,,,,,,,,,,,,,,,,,,,,,,,,,,,,,,,,,,,,,,,,,,,,,,,,,,,,,,,,,,,,,,257.7697989169974,257.79675999999745,257.79675999999745,257.79675999999745,257.79675999999745,257.79657966632703,257.79675999999745,257.79675999999745,260.96759241700056,2,3.1655878750025295,None,2,Images/Speaker1.jpg,Images/Speaker2.jpg,Images/Speaker3.jpg,Images/Speaker4.jpg,Audio/Speaker2_Per/P2-15-Per.wav,Speaker1,گوینده ۱,289911,001,2024-06-28_12h27.01.674,5-21,2024.1.4,None,2024-06-28 12h27.06.370967 +0900,
,,,,,,,Images/Speaker1.jpg,Images/Speaker2.jpg,Images/Speaker3.jpg,Images/Speaker4.jpg,Audio/Speaker1_Per/P1-4-Per.wav,Speaker1,گوینده ۱,,,,,,,,,,,,,0,5,5,13,260.9961981669767,,,,,,,,,,,,,,,,,,,,,,,,,,,,,,,,,,,,,,,,,,,,,,,,,,,,,,,,,,,,,,,,,,,,,,,260.971747374977,260.9961981669767,260.9961981669767,260.9961981669767,260.9961981669767,261.0000569583285,260.9961981669767,260.9961981669767,263.873509750003,1,2.8670468750060536,None,1,Images/Speaker1.jpg,Images/Speaker2.jpg,Images/Speaker3.jpg,Images/Speaker4.jpg,Audio/Speaker1_Per/P1-4-Per.wav,Speaker1,گوینده ۱,289911,001,2024-06-28_12h27.01.674,5-21,2024.1.4,None,2024-06-28 12h27.06.370967 +0900,
,,,,,,,Images/Speaker1.jpg,Images/Speaker2.jpg,Images/Speaker3.jpg,Images/Speaker4.jpg,Audio/Speaker2_Per/P2-16-Per.wav,Speaker2,گوینده۲,,,,,,,,,,,,,0,6,6,35,263.89864779199706,,,,,,,,,,,,,,,,,,,,,,,,,,,,,,,,,,,,,,,,,,,,,,,,,,,,,,,,,,,,,,,,,,,,,,,263.8774871249916,263.89864779199706,263.89864779199706,263.89864779199706,263.89864779199706,263.9058101663327,263.89864779199706,263.89864779199706,266.155070082983,1,2.254144416016061,None,1,Images/Speaker1.jpg,Images/Speaker2.jpg,Images/Speaker3.jpg,Images/Speaker4.jpg,Audio/Speaker2_Per/P2-16-Per.wav,Speaker1,گوینده ۱,289911,001,2024-06-28_12h27.01.674,5-21,2024.1.4,None,2024-06-28 12h27.06.370967 +0900,
,,,,,,,Images/Speaker1.jpg,Images/Speaker2.jpg,Images/Speaker3.jpg,Images/Speaker4.jpg,Audio/Speaker1_Per/P1-8-Per.wav,Speaker1,گوینده ۱,,,,,,,,,,,,,0,7,7,7,266.18313287498313,,,,,,,,,,,,,,,,,,,,,,,,,,,,,,,,,,,,,,,,,,,,,,,,,,,,,,,,,,,,,,,,,,,,,,,266.159053957992,266.18313287498313,266.18313287498313,266.18313287498313,266.18313287498313,266.1874955003227,266.18313287498313,266.18313287498313,269.13814045800245,2,2.9534382090205327,None,2,Images/Speaker1.jpg,Images/Speaker2.jpg,Images/Speaker3.jpg,Images/Speaker4.jpg,Audio/Speaker1_Per/P1-8-Per.wav,Speaker1,گوینده ۱,289911,001,2024-06-28_12h27.01.674,5-21,2024.1.4,None,2024-06-28 12h27.06.370967 +0900,
,,,,,,,Images/Speaker1.jpg,Images/Speaker2.jpg,Images/Speaker3.jpg,Images/Speaker4.jpg,Audio/Speaker4_Per/P4-5-Per.wav,Speaker4,گوینده۴,,,,,,,,,,,,,0,8,8,64,269.16633283300325,,,,,,,,,,,,,,,,,,,,,,,,,,,,,,,,,,,,,,,,,,,,,,,,,,,,,,,,,,,,,,,,,,,,,,,269.14249766699504,269.16633283300325,269.16633283300325,269.16633283300325,269.16633283300325,269.1705655833143,269.16633283300325,269.16633283300325,272.5657580419793,3,3.3980292909836862,None,3,Images/Speaker1.jpg,Images/Speaker2.jpg,Images/Speaker3.jpg,Images/Speaker4.jpg,Audio/Speaker4_Per/P4-5-Per.wav,Speaker1,گوینده ۱,289911,001,2024-06-28_12h27.01.674,5-21,2024.1.4,None,2024-06-28 12h27.06.370967 +0900,
,,,,,,,Images/Speaker1.jpg,Images/Speaker2.jpg,Images/Speaker3.jpg,Images/Speaker4.jpg,Audio/Speaker2_Per/P2-1-Per.wav,Speaker2,گوینده۲,,,,,,,,,,,,,0,9,9,20,272.59085620800033,,,,,,,,,,,,,,,,,,,,,,,,,,,,,,,,,,,,,,,,,,,,,,,,,,,,,,,,,,,,,,,,,,,,,,,272.56615395800327,272.59085620800033,272.59085620800033,272.59085620800033,272.59085620800033,272.59796920832787,272.59085620800033,272.59085620800033,273.29229579199455,3,0.6960344169929158,None,3,Images/Speaker1.jpg,Images/Speaker2.jpg,Images/Speaker3.jpg,Images/Speaker4.jpg,Audio/Speaker2_Per/P2-1-Per.wav,Speaker1,گوینده ۱,289911,001,2024-06-28_12h27.01.674,5-21,2024.1.4,None,2024-06-28 12h27.06.370967 +0900,
,,,,,,,,,,,,,,,,,,,,,,,,,,,,,,273.32013266699505,,,,,,,,,,,,,,,,,,,,,,,,,,,,,,,,,,,,,,,,,,,,,,,,,,,,,,,,,,,,,,,,,,,,,,,273.2962643329811,273.32013266699505,273.32013266699505,273.32013266699505,273.32013266699505,273.3247751663225,273.32013266699505,273.32013266699505,,,,,,,,,,,,,,,,,,,,
