SpeakerImage1,SpeakerImage2,SpeakerImage3,SpeakerImage4,TrainingSound,EnglishCorrectAnswer,PersianCorrectAnswer,repeated_TrainingLoopGroup1.thisRepN,repeated_TrainingLoopGroup1.thisTrialN,repeated_TrainingLoopGroup1.thisN,repeated_TrainingLoopGroup1.thisIndex,TrainingLoopGroup1.thisRepN,TrainingLoopGroup1.thisTrialN,TrainingLoopGroup1.thisN,TrainingLoopGroup1.thisIndex,thisRow.t,notes,trial.started,trial.stopped,GroupSelection.started,GroupInstructions.started,key_resp.started,GroupSelection.stopped,key_resp.keys,key_resp.rt,key_resp.duration,Introduction.started,text_2.started,image.started,sound_7.started,text_4.started,text_2.stopped,sound_8.started,image.stopped,text_4.stopped,image_7.started,sound_9.started,text_5.started,sound_10.started,image_7.stopped,text_5.stopped,image_8.started,sound_11.started,text_6.started,sound_12.started,image_8.stopped,text_6.stopped,image_9.started,sound_13.started,text_7.started,sound_14.started,image_9.stopped,text_7.stopped,Introduction.stopped,InitializeExperiment.started,InitializeExperiment.stopped,CheckAccuracy1.started,accuracy_group1,proceed_to_test_group1,CheckAccuracy1.stopped,participant,session,date,expName,psychopyVersion,frameRate,expStart,
,,,,,,,,,,,,,,,,,0.010075707999931183,0.010386375000962289,,,,,,,,,,,,,,,,,,,,,,,,,,,,,,,,,,,,,,,,,,293960,001,2024-07-02_08h56.26.691,5-29,2024.1.4,None,2024-07-02 08h56.31.879488 +0900,
,,,,,,,,,,,,,,,,,,,0.010402457999589387,0.014750667000043904,0.014750667000043904,1.2844397500011837,2,1.2269415839982685,None,,,,,,,,,,,,,,,,,,,,,,,,,,,,,,,,,,,293960,001,2024-07-02_08h56.26.691,5-29,2024.1.4,None,2024-07-02 08h56.31.879488 +0900,
,,,,,,,,,,,,,,,,,,,,,,,,,,1.284462874999008,1.3387849579994509,6.2796455419993435,6.289530416667064,6.2796455419993435,6.330925166999805,11.293841458668128,16.280592375002016,16.280592375002016,16.280592375002016,16.292293416667476,16.280592375002016,21.292899124666533,26.275999042001786,26.275999042001786,26.275999042001786,26.285404583668665,26.275999042001786,31.286326333666025,36.2610301249988,36.2610301249988,36.2840584580008,36.29352437466538,36.2840584580008,41.28626216666841,76.92256729200017,76.92256729200017,46.2686717079996,,,,,,,293960,001,2024-07-02_08h56.26.691,5-29,2024.1.4,None,2024-07-02 08h56.31.879488 +0900,
,,,,,,,,,,,,,,,,,,,,,,,,,,,,,,,,,,,,,,,,,,,,,,,,,,,,,,46.26870812500056,46.268856292001146,,,,,293960,001,2024-07-02_08h56.26.691,5-29,2024.1.4,None,2024-07-02 08h56.31.879488 +0900,
Images/Speaker1.jpg,Images/Speaker2.jpg,Images/Speaker3.jpg,Images/Speaker4.jpg,Audio/Speaker4_Per/P4-3-Per.wav,Speaker4,گوینده۴,0,0,0,62,,,,,76.92256729200017,,,,,,,,,,,,,,,,,,,,,,,,,,,,,,,,,,,,,,,,,46.320277999999234,0.0,False,46.32059300000037,293960,001,2024-07-02_08h56.26.691,5-29,2024.1.4,None,2024-07-02 08h56.31.879488 +0900,
Images/Speaker1.jpg,Images/Speaker2.jpg,Images/Speaker3.jpg,Images/Speaker4.jpg,Audio/Speaker3_Per/P3-3-Per.wav,Speaker3,گوینده۳,0,1,1,42,,,,,76.92256729200017,,,,,,,,,,,,,,,,,,,,,,,,,,,,,,,,,,,,,,,,,46.33899224999914,0.0,False,46.3392144999998,293960,001,2024-07-02_08h56.26.691,5-29,2024.1.4,None,2024-07-02 08h56.31.879488 +0900,
Images/Speaker1.jpg,Images/Speaker2.jpg,Images/Speaker3.jpg,Images/Speaker4.jpg,Audio/Speaker2_Per/P2-2-Per.wav,Speaker2,گوینده۲,0,2,2,21,,,,,76.92256729200017,,,,,,,,,,,,,,,,,,,,,,,,,,,,,,,,,,,,,,,,,46.35701195799993,0.0,False,46.3572470830004,293960,001,2024-07-02_08h56.26.691,5-29,2024.1.4,None,2024-07-02 08h56.31.879488 +0900,
Images/Speaker1.jpg,Images/Speaker2.jpg,Images/Speaker3.jpg,Images/Speaker4.jpg,Audio/Speaker3_Per/P3-9-Per.wav,Speaker3,گوینده۳,0,3,3,48,,,,,76.92256729200017,,,,,,,,,,,,,,,,,,,,,,,,,,,,,,,,,,,,,,,,,46.3743333329985,0.0,False,46.374557292001555,293960,001,2024-07-02_08h56.26.691,5-29,2024.1.4,None,2024-07-02 08h56.31.879488 +0900,
Images/Speaker1.jpg,Images/Speaker2.jpg,Images/Speaker3.jpg,Images/Speaker4.jpg,Audio/Speaker3_Per/P3-5-Per.wav,Speaker3,گوینده۳,0,4,4,44,,,,,76.92256729200017,,,,,,,,,,,,,,,,,,,,,,,,,,,,,,,,,,,,,,,,,46.39068704199963,0.0,False,46.390845875001105,293960,001,2024-07-02_08h56.26.691,5-29,2024.1.4,None,2024-07-02 08h56.31.879488 +0900,
Images/Speaker1.jpg,Images/Speaker2.jpg,Images/Speaker3.jpg,Images/Speaker4.jpg,Audio/Speaker3_Per/P3-20-Per.wav,Speaker3,گوینده۳,0,5,5,59,,,,,76.92256729200017,,,,,,,,,,,,,,,,,,,,,,,,,,,,,,,,,,,,,,,,,46.40682050000032,0.0,False,46.40701091699884,293960,001,2024-07-02_08h56.26.691,5-29,2024.1.4,None,2024-07-02 08h56.31.879488 +0900,
Images/Speaker1.jpg,Images/Speaker2.jpg,Images/Speaker3.jpg,Images/Speaker4.jpg,Audio/Speaker1_Per/P1-12-Per.wav,Speaker1,گوینده ۱,0,6,6,11,,,,,76.92256729200017,,,,,,,,,,,,,,,,,,,,,,,,,,,,,,,,,,,,,,,,,46.423070291999466,0.0,False,46.423247582999466,293960,001,2024-07-02_08h56.26.691,5-29,2024.1.4,None,2024-07-02 08h56.31.879488 +0900,
Images/Speaker1.jpg,Images/Speaker2.jpg,Images/Speaker3.jpg,Images/Speaker4.jpg,Audio/Speaker1_Per/P1-18-Per.wav,Speaker1,گوینده ۱,0,7,7,17,,,,,76.92256729200017,,,,,,,,,,,,,,,,,,,,,,,,,,,,,,,,,,,,,,,,,46.43973358299991,0.0,False,46.439899583001534,293960,001,2024-07-02_08h56.26.691,5-29,2024.1.4,None,2024-07-02 08h56.31.879488 +0900,
Images/Speaker1.jpg,Images/Speaker2.jpg,Images/Speaker3.jpg,Images/Speaker4.jpg,Audio/Speaker4_Per/P4-13-Per.wav,Speaker4,گوینده۴,0,8,8,72,,,,,76.92256729200017,,,,,,,,,,,,,,,,,,,,,,,,,,,,,,,,,,,,,,,,,46.45589191700128,0.0,False,46.45611899999858,293960,001,2024-07-02_08h56.26.691,5-29,2024.1.4,None,2024-07-02 08h56.31.879488 +0900,
Images/Speaker1.jpg,Images/Speaker2.jpg,Images/Speaker3.jpg,Images/Speaker4.jpg,Audio/Speaker1_Per/P1-1-Per.wav,Speaker1,گوینده ۱,0,9,9,0,,,,,76.92256729200017,,,,,,,,,,,,,,,,,,,,,,,,,,,,,,,,,,,,,,,,,46.47206862500025,0.0,False,46.47224512500179,293960,001,2024-07-02_08h56.26.691,5-29,2024.1.4,None,2024-07-02 08h56.31.879488 +0900,
Images/Speaker1.jpg,Images/Speaker2.jpg,Images/Speaker3.jpg,Images/Speaker4.jpg,Audio/Speaker2_Per/P2-19-Per.wav,Speaker2,گوینده۲,0,10,10,38,,,,,76.92256729200017,,,,,,,,,,,,,,,,,,,,,,,,,,,,,,,,,,,,,,,,,46.48818920800113,0.0,False,46.488350292001996,293960,001,2024-07-02_08h56.26.691,5-29,2024.1.4,None,2024-07-02 08h56.31.879488 +0900,
Images/Speaker1.jpg,Images/Speaker2.jpg,Images/Speaker3.jpg,Images/Speaker4.jpg,Audio/Speaker4_Per/P4-2-Per.wav,Speaker4,گوینده۴,0,11,11,61,,,,,76.92256729200017,,,,,,,,,,,,,,,,,,,,,,,,,,,,,,,,,,,,,,,,,46.50488020800185,0.0,False,46.50506395800039,293960,001,2024-07-02_08h56.26.691,5-29,2024.1.4,None,2024-07-02 08h56.31.879488 +0900,
Images/Speaker1.jpg,Images/Speaker2.jpg,Images/Speaker3.jpg,Images/Speaker4.jpg,Audio/Speaker2_Per/P2-7-Per.wav,Speaker2,گوینده۲,0,12,12,26,,,,,76.92256729200017,,,,,,,,,,,,,,,,,,,,,,,,,,,,,,,,,,,,,,,,,46.52100312499897,0.0,False,46.5211491250011,293960,001,2024-07-02_08h56.26.691,5-29,2024.1.4,None,2024-07-02 08h56.31.879488 +0900,
Images/Speaker1.jpg,Images/Speaker2.jpg,Images/Speaker3.jpg,Images/Speaker4.jpg,Audio/Speaker1_Per/P1-7-Per.wav,Speaker1,گوینده ۱,0,13,13,6,,,,,76.92256729200017,,,,,,,,,,,,,,,,,,,,,,,,,,,,,,,,,,,,,,,,,46.53705637500025,0.0,False,46.537242958002025,293960,001,2024-07-02_08h56.26.691,5-29,2024.1.4,None,2024-07-02 08h56.31.879488 +0900,
Images/Speaker1.jpg,Images/Speaker2.jpg,Images/Speaker3.jpg,Images/Speaker4.jpg,Audio/Speaker3_Per/P3-16-Per.wav,Speaker3,گوینده۳,0,14,14,55,,,,,76.92256729200017,,,,,,,,,,,,,,,,,,,,,,,,,,,,,,,,,,,,,,,,,46.55314341700068,0.0,False,46.55331020800077,293960,001,2024-07-02_08h56.26.691,5-29,2024.1.4,None,2024-07-02 08h56.31.879488 +0900,
Images/Speaker1.jpg,Images/Speaker2.jpg,Images/Speaker3.jpg,Images/Speaker4.jpg,Audio/Speaker2_Per/P2-11-Per.wav,Speaker2,گوینده۲,0,15,15,30,,,,,76.92256729200017,,,,,,,,,,,,,,,,,,,,,,,,,,,,,,,,,,,,,,,,,46.56983791699895,0.0,False,46.57004524999866,293960,001,2024-07-02_08h56.26.691,5-29,2024.1.4,None,2024-07-02 08h56.31.879488 +0900,
Images/Speaker1.jpg,Images/Speaker2.jpg,Images/Speaker3.jpg,Images/Speaker4.jpg,Audio/Speaker1_Per/P1-5-Per.wav,Speaker1,گوینده ۱,0,16,16,4,,,,,76.92256729200017,,,,,,,,,,,,,,,,,,,,,,,,,,,,,,,,,,,,,,,,,46.58594516700032,0.0,False,46.586174083000515,293960,001,2024-07-02_08h56.26.691,5-29,2024.1.4,None,2024-07-02 08h56.31.879488 +0900,
Images/Speaker1.jpg,Images/Speaker2.jpg,Images/Speaker3.jpg,Images/Speaker4.jpg,Audio/Speaker2_Per/P2-13-Per.wav,Speaker2,گوینده۲,0,17,17,32,,,,,76.92256729200017,,,,,,,,,,,,,,,,,,,,,,,,,,,,,,,,,,,,,,,,,46.60232087500117,0.0,False,46.60249141700115,293960,001,2024-07-02_08h56.26.691,5-29,2024.1.4,None,2024-07-02 08h56.31.879488 +0900,
Images/Speaker1.jpg,Images/Speaker2.jpg,Images/Speaker3.jpg,Images/Speaker4.jpg,Audio/Speaker2_Per/P2-14-Per.wav,Speaker2,گوینده۲,0,18,18,33,,,,,76.92256729200017,,,,,,,,,,,,,,,,,,,,,,,,,,,,,,,,,,,,,,,,,46.618429166999704,0.0,False,46.61859991700112,293960,001,2024-07-02_08h56.26.691,5-29,2024.1.4,None,2024-07-02 08h56.31.879488 +0900,
Images/Speaker1.jpg,Images/Speaker2.jpg,Images/Speaker3.jpg,Images/Speaker4.jpg,Audio/Speaker2_Per/P2-5-Per.wav,Speaker2,گوینده۲,0,19,19,24,,,,,76.92256729200017,,,,,,,,,,,,,,,,,,,,,,,,,,,,,,,,,,,,,,,,,46.63499708300151,0.0,False,46.6351669579999,293960,001,2024-07-02_08h56.26.691,5-29,2024.1.4,None,2024-07-02 08h56.31.879488 +0900,
Images/Speaker1.jpg,Images/Speaker2.jpg,Images/Speaker3.jpg,Images/Speaker4.jpg,Audio/Speaker4_Per/P4-8-Per.wav,Speaker4,گوینده۴,0,20,20,67,,,,,76.92256729200017,,,,,,,,,,,,,,,,,,,,,,,,,,,,,,,,,,,,,,,,,46.6510899169989,0.0,False,46.651276208001946,293960,001,2024-07-02_08h56.26.691,5-29,2024.1.4,None,2024-07-02 08h56.31.879488 +0900,
Images/Speaker1.jpg,Images/Speaker2.jpg,Images/Speaker3.jpg,Images/Speaker4.jpg,Audio/Speaker3_Per/P3-4-Per.wav,Speaker3,گوینده۳,0,21,21,43,,,,,76.92256729200017,,,,,,,,,,,,,,,,,,,,,,,,,,,,,,,,,,,,,,,,,46.66714916699857,0.0,False,46.66731350000191,293960,001,2024-07-02_08h56.26.691,5-29,2024.1.4,None,2024-07-02 08h56.31.879488 +0900,
Images/Speaker1.jpg,Images/Speaker2.jpg,Images/Speaker3.jpg,Images/Speaker4.jpg,Audio/Speaker2_Per/P2-10-Per.wav,Speaker2,گوینده۲,0,22,22,29,,,,,76.92256729200017,,,,,,,,,,,,,,,,,,,,,,,,,,,,,,,,,,,,,,,,,46.68322400000034,0.0,False,46.6833840420004,293960,001,2024-07-02_08h56.26.691,5-29,2024.1.4,None,2024-07-02 08h56.31.879488 +0900,
Images/Speaker1.jpg,Images/Speaker2.jpg,Images/Speaker3.jpg,Images/Speaker4.jpg,Audio/Speaker1_Per/P1-16-Per.wav,Speaker1,گوینده ۱,0,23,23,15,,,,,76.92256729200017,,,,,,,,,,,,,,,,,,,,,,,,,,,,,,,,,,,,,,,,,46.69984483300141,0.0,False,46.70002837499851,293960,001,2024-07-02_08h56.26.691,5-29,2024.1.4,None,2024-07-02 08h56.31.879488 +0900,
Images/Speaker1.jpg,Images/Speaker2.jpg,Images/Speaker3.jpg,Images/Speaker4.jpg,Audio/Speaker3_Per/P3-12-Per.wav,Speaker3,گوینده۳,0,24,24,51,,,,,76.92256729200017,,,,,,,,,,,,,,,,,,,,,,,,,,,,,,,,,,,,,,,,,46.71588508300192,0.0,False,46.71606608300135,293960,001,2024-07-02_08h56.26.691,5-29,2024.1.4,None,2024-07-02 08h56.31.879488 +0900,
Images/Speaker1.jpg,Images/Speaker2.jpg,Images/Speaker3.jpg,Images/Speaker4.jpg,Audio/Speaker4_Per/P4-11-Per.wav,Speaker4,گوینده۴,0,25,25,70,,,,,76.92256729200017,,,,,,,,,,,,,,,,,,,,,,,,,,,,,,,,,,,,,,,,,46.731960624998464,0.0,False,46.73213525000028,293960,001,2024-07-02_08h56.26.691,5-29,2024.1.4,None,2024-07-02 08h56.31.879488 +0900,
Images/Speaker1.jpg,Images/Speaker2.jpg,Images/Speaker3.jpg,Images/Speaker4.jpg,Audio/Speaker1_Per/P1-10-Per.wav,Speaker1,گوینده ۱,0,26,26,9,,,,,76.92256729200017,,,,,,,,,,,,,,,,,,,,,,,,,,,,,,,,,,,,,,,,,46.7479602079984,0.0,False,46.7481827920019,293960,001,2024-07-02_08h56.26.691,5-29,2024.1.4,None,2024-07-02 08h56.31.879488 +0900,
Images/Speaker1.jpg,Images/Speaker2.jpg,Images/Speaker3.jpg,Images/Speaker4.jpg,Audio/Speaker3_Per/P3-14-Per.wav,Speaker3,گوینده۳,0,27,27,53,,,,,76.92256729200017,,,,,,,,,,,,,,,,,,,,,,,,,,,,,,,,,,,,,,,,,46.764696833000926,0.0,False,46.76484137499938,293960,001,2024-07-02_08h56.26.691,5-29,2024.1.4,None,2024-07-02 08h56.31.879488 +0900,
Images/Speaker1.jpg,Images/Speaker2.jpg,Images/Speaker3.jpg,Images/Speaker4.jpg,Audio/Speaker4_Per/P4-4-Per.wav,Speaker4,گوینده۴,0,28,28,63,,,,,76.92256729200017,,,,,,,,,,,,,,,,,,,,,,,,,,,,,,,,,,,,,,,,,46.78040954199969,0.0,False,46.780589417001465,293960,001,2024-07-02_08h56.26.691,5-29,2024.1.4,None,2024-07-02 08h56.31.879488 +0900,
Images/Speaker1.jpg,Images/Speaker2.jpg,Images/Speaker3.jpg,Images/Speaker4.jpg,Audio/Speaker2_Per/P2-9-Per.wav,Speaker2,گوینده۲,0,29,29,28,,,,,76.92256729200017,,,,,,,,,,,,,,,,,,,,,,,,,,,,,,,,,,,,,,,,,46.79651599999852,0.0,False,46.79666645800171,293960,001,2024-07-02_08h56.26.691,5-29,2024.1.4,None,2024-07-02 08h56.31.879488 +0900,
Images/Speaker1.jpg,Images/Speaker2.jpg,Images/Speaker3.jpg,Images/Speaker4.jpg,Audio/Speaker1_Per/P1-2-Per.wav,Speaker1,گوینده ۱,0,30,30,1,,,,,76.92256729200017,,,,,,,,,,,,,,,,,,,,,,,,,,,,,,,,,,,,,,,,,46.81240633299967,0.0,False,46.81255370800136,293960,001,2024-07-02_08h56.26.691,5-29,2024.1.4,None,2024-07-02 08h56.31.879488 +0900,
Images/Speaker1.jpg,Images/Speaker2.jpg,Images/Speaker3.jpg,Images/Speaker4.jpg,Audio/Speaker2_Per/P2-6-Per.wav,Speaker2,گوینده۲,0,31,31,25,,,,,76.92256729200017,,,,,,,,,,,,,,,,,,,,,,,,,,,,,,,,,,,,,,,,,46.82899841700055,0.0,False,46.829141624999465,293960,001,2024-07-02_08h56.26.691,5-29,2024.1.4,None,2024-07-02 08h56.31.879488 +0900,
Images/Speaker1.jpg,Images/Speaker2.jpg,Images/Speaker3.jpg,Images/Speaker4.jpg,Audio/Speaker2_Per/P2-15-Per.wav,Speaker2,گوینده۲,0,32,32,34,,,,,76.92256729200017,,,,,,,,,,,,,,,,,,,,,,,,,,,,,,,,,,,,,,,,,46.844893958001194,0.0,False,46.845051874999626,293960,001,2024-07-02_08h56.26.691,5-29,2024.1.4,None,2024-07-02 08h56.31.879488 +0900,
Images/Speaker1.jpg,Images/Speaker2.jpg,Images/Speaker3.jpg,Images/Speaker4.jpg,Audio/Speaker3_Per/P3-13-Per.wav,Speaker3,گوینده۳,0,33,33,52,,,,,76.92256729200017,,,,,,,,,,,,,,,,,,,,,,,,,,,,,,,,,,,,,,,,,46.86102462499912,0.0,False,46.86120783300066,293960,001,2024-07-02_08h56.26.691,5-29,2024.1.4,None,2024-07-02 08h56.31.879488 +0900,
Images/Speaker1.jpg,Images/Speaker2.jpg,Images/Speaker3.jpg,Images/Speaker4.jpg,Audio/Speaker4_Per/P4-7-Per.wav,Speaker4,گوینده۴,0,34,34,66,,,,,76.92256729200017,,,,,,,,,,,,,,,,,,,,,,,,,,,,,,,,,,,,,,,,,46.87712016699879,0.0,False,46.87730350000129,293960,001,2024-07-02_08h56.26.691,5-29,2024.1.4,None,2024-07-02 08h56.31.879488 +0900,
Images/Speaker1.jpg,Images/Speaker2.jpg,Images/Speaker3.jpg,Images/Speaker4.jpg,Audio/Speaker1_Per/P1-11-Per.wav,Speaker1,گوینده ۱,0,35,35,10,,,,,76.92256729200017,,,,,,,,,,,,,,,,,,,,,,,,,,,,,,,,,,,,,,,,,46.893713583001954,0.0,False,46.893878167000366,293960,001,2024-07-02_08h56.26.691,5-29,2024.1.4,None,2024-07-02 08h56.31.879488 +0900,
Images/Speaker1.jpg,Images/Speaker2.jpg,Images/Speaker3.jpg,Images/Speaker4.jpg,Audio/Speaker3_Per/P3-10-Per.wav,Speaker3,گوینده۳,0,36,36,49,,,,,76.92256729200017,,,,,,,,,,,,,,,,,,,,,,,,,,,,,,,,,,,,,,,,,46.909756500001095,0.0,False,46.909920082998724,293960,001,2024-07-02_08h56.26.691,5-29,2024.1.4,None,2024-07-02 08h56.31.879488 +0900,
Images/Speaker1.jpg,Images/Speaker2.jpg,Images/Speaker3.jpg,Images/Speaker4.jpg,Audio/Speaker4_Per/P4-9-Per.wav,Speaker4,گوینده۴,0,37,37,68,,,,,76.92256729200017,,,,,,,,,,,,,,,,,,,,,,,,,,,,,,,,,,,,,,,,,46.925762541999575,0.0,False,46.925936667001224,293960,001,2024-07-02_08h56.26.691,5-29,2024.1.4,None,2024-07-02 08h56.31.879488 +0900,
Images/Speaker1.jpg,Images/Speaker2.jpg,Images/Speaker3.jpg,Images/Speaker4.jpg,Audio/Speaker4_Per/P4-16-Per.wav,Speaker4,گوینده۴,0,38,38,75,,,,,76.92256729200017,,,,,,,,,,,,,,,,,,,,,,,,,,,,,,,,,,,,,,,,,46.94185633300003,0.0,False,46.94201712499853,293960,001,2024-07-02_08h56.26.691,5-29,2024.1.4,None,2024-07-02 08h56.31.879488 +0900,
Images/Speaker1.jpg,Images/Speaker2.jpg,Images/Speaker3.jpg,Images/Speaker4.jpg,Audio/Speaker4_Per/P4-15-Per.wav,Speaker4,گوینده۴,0,39,39,74,,,,,76.92256729200017,,,,,,,,,,,,,,,,,,,,,,,,,,,,,,,,,,,,,,,,,46.95862074999968,0.0,False,46.95883466699888,293960,001,2024-07-02_08h56.26.691,5-29,2024.1.4,None,2024-07-02 08h56.31.879488 +0900,
Images/Speaker1.jpg,Images/Speaker2.jpg,Images/Speaker3.jpg,Images/Speaker4.jpg,Audio/Speaker2_Per/P2-1-Per.wav,Speaker2,گوینده۲,0,40,40,20,,,,,76.92256729200017,,,,,,,,,,,,,,,,,,,,,,,,,,,,,,,,,,,,,,,,,46.97468916700018,0.0,False,46.97489987500012,293960,001,2024-07-02_08h56.26.691,5-29,2024.1.4,None,2024-07-02 08h56.31.879488 +0900,
Images/Speaker1.jpg,Images/Speaker2.jpg,Images/Speaker3.jpg,Images/Speaker4.jpg,Audio/Speaker4_Per/P4-20-Per.wav,Speaker4,گوینده۴,0,41,41,79,,,,,76.92256729200017,,,,,,,,,,,,,,,,,,,,,,,,,,,,,,,,,,,,,,,,,46.99076695799886,0.0,False,46.990947333000804,293960,001,2024-07-02_08h56.26.691,5-29,2024.1.4,None,2024-07-02 08h56.31.879488 +0900,
Images/Speaker1.jpg,Images/Speaker2.jpg,Images/Speaker3.jpg,Images/Speaker4.jpg,Audio/Speaker1_Per/P1-4-Per.wav,Speaker1,گوینده ۱,0,42,42,3,,,,,76.92256729200017,,,,,,,,,,,,,,,,,,,,,,,,,,,,,,,,,,,,,,,,,47.00688345800154,0.0,False,47.007052583001496,293960,001,2024-07-02_08h56.26.691,5-29,2024.1.4,None,2024-07-02 08h56.31.879488 +0900,
Images/Speaker1.jpg,Images/Speaker2.jpg,Images/Speaker3.jpg,Images/Speaker4.jpg,Audio/Speaker4_Per/P4-17-Per.wav,Speaker4,گوینده۴,0,43,43,76,,,,,76.92256729200017,,,,,,,,,,,,,,,,,,,,,,,,,,,,,,,,,,,,,,,,,47.02351591700062,0.0,False,47.02367404200049,293960,001,2024-07-02_08h56.26.691,5-29,2024.1.4,None,2024-07-02 08h56.31.879488 +0900,
Images/Speaker1.jpg,Images/Speaker2.jpg,Images/Speaker3.jpg,Images/Speaker4.jpg,Audio/Speaker1_Per/P1-3-Per.wav,Speaker1,گوینده ۱,0,44,44,2,,,,,76.92256729200017,,,,,,,,,,,,,,,,,,,,,,,,,,,,,,,,,,,,,,,,,47.03967654200096,0.0,False,47.03984895800022,293960,001,2024-07-02_08h56.26.691,5-29,2024.1.4,None,2024-07-02 08h56.31.879488 +0900,
Images/Speaker1.jpg,Images/Speaker2.jpg,Images/Speaker3.jpg,Images/Speaker4.jpg,Audio/Speaker4_Per/P4-5-Per.wav,Speaker4,گوینده۴,0,45,45,64,,,,,76.92256729200017,,,,,,,,,,,,,,,,,,,,,,,,,,,,,,,,,,,,,,,,,47.05550587499965,0.0,False,47.05568299999868,293960,001,2024-07-02_08h56.26.691,5-29,2024.1.4,None,2024-07-02 08h56.31.879488 +0900,
Images/Speaker1.jpg,Images/Speaker2.jpg,Images/Speaker3.jpg,Images/Speaker4.jpg,Audio/Speaker3_Per/P3-11-Per.wav,Speaker3,گوینده۳,0,46,46,50,,,,,76.92256729200017,,,,,,,,,,,,,,,,,,,,,,,,,,,,,,,,,,,,,,,,,47.07159466699886,0.0,False,47.071792750000895,293960,001,2024-07-02_08h56.26.691,5-29,2024.1.4,None,2024-07-02 08h56.31.879488 +0900,
Images/Speaker1.jpg,Images/Speaker2.jpg,Images/Speaker3.jpg,Images/Speaker4.jpg,Audio/Speaker4_Per/P4-12-Per.wav,Speaker4,گوینده۴,0,47,47,71,,,,,76.92256729200017,,,,,,,,,,,,,,,,,,,,,,,,,,,,,,,,,,,,,,,,,47.088348291999864,0.0,False,47.08850787499978,293960,001,2024-07-02_08h56.26.691,5-29,2024.1.4,None,2024-07-02 08h56.31.879488 +0900,
Images/Speaker1.jpg,Images/Speaker2.jpg,Images/Speaker3.jpg,Images/Speaker4.jpg,Audio/Speaker2_Per/P2-17-Per.wav,Speaker2,گوینده۲,0,48,48,36,,,,,76.92256729200017,,,,,,,,,,,,,,,,,,,,,,,,,,,,,,,,,,,,,,,,,47.10436558299989,0.0,False,47.10456037499898,293960,001,2024-07-02_08h56.26.691,5-29,2024.1.4,None,2024-07-02 08h56.31.879488 +0900,
Images/Speaker1.jpg,Images/Speaker2.jpg,Images/Speaker3.jpg,Images/Speaker4.jpg,Audio/Speaker1_Per/P1-20-Per.wav,Speaker1,گوینده ۱,0,49,49,19,,,,,76.92256729200017,,,,,,,,,,,,,,,,,,,,,,,,,,,,,,,,,,,,,,,,,47.120288417001575,0.0,False,47.120492417001515,293960,001,2024-07-02_08h56.26.691,5-29,2024.1.4,None,2024-07-02 08h56.31.879488 +0900,
Images/Speaker1.jpg,Images/Speaker2.jpg,Images/Speaker3.jpg,Images/Speaker4.jpg,Audio/Speaker1_Per/P1-4-Per.wav,Speaker1,گوینده ۱,0,50,50,13,,,,,76.92256729200017,,,,,,,,,,,,,,,,,,,,,,,,,,,,,,,,,,,,,,,,,47.13630720799847,0.0,False,47.13652741699843,293960,001,2024-07-02_08h56.26.691,5-29,2024.1.4,None,2024-07-02 08h56.31.879488 +0900,
Images/Speaker1.jpg,Images/Speaker2.jpg,Images/Speaker3.jpg,Images/Speaker4.jpg,Audio/Speaker3_Per/P3-6-Per.wav,Speaker3,گوینده۳,0,51,51,45,,,,,76.92256729200017,,,,,,,,,,,,,,,,,,,,,,,,,,,,,,,,,,,,,,,,,47.15300204199957,0.0,False,47.15319200000158,293960,001,2024-07-02_08h56.26.691,5-29,2024.1.4,None,2024-07-02 08h56.31.879488 +0900,
Images/Speaker1.jpg,Images/Speaker2.jpg,Images/Speaker3.jpg,Images/Speaker4.jpg,Audio/Speaker4_Per/P4-19-Per.wav,Speaker4,گوینده۴,0,52,52,78,,,,,76.92256729200017,,,,,,,,,,,,,,,,,,,,,,,,,,,,,,,,,,,,,,,,,47.169014457998856,0.0,False,47.16922266700203,293960,001,2024-07-02_08h56.26.691,5-29,2024.1.4,None,2024-07-02 08h56.31.879488 +0900,
Images/Speaker1.jpg,Images/Speaker2.jpg,Images/Speaker3.jpg,Images/Speaker4.jpg,Audio/Speaker1_Per/P1-6-Per.wav,Speaker1,گوینده ۱,0,53,53,5,,,,,76.92256729200017,,,,,,,,,,,,,,,,,,,,,,,,,,,,,,,,,,,,,,,,,47.18511291699906,0.0,False,47.185293667000224,293960,001,2024-07-02_08h56.26.691,5-29,2024.1.4,None,2024-07-02 08h56.31.879488 +0900,
Images/Speaker1.jpg,Images/Speaker2.jpg,Images/Speaker3.jpg,Images/Speaker4.jpg,Audio/Speaker4_Per/P4-14-Per.wav,Speaker4,گوینده۴,0,54,54,73,,,,,76.92256729200017,,,,,,,,,,,,,,,,,,,,,,,,,,,,,,,,,,,,,,,,,47.20119749999867,0.0,False,47.201359916998626,293960,001,2024-07-02_08h56.26.691,5-29,2024.1.4,None,2024-07-02 08h56.31.879488 +0900,
Images/Speaker1.jpg,Images/Speaker2.jpg,Images/Speaker3.jpg,Images/Speaker4.jpg,Audio/Speaker4_Per/P4-1-Per.wav,Speaker4,گوینده۴,0,55,55,60,,,,,76.92256729200017,,,,,,,,,,,,,,,,,,,,,,,,,,,,,,,,,,,,,,,,,47.2179325420002,0.0,False,47.21811541699935,293960,001,2024-07-02_08h56.26.691,5-29,2024.1.4,None,2024-07-02 08h56.31.879488 +0900,
Images/Speaker1.jpg,Images/Speaker2.jpg,Images/Speaker3.jpg,Images/Speaker4.jpg,Audio/Speaker1_Per/P1-9-Per.wav,Speaker1,گوینده ۱,0,56,56,8,,,,,76.92256729200017,,,,,,,,,,,,,,,,,,,,,,,,,,,,,,,,,,,,,,,,,47.234074291998695,0.0,False,47.234237707998545,293960,001,2024-07-02_08h56.26.691,5-29,2024.1.4,None,2024-07-02 08h56.31.879488 +0900,
Images/Speaker1.jpg,Images/Speaker2.jpg,Images/Speaker3.jpg,Images/Speaker4.jpg,Audio/Speaker3_Per/P3-8-Per.wav,Speaker3,گوینده۳,0,57,57,47,,,,,76.92256729200017,,,,,,,,,,,,,,,,,,,,,,,,,,,,,,,,,,,,,,,,,47.25008204199912,0.0,False,47.25029274999906,293960,001,2024-07-02_08h56.26.691,5-29,2024.1.4,None,2024-07-02 08h56.31.879488 +0900,
Images/Speaker1.jpg,Images/Speaker2.jpg,Images/Speaker3.jpg,Images/Speaker4.jpg,Audio/Speaker3_Per/P3-18-Per.wav,Speaker3,گوینده۳,0,58,58,57,,,,,76.92256729200017,,,,,,,,,,,,,,,,,,,,,,,,,,,,,,,,,,,,,,,,,47.26623958300115,0.0,False,47.266406916998676,293960,001,2024-07-02_08h56.26.691,5-29,2024.1.4,None,2024-07-02 08h56.31.879488 +0900,
Images/Speaker1.jpg,Images/Speaker2.jpg,Images/Speaker3.jpg,Images/Speaker4.jpg,Audio/Speaker1_Per/P1-8-Per.wav,Speaker1,گوینده ۱,0,59,59,7,,,,,76.92256729200017,,,,,,,,,,,,,,,,,,,,,,,,,,,,,,,,,,,,,,,,,47.28289541699996,0.0,False,47.283054208000976,293960,001,2024-07-02_08h56.26.691,5-29,2024.1.4,None,2024-07-02 08h56.31.879488 +0900,
Images/Speaker1.jpg,Images/Speaker2.jpg,Images/Speaker3.jpg,Images/Speaker4.jpg,Audio/Speaker3_Per/P3-15-Per.wav,Speaker3,گوینده۳,0,60,60,54,,,,,76.92256729200017,,,,,,,,,,,,,,,,,,,,,,,,,,,,,,,,,,,,,,,,,47.29888616700191,0.0,False,47.29912562499885,293960,001,2024-07-02_08h56.26.691,5-29,2024.1.4,None,2024-07-02 08h56.31.879488 +0900,
Images/Speaker1.jpg,Images/Speaker2.jpg,Images/Speaker3.jpg,Images/Speaker4.jpg,Audio/Speaker3_Per/P3-19-Per.wav,Speaker3,گوینده۳,0,61,61,58,,,,,76.92256729200017,,,,,,,,,,,,,,,,,,,,,,,,,,,,,,,,,,,,,,,,,47.31491224999991,0.0,False,47.31508549999853,293960,001,2024-07-02_08h56.26.691,5-29,2024.1.4,None,2024-07-02 08h56.31.879488 +0900,
Images/Speaker1.jpg,Images/Speaker2.jpg,Images/Speaker3.jpg,Images/Speaker4.jpg,Audio/Speaker3_Per/P3-7-Per.wav,Speaker3,گوینده۳,0,62,62,46,,,,,76.92256729200017,,,,,,,,,,,,,,,,,,,,,,,,,,,,,,,,,,,,,,,,,47.33103325000047,0.0,False,47.331221749998804,293960,001,2024-07-02_08h56.26.691,5-29,2024.1.4,None,2024-07-02 08h56.31.879488 +0900,
Images/Speaker1.jpg,Images/Speaker2.jpg,Images/Speaker3.jpg,Images/Speaker4.jpg,Audio/Speaker4_Per/P4-18-Per.wav,Speaker4,گوینده۴,0,63,63,77,,,,,76.92256729200017,,,,,,,,,,,,,,,,,,,,,,,,,,,,,,,,,,,,,,,,,47.34768016700036,0.0,False,47.34786545799943,293960,001,2024-07-02_08h56.26.691,5-29,2024.1.4,None,2024-07-02 08h56.31.879488 +0900,
Images/Speaker1.jpg,Images/Speaker2.jpg,Images/Speaker3.jpg,Images/Speaker4.jpg,Audio/Speaker3_Per/P3-2-Per.wav,Speaker3,گوینده۳,0,64,64,41,,,,,76.92256729200017,,,,,,,,,,,,,,,,,,,,,,,,,,,,,,,,,,,,,,,,,47.363766499998746,0.0,False,47.36394683300023,293960,001,2024-07-02_08h56.26.691,5-29,2024.1.4,None,2024-07-02 08h56.31.879488 +0900,
Images/Speaker1.jpg,Images/Speaker2.jpg,Images/Speaker3.jpg,Images/Speaker4.jpg,Audio/Speaker2_Per/P2-18-Per.wav,Speaker2,گوینده۲,0,65,65,37,,,,,76.92256729200017,,,,,,,,,,,,,,,,,,,,,,,,,,,,,,,,,,,,,,,,,47.37990912500027,0.0,False,47.380081208000774,293960,001,2024-07-02_08h56.26.691,5-29,2024.1.4,None,2024-07-02 08h56.31.879488 +0900,
Images/Speaker1.jpg,Images/Speaker2.jpg,Images/Speaker3.jpg,Images/Speaker4.jpg,Audio/Speaker3_Per/P3-1-Per.wav,Speaker3,گوینده۳,0,66,66,40,,,,,76.92256729200017,,,,,,,,,,,,,,,,,,,,,,,,,,,,,,,,,,,,,,,,,47.395938042001944,0.0,False,47.39613937499962,293960,001,2024-07-02_08h56.26.691,5-29,2024.1.4,None,2024-07-02 08h56.31.879488 +0900,
Images/Speaker1.jpg,Images/Speaker2.jpg,Images/Speaker3.jpg,Images/Speaker4.jpg,Audio/Speaker1_Per/P1-15-Per.wav,Speaker1,گوینده ۱,0,67,67,14,,,,,76.92256729200017,,,,,,,,,,,,,,,,,,,,,,,,,,,,,,,,,,,,,,,,,47.41251245799867,0.0,False,47.41268916699846,293960,001,2024-07-02_08h56.26.691,5-29,2024.1.4,None,2024-07-02 08h56.31.879488 +0900,
Images/Speaker1.jpg,Images/Speaker2.jpg,Images/Speaker3.jpg,Images/Speaker4.jpg,Audio/Speaker2_Per/P2-16-Per.wav,Speaker2,گوینده۲,0,68,68,35,,,,,76.92256729200017,,,,,,,,,,,,,,,,,,,,,,,,,,,,,,,,,,,,,,,,,47.42853679200198,0.0,False,47.42871470799946,293960,001,2024-07-02_08h56.26.691,5-29,2024.1.4,None,2024-07-02 08h56.31.879488 +0900,
Images/Speaker1.jpg,Images/Speaker2.jpg,Images/Speaker3.jpg,Images/Speaker4.jpg,Audio/Speaker1_Per/P1-13-Per.wav,Speaker1,گوینده ۱,0,69,69,12,,,,,76.92256729200017,,,,,,,,,,,,,,,,,,,,,,,,,,,,,,,,,,,,,,,,,47.44457833300112,0.0,False,47.44475670799875,293960,001,2024-07-02_08h56.26.691,5-29,2024.1.4,None,2024-07-02 08h56.31.879488 +0900,
Images/Speaker1.jpg,Images/Speaker2.jpg,Images/Speaker3.jpg,Images/Speaker4.jpg,Audio/Speaker1_Per/P1-17-Per.wav,Speaker1,گوینده ۱,0,70,70,16,,,,,76.92256729200017,,,,,,,,,,,,,,,,,,,,,,,,,,,,,,,,,,,,,,,,,47.46054891699896,0.0,False,47.46072724999976,293960,001,2024-07-02_08h56.26.691,5-29,2024.1.4,None,2024-07-02 08h56.31.879488 +0900,
Images/Speaker1.jpg,Images/Speaker2.jpg,Images/Speaker3.jpg,Images/Speaker4.jpg,Audio/Speaker2_Per/P2-4-Per.wav,Speaker2,گوینده۲,0,71,71,23,,,,,76.92256729200017,,,,,,,,,,,,,,,,,,,,,,,,,,,,,,,,,,,,,,,,,47.47718112499933,0.0,False,47.47734679199857,293960,001,2024-07-02_08h56.26.691,5-29,2024.1.4,None,2024-07-02 08h56.31.879488 +0900,
Images/Speaker1.jpg,Images/Speaker2.jpg,Images/Speaker3.jpg,Images/Speaker4.jpg,Audio/Speaker2_Per/P2-8-Per.wav,Speaker2,گوینده۲,0,72,72,27,,,,,76.92256729200017,,,,,,,,,,,,,,,,,,,,,,,,,,,,,,,,,,,,,,,,,47.49329758300155,0.0,False,47.49348262499916,293960,001,2024-07-02_08h56.26.691,5-29,2024.1.4,None,2024-07-02 08h56.31.879488 +0900,
Images/Speaker1.jpg,Images/Speaker2.jpg,Images/Speaker3.jpg,Images/Speaker4.jpg,Audio/Speaker4_Per/P4-10-Per.wav,Speaker4,گوینده۴,0,73,73,69,,,,,76.92256729200017,,,,,,,,,,,,,,,,,,,,,,,,,,,,,,,,,,,,,,,,,47.5093845420015,0.0,False,47.509543542000756,293960,001,2024-07-02_08h56.26.691,5-29,2024.1.4,None,2024-07-02 08h56.31.879488 +0900,
Images/Speaker1.jpg,Images/Speaker2.jpg,Images/Speaker3.jpg,Images/Speaker4.jpg,Audio/Speaker4_Per/P4-6-Per.wav,Speaker4,گوینده۴,0,74,74,65,,,,,76.92256729200017,,,,,,,,,,,,,,,,,,,,,,,,,,,,,,,,,,,,,,,,,47.525629750001826,0.0,False,47.52583237499857,293960,001,2024-07-02_08h56.26.691,5-29,2024.1.4,None,2024-07-02 08h56.31.879488 +0900,
Images/Speaker1.jpg,Images/Speaker2.jpg,Images/Speaker3.jpg,Images/Speaker4.jpg,Audio/Speaker1_Per/P1-19-Per.wav,Speaker1,گوینده ۱,0,75,75,18,,,,,76.92256729200017,,,,,,,,,,,,,,,,,,,,,,,,,,,,,,,,,,,,,,,,,47.54213654200066,0.0,False,47.542325999998866,293960,001,2024-07-02_08h56.26.691,5-29,2024.1.4,None,2024-07-02 08h56.31.879488 +0900,
Images/Speaker1.jpg,Images/Speaker2.jpg,Images/Speaker3.jpg,Images/Speaker4.jpg,Audio/Speaker2_Per/P2-3-Per.wav,Speaker2,گوینده۲,0,76,76,22,,,,,76.92256729200017,,,,,,,,,,,,,,,,,,,,,,,,,,,,,,,,,,,,,,,,,47.55808295799943,0.0,False,47.55824862499867,293960,001,2024-07-02_08h56.26.691,5-29,2024.1.4,None,2024-07-02 08h56.31.879488 +0900,
Images/Speaker1.jpg,Images/Speaker2.jpg,Images/Speaker3.jpg,Images/Speaker4.jpg,Audio/Speaker3_Per/P3-17-Per.wav,Speaker3,گوینده۳,0,77,77,56,,,,,76.92256729200017,,,,,,,,,,,,,,,,,,,,,,,,,,,,,,,,,,,,,,,,,47.57404004199998,0.0,False,47.57423404200017,293960,001,2024-07-02_08h56.26.691,5-29,2024.1.4,None,2024-07-02 08h56.31.879488 +0900,
Images/Speaker1.jpg,Images/Speaker2.jpg,Images/Speaker3.jpg,Images/Speaker4.jpg,Audio/Speaker2_Per/P2-20-Per.wav,Speaker2,گوینده۲,0,78,78,39,,,,,76.92256729200017,,,,,,,,,,,,,,,,,,,,,,,,,,,,,,,,,,,,,,,,,47.59010262499942,0.0,False,47.59028316699914,293960,001,2024-07-02_08h56.26.691,5-29,2024.1.4,None,2024-07-02 08h56.31.879488 +0900,
Images/Speaker1.jpg,Images/Speaker2.jpg,Images/Speaker3.jpg,Images/Speaker4.jpg,Audio/Speaker2_Per/P2-12-Per.wav,Speaker2,گوینده۲,0,79,79,31,,,,,76.92256729200017,,,,,,,,,,,,,,,,,,,,,,,,,,,,,,,,,,,,,,,,,47.60679233300107,0.0,False,47.60696100000132,293960,001,2024-07-02_08h56.26.691,5-29,2024.1.4,None,2024-07-02 08h56.31.879488 +0900,
Images/Speaker1.jpg,Images/Speaker2.jpg,Images/Speaker3.jpg,Images/Speaker4.jpg,Audio/Speaker4_Per/P4-13-Per.wav,Speaker4,گوینده۴,1,0,80,72,,,,,76.92256729200017,,,,,,,,,,,,,,,,,,,,,,,,,,,,,,,,,,,,,,,,,47.62275033300102,0.0,False,47.62297220799883,293960,001,2024-07-02_08h56.26.691,5-29,2024.1.4,None,2024-07-02 08h56.31.879488 +0900,
Images/Speaker1.jpg,Images/Speaker2.jpg,Images/Speaker3.jpg,Images/Speaker4.jpg,Audio/Speaker1_Per/P1-8-Per.wav,Speaker1,گوینده ۱,1,1,81,7,,,,,76.92256729200017,,,,,,,,,,,,,,,,,,,,,,,,,,,,,,,,,,,,,,,,,47.638865207998606,0.0,False,47.63904104199901,293960,001,2024-07-02_08h56.26.691,5-29,2024.1.4,None,2024-07-02 08h56.31.879488 +0900,
Images/Speaker1.jpg,Images/Speaker2.jpg,Images/Speaker3.jpg,Images/Speaker4.jpg,Audio/Speaker3_Per/P3-7-Per.wav,Speaker3,گوینده۳,1,2,82,46,,,,,76.92256729200017,,,,,,,,,,,,,,,,,,,,,,,,,,,,,,,,,,,,,,,,,47.6548029580008,0.0,False,47.65502283300157,293960,001,2024-07-02_08h56.26.691,5-29,2024.1.4,None,2024-07-02 08h56.31.879488 +0900,
Images/Speaker1.jpg,Images/Speaker2.jpg,Images/Speaker3.jpg,Images/Speaker4.jpg,Audio/Speaker3_Per/P3-12-Per.wav,Speaker3,گوینده۳,1,3,83,51,,,,,76.92256729200017,,,,,,,,,,,,,,,,,,,,,,,,,,,,,,,,,,,,,,,,,47.671408833000896,0.0,False,47.67158950000157,293960,001,2024-07-02_08h56.26.691,5-29,2024.1.4,None,2024-07-02 08h56.31.879488 +0900,
Images/Speaker1.jpg,Images/Speaker2.jpg,Images/Speaker3.jpg,Images/Speaker4.jpg,Audio/Speaker3_Per/P3-19-Per.wav,Speaker3,گوینده۳,1,4,84,58,,,,,76.92256729200017,,,,,,,,,,,,,,,,,,,,,,,,,,,,,,,,,,,,,,,,,47.687567832999775,0.0,False,47.68773037500068,293960,001,2024-07-02_08h56.26.691,5-29,2024.1.4,None,2024-07-02 08h56.31.879488 +0900,
Images/Speaker1.jpg,Images/Speaker2.jpg,Images/Speaker3.jpg,Images/Speaker4.jpg,Audio/Speaker4_Per/P4-16-Per.wav,Speaker4,گوینده۴,1,5,85,75,,,,,76.92256729200017,,,,,,,,,,,,,,,,,,,,,,,,,,,,,,,,,,,,,,,,,47.70351487500011,0.0,False,47.70373962500162,293960,001,2024-07-02_08h56.26.691,5-29,2024.1.4,None,2024-07-02 08h56.31.879488 +0900,
Images/Speaker1.jpg,Images/Speaker2.jpg,Images/Speaker3.jpg,Images/Speaker4.jpg,Audio/Speaker3_Per/P3-14-Per.wav,Speaker3,گوینده۳,1,6,86,53,,,,,76.92256729200017,,,,,,,,,,,,,,,,,,,,,,,,,,,,,,,,,,,,,,,,,47.71954129200094,0.0,False,47.719787000001816,293960,001,2024-07-02_08h56.26.691,5-29,2024.1.4,None,2024-07-02 08h56.31.879488 +0900,
Images/Speaker1.jpg,Images/Speaker2.jpg,Images/Speaker3.jpg,Images/Speaker4.jpg,Audio/Speaker2_Per/P2-15-Per.wav,Speaker2,گوینده۲,1,7,87,34,,,,,76.92256729200017,,,,,,,,,,,,,,,,,,,,,,,,,,,,,,,,,,,,,,,,,47.73619391700049,0.0,False,47.73637133300144,293960,001,2024-07-02_08h56.26.691,5-29,2024.1.4,None,2024-07-02 08h56.31.879488 +0900,
Images/Speaker1.jpg,Images/Speaker2.jpg,Images/Speaker3.jpg,Images/Speaker4.jpg,Audio/Speaker3_Per/P3-4-Per.wav,Speaker3,گوینده۳,1,8,88,43,,,,,76.92256729200017,,,,,,,,,,,,,,,,,,,,,,,,,,,,,,,,,,,,,,,,,47.75228679200154,0.0,False,47.75246574999983,293960,001,2024-07-02_08h56.26.691,5-29,2024.1.4,None,2024-07-02 08h56.31.879488 +0900,
Images/Speaker1.jpg,Images/Speaker2.jpg,Images/Speaker3.jpg,Images/Speaker4.jpg,Audio/Speaker2_Per/P2-19-Per.wav,Speaker2,گوینده۲,1,9,89,38,,,,,76.92256729200017,,,,,,,,,,,,,,,,,,,,,,,,,,,,,,,,,,,,,,,,,47.768270791999385,0.0,False,47.768418292002025,293960,001,2024-07-02_08h56.26.691,5-29,2024.1.4,None,2024-07-02 08h56.31.879488 +0900,
Images/Speaker1.jpg,Images/Speaker2.jpg,Images/Speaker3.jpg,Images/Speaker4.jpg,Audio/Speaker4_Per/P4-4-Per.wav,Speaker4,گوینده۴,1,10,90,63,,,,,76.92256729200017,,,,,,,,,,,,,,,,,,,,,,,,,,,,,,,,,,,,,,,,,47.784149041999626,0.0,False,47.784337542001595,293960,001,2024-07-02_08h56.26.691,5-29,2024.1.4,None,2024-07-02 08h56.31.879488 +0900,
Images/Speaker1.jpg,Images/Speaker2.jpg,Images/Speaker3.jpg,Images/Speaker4.jpg,Audio/Speaker4_Per/P4-18-Per.wav,Speaker4,گوینده۴,1,11,91,77,,,,,76.92256729200017,,,,,,,,,,,,,,,,,,,,,,,,,,,,,,,,,,,,,,,,,47.80076008299875,0.0,False,47.80091862500194,293960,001,2024-07-02_08h56.26.691,5-29,2024.1.4,None,2024-07-02 08h56.31.879488 +0900,
Images/Speaker1.jpg,Images/Speaker2.jpg,Images/Speaker3.jpg,Images/Speaker4.jpg,Audio/Speaker3_Per/P3-15-Per.wav,Speaker3,گوینده۳,1,12,92,54,,,,,76.92256729200017,,,,,,,,,,,,,,,,,,,,,,,,,,,,,,,,,,,,,,,,,47.81680962500104,0.0,False,47.81697366699882,293960,001,2024-07-02_08h56.26.691,5-29,2024.1.4,None,2024-07-02 08h56.31.879488 +0900,
Images/Speaker1.jpg,Images/Speaker2.jpg,Images/Speaker3.jpg,Images/Speaker4.jpg,Audio/Speaker2_Per/P2-11-Per.wav,Speaker2,گوینده۲,1,13,93,30,,,,,76.92256729200017,,,,,,,,,,,,,,,,,,,,,,,,,,,,,,,,,,,,,,,,,47.83290933299941,0.0,False,47.83310179199907,293960,001,2024-07-02_08h56.26.691,5-29,2024.1.4,None,2024-07-02 08h56.31.879488 +0900,
Images/Speaker1.jpg,Images/Speaker2.jpg,Images/Speaker3.jpg,Images/Speaker4.jpg,Audio/Speaker3_Per/P3-18-Per.wav,Speaker3,گوینده۳,1,14,94,57,,,,,76.92256729200017,,,,,,,,,,,,,,,,,,,,,,,,,,,,,,,,,,,,,,,,,47.84894479200011,0.0,False,47.84911229199861,293960,001,2024-07-02_08h56.26.691,5-29,2024.1.4,None,2024-07-02 08h56.31.879488 +0900,
Images/Speaker1.jpg,Images/Speaker2.jpg,Images/Speaker3.jpg,Images/Speaker4.jpg,Audio/Speaker2_Per/P2-9-Per.wav,Speaker2,گوینده۲,1,15,95,28,,,,,76.92256729200017,,,,,,,,,,,,,,,,,,,,,,,,,,,,,,,,,,,,,,,,,47.86559991700051,0.0,False,47.86575837499913,293960,001,2024-07-02_08h56.26.691,5-29,2024.1.4,None,2024-07-02 08h56.31.879488 +0900,
Images/Speaker1.jpg,Images/Speaker2.jpg,Images/Speaker3.jpg,Images/Speaker4.jpg,Audio/Speaker4_Per/P4-6-Per.wav,Speaker4,گوینده۴,1,16,96,65,,,,,76.92256729200017,,,,,,,,,,,,,,,,,,,,,,,,,,,,,,,,,,,,,,,,,47.881605750000745,0.0,False,47.88179816699994,293960,001,2024-07-02_08h56.26.691,5-29,2024.1.4,None,2024-07-02 08h56.31.879488 +0900,
Images/Speaker1.jpg,Images/Speaker2.jpg,Images/Speaker3.jpg,Images/Speaker4.jpg,Audio/Speaker1_Per/P1-4-Per.wav,Speaker1,گوینده ۱,1,17,97,13,,,,,76.92256729200017,,,,,,,,,,,,,,,,,,,,,,,,,,,,,,,,,,,,,,,,,47.89768795800046,0.0,False,47.897864957998536,293960,001,2024-07-02_08h56.26.691,5-29,2024.1.4,None,2024-07-02 08h56.31.879488 +0900,
Images/Speaker1.jpg,Images/Speaker2.jpg,Images/Speaker3.jpg,Images/Speaker4.jpg,Audio/Speaker2_Per/P2-4-Per.wav,Speaker2,گوینده۲,1,18,98,23,,,,,76.92256729200017,,,,,,,,,,,,,,,,,,,,,,,,,,,,,,,,,,,,,,,,,47.91373899999962,0.0,False,47.91392750000159,293960,001,2024-07-02_08h56.26.691,5-29,2024.1.4,None,2024-07-02 08h56.31.879488 +0900,
Images/Speaker1.jpg,Images/Speaker2.jpg,Images/Speaker3.jpg,Images/Speaker4.jpg,Audio/Speaker1_Per/P1-20-Per.wav,Speaker1,گوینده ۱,1,19,99,19,,,,,76.92256729200017,,,,,,,,,,,,,,,,,,,,,,,,,,,,,,,,,,,,,,,,,47.93029970800126,0.0,False,47.93045133299893,293960,001,2024-07-02_08h56.26.691,5-29,2024.1.4,None,2024-07-02 08h56.31.879488 +0900,
Images/Speaker1.jpg,Images/Speaker2.jpg,Images/Speaker3.jpg,Images/Speaker4.jpg,Audio/Speaker1_Per/P1-5-Per.wav,Speaker1,گوینده ۱,1,20,100,4,,,,,76.92256729200017,,,,,,,,,,,,,,,,,,,,,,,,,,,,,,,,,,,,,,,,,47.94634245799898,0.0,False,47.946499792000395,293960,001,2024-07-02_08h56.26.691,5-29,2024.1.4,None,2024-07-02 08h56.31.879488 +0900,
Images/Speaker1.jpg,Images/Speaker2.jpg,Images/Speaker3.jpg,Images/Speaker4.jpg,Audio/Speaker1_Per/P1-12-Per.wav,Speaker1,گوینده ۱,1,21,101,11,,,,,76.92256729200017,,,,,,,,,,,,,,,,,,,,,,,,,,,,,,,,,,,,,,,,,47.96234037500108,0.0,False,47.96250745799989,293960,001,2024-07-02_08h56.26.691,5-29,2024.1.4,None,2024-07-02 08h56.31.879488 +0900,
Images/Speaker1.jpg,Images/Speaker2.jpg,Images/Speaker3.jpg,Images/Speaker4.jpg,Audio/Speaker3_Per/P3-10-Per.wav,Speaker3,گوینده۳,1,22,102,49,,,,,76.92256729200017,,,,,,,,,,,,,,,,,,,,,,,,,,,,,,,,,,,,,,,,,47.97843745800128,0.0,False,47.97863583299841,293960,001,2024-07-02_08h56.26.691,5-29,2024.1.4,None,2024-07-02 08h56.31.879488 +0900,
Images/Speaker1.jpg,Images/Speaker2.jpg,Images/Speaker3.jpg,Images/Speaker4.jpg,Audio/Speaker2_Per/P2-10-Per.wav,Speaker2,گوینده۲,1,23,103,29,,,,,76.92256729200017,,,,,,,,,,,,,,,,,,,,,,,,,,,,,,,,,,,,,,,,,47.99507491699842,0.0,False,47.995232958001,293960,001,2024-07-02_08h56.26.691,5-29,2024.1.4,None,2024-07-02 08h56.31.879488 +0900,
Images/Speaker1.jpg,Images/Speaker2.jpg,Images/Speaker3.jpg,Images/Speaker4.jpg,Audio/Speaker4_Per/P4-3-Per.wav,Speaker4,گوینده۴,1,24,104,62,,,,,76.92256729200017,,,,,,,,,,,,,,,,,,,,,,,,,,,,,,,,,,,,,,,,,48.011117624999315,0.0,False,48.01131241699841,293960,001,2024-07-02_08h56.26.691,5-29,2024.1.4,None,2024-07-02 08h56.31.879488 +0900,
Images/Speaker1.jpg,Images/Speaker2.jpg,Images/Speaker3.jpg,Images/Speaker4.jpg,Audio/Speaker2_Per/P2-12-Per.wav,Speaker2,گوینده۲,1,25,105,31,,,,,76.92256729200017,,,,,,,,,,,,,,,,,,,,,,,,,,,,,,,,,,,,,,,,,48.0272416250009,0.0,False,48.02740970800005,293960,001,2024-07-02_08h56.26.691,5-29,2024.1.4,None,2024-07-02 08h56.31.879488 +0900,
Images/Speaker1.jpg,Images/Speaker2.jpg,Images/Speaker3.jpg,Images/Speaker4.jpg,Audio/Speaker3_Per/P3-3-Per.wav,Speaker3,گوینده۳,1,26,106,42,,,,,76.92256729200017,,,,,,,,,,,,,,,,,,,,,,,,,,,,,,,,,,,,,,,,,48.043298500000674,0.0,False,48.04348429200036,293960,001,2024-07-02_08h56.26.691,5-29,2024.1.4,None,2024-07-02 08h56.31.879488 +0900,
Images/Speaker1.jpg,Images/Speaker2.jpg,Images/Speaker3.jpg,Images/Speaker4.jpg,Audio/Speaker3_Per/P3-6-Per.wav,Speaker3,گوینده۳,1,27,107,45,,,,,76.92256729200017,,,,,,,,,,,,,,,,,,,,,,,,,,,,,,,,,,,,,,,,,48.05999633299871,0.0,False,48.06016995800019,293960,001,2024-07-02_08h56.26.691,5-29,2024.1.4,None,2024-07-02 08h56.31.879488 +0900,
Images/Speaker1.jpg,Images/Speaker2.jpg,Images/Speaker3.jpg,Images/Speaker4.jpg,Audio/Speaker1_Per/P1-6-Per.wav,Speaker1,گوینده ۱,1,28,108,5,,,,,76.92256729200017,,,,,,,,,,,,,,,,,,,,,,,,,,,,,,,,,,,,,,,,,48.07597516700116,0.0,False,48.076152500001626,293960,001,2024-07-02_08h56.26.691,5-29,2024.1.4,None,2024-07-02 08h56.31.879488 +0900,
Images/Speaker1.jpg,Images/Speaker2.jpg,Images/Speaker3.jpg,Images/Speaker4.jpg,Audio/Speaker3_Per/P3-17-Per.wav,Speaker3,گوینده۳,1,29,109,56,,,,,76.92256729200017,,,,,,,,,,,,,,,,,,,,,,,,,,,,,,,,,,,,,,,,,48.09193320800114,0.0,False,48.09210204199917,293960,001,2024-07-02_08h56.26.691,5-29,2024.1.4,None,2024-07-02 08h56.31.879488 +0900,
Images/Speaker1.jpg,Images/Speaker2.jpg,Images/Speaker3.jpg,Images/Speaker4.jpg,Audio/Speaker4_Per/P4-12-Per.wav,Speaker4,گوینده۴,1,30,110,71,,,,,76.92256729200017,,,,,,,,,,,,,,,,,,,,,,,,,,,,,,,,,,,,,,,,,48.10795779199907,0.0,False,48.10812629200154,293960,001,2024-07-02_08h56.26.691,5-29,2024.1.4,None,2024-07-02 08h56.31.879488 +0900,
Images/Speaker1.jpg,Images/Speaker2.jpg,Images/Speaker3.jpg,Images/Speaker4.jpg,Audio/Speaker1_Per/P1-11-Per.wav,Speaker1,گوینده ۱,1,31,111,10,,,,,76.92256729200017,,,,,,,,,,,,,,,,,,,,,,,,,,,,,,,,,,,,,,,,,48.12444470799892,0.0,False,48.124630458001775,293960,001,2024-07-02_08h56.26.691,5-29,2024.1.4,None,2024-07-02 08h56.31.879488 +0900,
Images/Speaker1.jpg,Images/Speaker2.jpg,Images/Speaker3.jpg,Images/Speaker4.jpg,Audio/Speaker3_Per/P3-2-Per.wav,Speaker3,گوینده۳,1,32,112,41,,,,,76.92256729200017,,,,,,,,,,,,,,,,,,,,,,,,,,,,,,,,,,,,,,,,,48.14040241700059,0.0,False,48.14058616699913,293960,001,2024-07-02_08h56.26.691,5-29,2024.1.4,None,2024-07-02 08h56.31.879488 +0900,
Images/Speaker1.jpg,Images/Speaker2.jpg,Images/Speaker3.jpg,Images/Speaker4.jpg,Audio/Speaker4_Per/P4-9-Per.wav,Speaker4,گوینده۴,1,33,113,68,,,,,76.92256729200017,,,,,,,,,,,,,,,,,,,,,,,,,,,,,,,,,,,,,,,,,48.15638408299856,0.0,False,48.156592542,293960,001,2024-07-02_08h56.26.691,5-29,2024.1.4,None,2024-07-02 08h56.31.879488 +0900,
Images/Speaker1.jpg,Images/Speaker2.jpg,Images/Speaker3.jpg,Images/Speaker4.jpg,Audio/Speaker3_Per/P3-16-Per.wav,Speaker3,گوینده۳,1,34,114,55,,,,,76.92256729200017,,,,,,,,,,,,,,,,,,,,,,,,,,,,,,,,,,,,,,,,,48.1724142919993,0.0,False,48.17261691699969,293960,001,2024-07-02_08h56.26.691,5-29,2024.1.4,None,2024-07-02 08h56.31.879488 +0900,
Images/Speaker1.jpg,Images/Speaker2.jpg,Images/Speaker3.jpg,Images/Speaker4.jpg,Audio/Speaker2_Per/P2-2-Per.wav,Speaker2,گوینده۲,1,35,115,21,,,,,76.92256729200017,,,,,,,,,,,,,,,,,,,,,,,,,,,,,,,,,,,,,,,,,48.18912700000146,0.0,False,48.18930412500049,293960,001,2024-07-02_08h56.26.691,5-29,2024.1.4,None,2024-07-02 08h56.31.879488 +0900,
Images/Speaker1.jpg,Images/Speaker2.jpg,Images/Speaker3.jpg,Images/Speaker4.jpg,Audio/Speaker3_Per/P3-1-Per.wav,Speaker3,گوینده۳,1,36,116,40,,,,,76.92256729200017,,,,,,,,,,,,,,,,,,,,,,,,,,,,,,,,,,,,,,,,,48.205214292000164,0.0,False,48.20539112500046,293960,001,2024-07-02_08h56.26.691,5-29,2024.1.4,None,2024-07-02 08h56.31.879488 +0900,
Images/Speaker1.jpg,Images/Speaker2.jpg,Images/Speaker3.jpg,Images/Speaker4.jpg,Audio/Speaker4_Per/P4-10-Per.wav,Speaker4,گوینده۴,1,37,117,69,,,,,76.92256729200017,,,,,,,,,,,,,,,,,,,,,,,,,,,,,,,,,,,,,,,,,48.22111145799863,0.0,False,48.22135087499919,293960,001,2024-07-02_08h56.26.691,5-29,2024.1.4,None,2024-07-02 08h56.31.879488 +0900,
Images/Speaker1.jpg,Images/Speaker2.jpg,Images/Speaker3.jpg,Images/Speaker4.jpg,Audio/Speaker1_Per/P1-19-Per.wav,Speaker1,گوینده ۱,1,38,118,18,,,,,76.92256729200017,,,,,,,,,,,,,,,,,,,,,,,,,,,,,,,,,,,,,,,,,48.23735504200158,0.0,False,48.23752612500175,293960,001,2024-07-02_08h56.26.691,5-29,2024.1.4,None,2024-07-02 08h56.31.879488 +0900,
Images/Speaker1.jpg,Images/Speaker2.jpg,Images/Speaker3.jpg,Images/Speaker4.jpg,Audio/Speaker2_Per/P2-6-Per.wav,Speaker2,گوینده۲,1,39,119,25,,,,,76.92256729200017,,,,,,,,,,,,,,,,,,,,,,,,,,,,,,,,,,,,,,,,,48.25385437500154,0.0,False,48.25403104200086,293960,001,2024-07-02_08h56.26.691,5-29,2024.1.4,None,2024-07-02 08h56.31.879488 +0900,
Images/Speaker1.jpg,Images/Speaker2.jpg,Images/Speaker3.jpg,Images/Speaker4.jpg,Audio/Speaker2_Per/P2-3-Per.wav,Speaker2,گوینده۲,1,40,120,22,,,,,76.92256729200017,,,,,,,,,,,,,,,,,,,,,,,,,,,,,,,,,,,,,,,,,48.26981029200033,0.0,False,48.27001754199955,293960,001,2024-07-02_08h56.26.691,5-29,2024.1.4,None,2024-07-02 08h56.31.879488 +0900,
Images/Speaker1.jpg,Images/Speaker2.jpg,Images/Speaker3.jpg,Images/Speaker4.jpg,Audio/Speaker4_Per/P4-5-Per.wav,Speaker4,گوینده۴,1,41,121,64,,,,,76.92256729200017,,,,,,,,,,,,,,,,,,,,,,,,,,,,,,,,,,,,,,,,,48.28591220800081,0.0,False,48.28607437499886,293960,001,2024-07-02_08h56.26.691,5-29,2024.1.4,None,2024-07-02 08h56.31.879488 +0900,
Images/Speaker1.jpg,Images/Speaker2.jpg,Images/Speaker3.jpg,Images/Speaker4.jpg,Audio/Speaker1_Per/P1-1-Per.wav,Speaker1,گوینده ۱,1,42,122,0,,,,,76.92256729200017,,,,,,,,,,,,,,,,,,,,,,,,,,,,,,,,,,,,,,,,,48.30187724999996,0.0,False,48.30205266700068,293960,001,2024-07-02_08h56.26.691,5-29,2024.1.4,None,2024-07-02 08h56.31.879488 +0900,
Images/Speaker1.jpg,Images/Speaker2.jpg,Images/Speaker3.jpg,Images/Speaker4.jpg,Audio/Speaker2_Per/P2-16-Per.wav,Speaker2,گوینده۲,1,43,123,35,,,,,76.92256729200017,,,,,,,,,,,,,,,,,,,,,,,,,,,,,,,,,,,,,,,,,48.318431750001764,0.0,False,48.31859358300062,293960,001,2024-07-02_08h56.26.691,5-29,2024.1.4,None,2024-07-02 08h56.31.879488 +0900,
Images/Speaker1.jpg,Images/Speaker2.jpg,Images/Speaker3.jpg,Images/Speaker4.jpg,Audio/Speaker1_Per/P1-4-Per.wav,Speaker1,گوینده ۱,1,44,124,3,,,,,76.92256729200017,,,,,,,,,,,,,,,,,,,,,,,,,,,,,,,,,,,,,,,,,48.334425083001406,0.0,False,48.334600792000856,293960,001,2024-07-02_08h56.26.691,5-29,2024.1.4,None,2024-07-02 08h56.31.879488 +0900,
Images/Speaker1.jpg,Images/Speaker2.jpg,Images/Speaker3.jpg,Images/Speaker4.jpg,Audio/Speaker2_Per/P2-18-Per.wav,Speaker2,گوینده۲,1,45,125,37,,,,,76.92256729200017,,,,,,,,,,,,,,,,,,,,,,,,,,,,,,,,,,,,,,,,,48.35047645799932,0.0,False,48.350647374998516,293960,001,2024-07-02_08h56.26.691,5-29,2024.1.4,None,2024-07-02 08h56.31.879488 +0900,
Images/Speaker1.jpg,Images/Speaker2.jpg,Images/Speaker3.jpg,Images/Speaker4.jpg,Audio/Speaker4_Per/P4-2-Per.wav,Speaker4,گوینده۴,1,46,126,61,,,,,76.92256729200017,,,,,,,,,,,,,,,,,,,,,,,,,,,,,,,,,,,,,,,,,48.36645708300057,0.0,False,48.36665749999884,293960,001,2024-07-02_08h56.26.691,5-29,2024.1.4,None,2024-07-02 08h56.31.879488 +0900,
Images/Speaker1.jpg,Images/Speaker2.jpg,Images/Speaker3.jpg,Images/Speaker4.jpg,Audio/Speaker3_Per/P3-20-Per.wav,Speaker3,گوینده۳,1,47,127,59,,,,,76.92256729200017,,,,,,,,,,,,,,,,,,,,,,,,,,,,,,,,,,,,,,,,,48.38299229200129,0.0,False,48.38319308300197,293960,001,2024-07-02_08h56.26.691,5-29,2024.1.4,None,2024-07-02 08h56.31.879488 +0900,
Images/Speaker1.jpg,Images/Speaker2.jpg,Images/Speaker3.jpg,Images/Speaker4.jpg,Audio/Speaker2_Per/P2-14-Per.wav,Speaker2,گوینده۲,1,48,128,33,,,,,76.92256729200017,,,,,,,,,,,,,,,,,,,,,,,,,,,,,,,,,,,,,,,,,48.39905179199923,0.0,False,48.399200208001275,293960,001,2024-07-02_08h56.26.691,5-29,2024.1.4,None,2024-07-02 08h56.31.879488 +0900,
Images/Speaker1.jpg,Images/Speaker2.jpg,Images/Speaker3.jpg,Images/Speaker4.jpg,Audio/Speaker4_Per/P4-1-Per.wav,Speaker4,گوینده۴,1,49,129,60,,,,,76.92256729200017,,,,,,,,,,,,,,,,,,,,,,,,,,,,,,,,,,,,,,,,,48.41507441700014,0.0,False,48.41526512500059,293960,001,2024-07-02_08h56.26.691,5-29,2024.1.4,None,2024-07-02 08h56.31.879488 +0900,
Images/Speaker1.jpg,Images/Speaker2.jpg,Images/Speaker3.jpg,Images/Speaker4.jpg,Audio/Speaker1_Per/P1-9-Per.wav,Speaker1,گوینده ۱,1,50,130,8,,,,,76.92256729200017,,,,,,,,,,,,,,,,,,,,,,,,,,,,,,,,,,,,,,,,,48.430986625000514,0.0,False,48.431157625000196,293960,001,2024-07-02_08h56.26.691,5-29,2024.1.4,None,2024-07-02 08h56.31.879488 +0900,
Images/Speaker1.jpg,Images/Speaker2.jpg,Images/Speaker3.jpg,Images/Speaker4.jpg,Audio/Speaker1_Per/P1-13-Per.wav,Speaker1,گوینده ۱,1,51,131,12,,,,,76.92256729200017,,,,,,,,,,,,,,,,,,,,,,,,,,,,,,,,,,,,,,,,,48.447506958000304,0.0,False,48.44766679199893,293960,001,2024-07-02_08h56.26.691,5-29,2024.1.4,None,2024-07-02 08h56.31.879488 +0900,
Images/Speaker1.jpg,Images/Speaker2.jpg,Images/Speaker3.jpg,Images/Speaker4.jpg,Audio/Speaker4_Per/P4-15-Per.wav,Speaker4,گوینده۴,1,52,132,74,,,,,76.92256729200017,,,,,,,,,,,,,,,,,,,,,,,,,,,,,,,,,,,,,,,,,48.46341370799928,0.0,False,48.463577957998496,293960,001,2024-07-02_08h56.26.691,5-29,2024.1.4,None,2024-07-02 08h56.31.879488 +0900,
Images/Speaker1.jpg,Images/Speaker2.jpg,Images/Speaker3.jpg,Images/Speaker4.jpg,Audio/Speaker4_Per/P4-19-Per.wav,Speaker4,گوینده۴,1,53,133,78,,,,,76.92256729200017,,,,,,,,,,,,,,,,,,,,,,,,,,,,,,,,,,,,,,,,,48.479522333000205,0.0,False,48.47969341700082,293960,001,2024-07-02_08h56.26.691,5-29,2024.1.4,None,2024-07-02 08h56.31.879488 +0900,
Images/Speaker1.jpg,Images/Speaker2.jpg,Images/Speaker3.jpg,Images/Speaker4.jpg,Audio/Speaker4_Per/P4-20-Per.wav,Speaker4,گوینده۴,1,54,134,79,,,,,76.92256729200017,,,,,,,,,,,,,,,,,,,,,,,,,,,,,,,,,,,,,,,,,48.49552504199892,0.0,False,48.495697250000376,293960,001,2024-07-02_08h56.26.691,5-29,2024.1.4,None,2024-07-02 08h56.31.879488 +0900,
Images/Speaker1.jpg,Images/Speaker2.jpg,Images/Speaker3.jpg,Images/Speaker4.jpg,Audio/Speaker4_Per/P4-11-Per.wav,Speaker4,گوینده۴,1,55,135,70,,,,,76.92256729200017,,,,,,,,,,,,,,,,,,,,,,,,,,,,,,,,,,,,,,,,,48.51215299999967,0.0,False,48.512313374998485,293960,001,2024-07-02_08h56.26.691,5-29,2024.1.4,None,2024-07-02 08h56.31.879488 +0900,
Images/Speaker1.jpg,Images/Speaker2.jpg,Images/Speaker3.jpg,Images/Speaker4.jpg,Audio/Speaker3_Per/P3-5-Per.wav,Speaker3,گوینده۳,1,56,136,44,,,,,76.92256729200017,,,,,,,,,,,,,,,,,,,,,,,,,,,,,,,,,,,,,,,,,48.528081291999115,0.0,False,48.52823875000104,293960,001,2024-07-02_08h56.26.691,5-29,2024.1.4,None,2024-07-02 08h56.31.879488 +0900,
Images/Speaker1.jpg,Images/Speaker2.jpg,Images/Speaker3.jpg,Images/Speaker4.jpg,Audio/Speaker4_Per/P4-7-Per.wav,Speaker4,گوینده۴,1,57,137,66,,,,,76.92256729200017,,,,,,,,,,,,,,,,,,,,,,,,,,,,,,,,,,,,,,,,,48.54405070800203,0.0,False,48.54421195800023,293960,001,2024-07-02_08h56.26.691,5-29,2024.1.4,None,2024-07-02 08h56.31.879488 +0900,
Images/Speaker1.jpg,Images/Speaker2.jpg,Images/Speaker3.jpg,Images/Speaker4.jpg,Audio/Speaker2_Per/P2-5-Per.wav,Speaker2,گوینده۲,1,58,138,24,,,,,76.92256729200017,,,,,,,,,,,,,,,,,,,,,,,,,,,,,,,,,,,,,,,,,48.56022099999973,0.0,False,48.5604279170002,293960,001,2024-07-02_08h56.26.691,5-29,2024.1.4,None,2024-07-02 08h56.31.879488 +0900,
Images/Speaker1.jpg,Images/Speaker2.jpg,Images/Speaker3.jpg,Images/Speaker4.jpg,Audio/Speaker1_Per/P1-7-Per.wav,Speaker1,گوینده ۱,1,59,139,6,,,,,76.92256729200017,,,,,,,,,,,,,,,,,,,,,,,,,,,,,,,,,,,,,,,,,48.57679674999963,0.0,False,48.57696295799906,293960,001,2024-07-02_08h56.26.691,5-29,2024.1.4,None,2024-07-02 08h56.31.879488 +0900,
Images/Speaker1.jpg,Images/Speaker2.jpg,Images/Speaker3.jpg,Images/Speaker4.jpg,Audio/Speaker2_Per/P2-1-Per.wav,Speaker2,گوینده۲,1,60,140,20,,,,,76.92256729200017,,,,,,,,,,,,,,,,,,,,,,,,,,,,,,,,,,,,,,,,,48.59278474999883,0.0,False,48.592949417001364,293960,001,2024-07-02_08h56.26.691,5-29,2024.1.4,None,2024-07-02 08h56.31.879488 +0900,
Images/Speaker1.jpg,Images/Speaker2.jpg,Images/Speaker3.jpg,Images/Speaker4.jpg,Audio/Speaker1_Per/P1-3-Per.wav,Speaker1,گوینده ۱,1,61,141,2,,,,,76.92256729200017,,,,,,,,,,,,,,,,,,,,,,,,,,,,,,,,,,,,,,,,,48.60875541700079,0.0,False,48.608931792001385,293960,001,2024-07-02_08h56.26.691,5-29,2024.1.4,None,2024-07-02 08h56.31.879488 +0900,
Images/Speaker1.jpg,Images/Speaker2.jpg,Images/Speaker3.jpg,Images/Speaker4.jpg,Audio/Speaker1_Per/P1-2-Per.wav,Speaker1,گوینده ۱,1,62,142,1,,,,,76.92256729200017,,,,,,,,,,,,,,,,,,,,,,,,,,,,,,,,,,,,,,,,,48.6248150829997,0.0,False,48.624998750001396,293960,001,2024-07-02_08h56.26.691,5-29,2024.1.4,None,2024-07-02 08h56.31.879488 +0900,
Images/Speaker1.jpg,Images/Speaker2.jpg,Images/Speaker3.jpg,Images/Speaker4.jpg,Audio/Speaker3_Per/P3-9-Per.wav,Speaker3,گوینده۳,1,63,143,48,,,,,76.92256729200017,,,,,,,,,,,,,,,,,,,,,,,,,,,,,,,,,,,,,,,,,48.641433875000075,0.0,False,48.64166687499892,293960,001,2024-07-02_08h56.26.691,5-29,2024.1.4,None,2024-07-02 08h56.31.879488 +0900,
Images/Speaker1.jpg,Images/Speaker2.jpg,Images/Speaker3.jpg,Images/Speaker4.jpg,Audio/Speaker4_Per/P4-14-Per.wav,Speaker4,گوینده۴,1,64,144,73,,,,,76.92256729200017,,,,,,,,,,,,,,,,,,,,,,,,,,,,,,,,,,,,,,,,,48.657478832999914,0.0,False,48.65768525000021,293960,001,2024-07-02_08h56.26.691,5-29,2024.1.4,None,2024-07-02 08h56.31.879488 +0900,
Images/Speaker1.jpg,Images/Speaker2.jpg,Images/Speaker3.jpg,Images/Speaker4.jpg,Audio/Speaker1_Per/P1-18-Per.wav,Speaker1,گوینده ۱,1,65,145,17,,,,,76.92256729200017,,,,,,,,,,,,,,,,,,,,,,,,,,,,,,,,,,,,,,,,,48.67357837500094,0.0,False,48.67375600000014,293960,001,2024-07-02_08h56.26.691,5-29,2024.1.4,None,2024-07-02 08h56.31.879488 +0900,
Images/Speaker1.jpg,Images/Speaker2.jpg,Images/Speaker3.jpg,Images/Speaker4.jpg,Audio/Speaker2_Per/P2-20-Per.wav,Speaker2,گوینده۲,1,66,146,39,,,,,76.92256729200017,,,,,,,,,,,,,,,,,,,,,,,,,,,,,,,,,,,,,,,,,48.689531374999206,0.0,False,48.68974729199908,293960,001,2024-07-02_08h56.26.691,5-29,2024.1.4,None,2024-07-02 08h56.31.879488 +0900,
Images/Speaker1.jpg,Images/Speaker2.jpg,Images/Speaker3.jpg,Images/Speaker4.jpg,Audio/Speaker4_Per/P4-17-Per.wav,Speaker4,گوینده۴,1,67,147,76,,,,,76.92256729200017,,,,,,,,,,,,,,,,,,,,,,,,,,,,,,,,,,,,,,,,,48.70607116700194,0.0,False,48.70624879200113,293960,001,2024-07-02_08h56.26.691,5-29,2024.1.4,None,2024-07-02 08h56.31.879488 +0900,
Images/Speaker1.jpg,Images/Speaker2.jpg,Images/Speaker3.jpg,Images/Speaker4.jpg,Audio/Speaker1_Per/P1-10-Per.wav,Speaker1,گوینده ۱,1,68,148,9,,,,,76.92256729200017,,,,,,,,,,,,,,,,,,,,,,,,,,,,,,,,,,,,,,,,,48.72223287499946,0.0,False,48.72240079200128,293960,001,2024-07-02_08h56.26.691,5-29,2024.1.4,None,2024-07-02 08h56.31.879488 +0900,
Images/Speaker1.jpg,Images/Speaker2.jpg,Images/Speaker3.jpg,Images/Speaker4.jpg,Audio/Speaker3_Per/P3-13-Per.wav,Speaker3,گوینده۳,1,69,149,52,,,,,76.92256729200017,,,,,,,,,,,,,,,,,,,,,,,,,,,,,,,,,,,,,,,,,48.73829491699871,0.0,False,48.73847491700144,293960,001,2024-07-02_08h56.26.691,5-29,2024.1.4,None,2024-07-02 08h56.31.879488 +0900,
Images/Speaker1.jpg,Images/Speaker2.jpg,Images/Speaker3.jpg,Images/Speaker4.jpg,Audio/Speaker3_Per/P3-11-Per.wav,Speaker3,گوینده۳,1,70,150,50,,,,,76.92256729200017,,,,,,,,,,,,,,,,,,,,,,,,,,,,,,,,,,,,,,,,,48.754396042000735,0.0,False,48.75454708300094,293960,001,2024-07-02_08h56.26.691,5-29,2024.1.4,None,2024-07-02 08h56.31.879488 +0900,
Images/Speaker1.jpg,Images/Speaker2.jpg,Images/Speaker3.jpg,Images/Speaker4.jpg,Audio/Speaker2_Per/P2-8-Per.wav,Speaker2,گوینده۲,1,71,151,27,,,,,76.92256729200017,,,,,,,,,,,,,,,,,,,,,,,,,,,,,,,,,,,,,,,,,48.771024749999924,0.0,False,48.77118574999986,293960,001,2024-07-02_08h56.26.691,5-29,2024.1.4,None,2024-07-02 08h56.31.879488 +0900,
Images/Speaker1.jpg,Images/Speaker2.jpg,Images/Speaker3.jpg,Images/Speaker4.jpg,Audio/Speaker4_Per/P4-8-Per.wav,Speaker4,گوینده۴,1,72,152,67,,,,,76.92256729200017,,,,,,,,,,,,,,,,,,,,,,,,,,,,,,,,,,,,,,,,,48.78700162500172,0.0,False,48.787179916998866,293960,001,2024-07-02_08h56.26.691,5-29,2024.1.4,None,2024-07-02 08h56.31.879488 +0900,
Images/Speaker1.jpg,Images/Speaker2.jpg,Images/Speaker3.jpg,Images/Speaker4.jpg,Audio/Speaker2_Per/P2-17-Per.wav,Speaker2,گوینده۲,1,73,153,36,,,,,76.92256729200017,,,,,,,,,,,,,,,,,,,,,,,,,,,,,,,,,,,,,,,,,48.8029371670018,0.0,False,48.80310741699941,293960,001,2024-07-02_08h56.26.691,5-29,2024.1.4,None,2024-07-02 08h56.31.879488 +0900,
Images/Speaker1.jpg,Images/Speaker2.jpg,Images/Speaker3.jpg,Images/Speaker4.jpg,Audio/Speaker2_Per/P2-7-Per.wav,Speaker2,گوینده۲,1,74,154,26,,,,,76.92256729200017,,,,,,,,,,,,,,,,,,,,,,,,,,,,,,,,,,,,,,,,,48.818943082998885,0.0,False,48.819108708001295,293960,001,2024-07-02_08h56.26.691,5-29,2024.1.4,None,2024-07-02 08h56.31.879488 +0900,
Images/Speaker1.jpg,Images/Speaker2.jpg,Images/Speaker3.jpg,Images/Speaker4.jpg,Audio/Speaker3_Per/P3-8-Per.wav,Speaker3,گوینده۳,1,75,155,47,,,,,76.92256729200017,,,,,,,,,,,,,,,,,,,,,,,,,,,,,,,,,,,,,,,,,48.83552112500183,0.0,False,48.8356743330005,293960,001,2024-07-02_08h56.26.691,5-29,2024.1.4,None,2024-07-02 08h56.31.879488 +0900,
Images/Speaker1.jpg,Images/Speaker2.jpg,Images/Speaker3.jpg,Images/Speaker4.jpg,Audio/Speaker1_Per/P1-17-Per.wav,Speaker1,گوینده ۱,1,76,156,16,,,,,76.92256729200017,,,,,,,,,,,,,,,,,,,,,,,,,,,,,,,,,,,,,,,,,48.85149333300069,0.0,False,48.85166066700185,293960,001,2024-07-02_08h56.26.691,5-29,2024.1.4,None,2024-07-02 08h56.31.879488 +0900,
Images/Speaker1.jpg,Images/Speaker2.jpg,Images/Speaker3.jpg,Images/Speaker4.jpg,Audio/Speaker1_Per/P1-15-Per.wav,Speaker1,گوینده ۱,1,77,157,14,,,,,76.92256729200017,,,,,,,,,,,,,,,,,,,,,,,,,,,,,,,,,,,,,,,,,48.86749787499866,0.0,False,48.86767574999976,293960,001,2024-07-02_08h56.26.691,5-29,2024.1.4,None,2024-07-02 08h56.31.879488 +0900,
Images/Speaker1.jpg,Images/Speaker2.jpg,Images/Speaker3.jpg,Images/Speaker4.jpg,Audio/Speaker2_Per/P2-13-Per.wav,Speaker2,گوینده۲,1,78,158,32,,,,,76.92256729200017,,,,,,,,,,,,,,,,,,,,,,,,,,,,,,,,,,,,,,,,,48.883602958001575,0.0,False,48.8837725830017,293960,001,2024-07-02_08h56.26.691,5-29,2024.1.4,None,2024-07-02 08h56.31.879488 +0900,
Images/Speaker1.jpg,Images/Speaker2.jpg,Images/Speaker3.jpg,Images/Speaker4.jpg,Audio/Speaker1_Per/P1-16-Per.wav,Speaker1,گوینده ۱,1,79,159,15,,,,,76.92256729200017,,,,,,,,,,,,,,,,,,,,,,,,,,,,,,,,,,,,,,,,,48.900397875000635,0.0,False,48.90058795799996,293960,001,2024-07-02_08h56.26.691,5-29,2024.1.4,None,2024-07-02 08h56.31.879488 +0900,
Images/Speaker1.jpg,Images/Speaker2.jpg,Images/Speaker3.jpg,Images/Speaker4.jpg,Audio/Speaker2_Per/P2-3-Per.wav,Speaker2,گوینده۲,2,0,160,22,,,,,76.92256729200017,,,,,,,,,,,,,,,,,,,,,,,,,,,,,,,,,,,,,,,,,48.9161730420019,0.0,False,48.916343042001245,293960,001,2024-07-02_08h56.26.691,5-29,2024.1.4,None,2024-07-02 08h56.31.879488 +0900,
Images/Speaker1.jpg,Images/Speaker2.jpg,Images/Speaker3.jpg,Images/Speaker4.jpg,Audio/Speaker2_Per/P2-9-Per.wav,Speaker2,گوینده۲,2,1,161,28,,,,,76.92256729200017,,,,,,,,,,,,,,,,,,,,,,,,,,,,,,,,,,,,,,,,,48.93218749999869,0.0,False,48.932353374999366,293960,001,2024-07-02_08h56.26.691,5-29,2024.1.4,None,2024-07-02 08h56.31.879488 +0900,
Images/Speaker1.jpg,Images/Speaker2.jpg,Images/Speaker3.jpg,Images/Speaker4.jpg,Audio/Speaker3_Per/P3-14-Per.wav,Speaker3,گوینده۳,2,2,162,53,,,,,76.92256729200017,,,,,,,,,,,,,,,,,,,,,,,,,,,,,,,,,,,,,,,,,48.948212041999795,0.0,False,48.948376457999984,293960,001,2024-07-02_08h56.26.691,5-29,2024.1.4,None,2024-07-02 08h56.31.879488 +0900,
Images/Speaker1.jpg,Images/Speaker2.jpg,Images/Speaker3.jpg,Images/Speaker4.jpg,Audio/Speaker1_Per/P1-19-Per.wav,Speaker1,گوینده ۱,2,3,163,18,,,,,76.92256729200017,,,,,,,,,,,,,,,,,,,,,,,,,,,,,,,,,,,,,,,,,48.96483220799928,0.0,False,48.965020042000106,293960,001,2024-07-02_08h56.26.691,5-29,2024.1.4,None,2024-07-02 08h56.31.879488 +0900,
Images/Speaker1.jpg,Images/Speaker2.jpg,Images/Speaker3.jpg,Images/Speaker4.jpg,Audio/Speaker1_Per/P1-17-Per.wav,Speaker1,گوینده ۱,2,4,164,16,,,,,76.92256729200017,,,,,,,,,,,,,,,,,,,,,,,,,,,,,,,,,,,,,,,,,48.980926542000816,0.0,False,48.98109575000126,293960,001,2024-07-02_08h56.26.691,5-29,2024.1.4,None,2024-07-02 08h56.31.879488 +0900,
Images/Speaker1.jpg,Images/Speaker2.jpg,Images/Speaker3.jpg,Images/Speaker4.jpg,Audio/Speaker4_Per/P4-7-Per.wav,Speaker4,گوینده۴,2,5,165,66,,,,,76.92256729200017,,,,,,,,,,,,,,,,,,,,,,,,,,,,,,,,,,,,,,,,,48.99676945800093,0.0,False,48.996954082998855,293960,001,2024-07-02_08h56.26.691,5-29,2024.1.4,None,2024-07-02 08h56.31.879488 +0900,
Images/Speaker1.jpg,Images/Speaker2.jpg,Images/Speaker3.jpg,Images/Speaker4.jpg,Audio/Speaker4_Per/P4-11-Per.wav,Speaker4,گوینده۴,2,6,166,70,,,,,76.92256729200017,,,,,,,,,,,,,,,,,,,,,,,,,,,,,,,,,,,,,,,,,49.01281341700087,0.0,False,49.012978167000256,293960,001,2024-07-02_08h56.26.691,5-29,2024.1.4,None,2024-07-02 08h56.31.879488 +0900,
Images/Speaker1.jpg,Images/Speaker2.jpg,Images/Speaker3.jpg,Images/Speaker4.jpg,Audio/Speaker4_Per/P4-3-Per.wav,Speaker4,گوینده۴,2,7,167,62,,,,,76.92256729200017,,,,,,,,,,,,,,,,,,,,,,,,,,,,,,,,,,,,,,,,,49.02939999999944,0.0,False,49.0296033750019,293960,001,2024-07-02_08h56.26.691,5-29,2024.1.4,None,2024-07-02 08h56.31.879488 +0900,
Images/Speaker1.jpg,Images/Speaker2.jpg,Images/Speaker3.jpg,Images/Speaker4.jpg,Audio/Speaker3_Per/P3-17-Per.wav,Speaker3,گوینده۳,2,8,168,56,,,,,76.92256729200017,,,,,,,,,,,,,,,,,,,,,,,,,,,,,,,,,,,,,,,,,49.04552500000136,0.0,False,49.045702708001045,293960,001,2024-07-02_08h56.26.691,5-29,2024.1.4,None,2024-07-02 08h56.31.879488 +0900,
Images/Speaker1.jpg,Images/Speaker2.jpg,Images/Speaker3.jpg,Images/Speaker4.jpg,Audio/Speaker2_Per/P2-8-Per.wav,Speaker2,گوینده۲,2,9,169,27,,,,,76.92256729200017,,,,,,,,,,,,,,,,,,,,,,,,,,,,,,,,,,,,,,,,,49.06162887499886,0.0,False,49.061789667000994,293960,001,2024-07-02_08h56.26.691,5-29,2024.1.4,None,2024-07-02 08h56.31.879488 +0900,
Images/Speaker1.jpg,Images/Speaker2.jpg,Images/Speaker3.jpg,Images/Speaker4.jpg,Audio/Speaker4_Per/P4-2-Per.wav,Speaker4,گوینده۴,2,10,170,61,,,,,76.92256729200017,,,,,,,,,,,,,,,,,,,,,,,,,,,,,,,,,,,,,,,,,49.07757050000146,0.0,False,49.07774637500188,293960,001,2024-07-02_08h56.26.691,5-29,2024.1.4,None,2024-07-02 08h56.31.879488 +0900,
Images/Speaker1.jpg,Images/Speaker2.jpg,Images/Speaker3.jpg,Images/Speaker4.jpg,Audio/Speaker2_Per/P2-11-Per.wav,Speaker2,گوینده۲,2,11,171,30,,,,,76.92256729200017,,,,,,,,,,,,,,,,,,,,,,,,,,,,,,,,,,,,,,,,,49.094489208000596,0.0,False,49.094670792001125,293960,001,2024-07-02_08h56.26.691,5-29,2024.1.4,None,2024-07-02 08h56.31.879488 +0900,
Images/Speaker1.jpg,Images/Speaker2.jpg,Images/Speaker3.jpg,Images/Speaker4.jpg,Audio/Speaker1_Per/P1-15-Per.wav,Speaker1,گوینده ۱,2,12,172,14,,,,,76.92256729200017,,,,,,,,,,,,,,,,,,,,,,,,,,,,,,,,,,,,,,,,,49.11039758300103,0.0,False,49.110617292000825,293960,001,2024-07-02_08h56.26.691,5-29,2024.1.4,None,2024-07-02 08h56.31.879488 +0900,
Images/Speaker1.jpg,Images/Speaker2.jpg,Images/Speaker3.jpg,Images/Speaker4.jpg,Audio/Speaker4_Per/P4-5-Per.wav,Speaker4,گوینده۴,2,13,173,64,,,,,76.92256729200017,,,,,,,,,,,,,,,,,,,,,,,,,,,,,,,,,,,,,,,,,49.12657054200099,0.0,False,49.1267332919997,293960,001,2024-07-02_08h56.26.691,5-29,2024.1.4,None,2024-07-02 08h56.31.879488 +0900,
Images/Speaker1.jpg,Images/Speaker2.jpg,Images/Speaker3.jpg,Images/Speaker4.jpg,Audio/Speaker2_Per/P2-19-Per.wav,Speaker2,گوینده۲,2,14,174,38,,,,,76.92256729200017,,,,,,,,,,,,,,,,,,,,,,,,,,,,,,,,,,,,,,,,,49.14271374999953,0.0,False,49.142895625001984,293960,001,2024-07-02_08h56.26.691,5-29,2024.1.4,None,2024-07-02 08h56.31.879488 +0900,
Images/Speaker1.jpg,Images/Speaker2.jpg,Images/Speaker3.jpg,Images/Speaker4.jpg,Audio/Speaker1_Per/P1-20-Per.wav,Speaker1,گوینده ۱,2,15,175,19,,,,,76.92256729200017,,,,,,,,,,,,,,,,,,,,,,,,,,,,,,,,,,,,,,,,,49.159231833000376,0.0,False,49.15947354200034,293960,001,2024-07-02_08h56.26.691,5-29,2024.1.4,None,2024-07-02 08h56.31.879488 +0900,
Images/Speaker1.jpg,Images/Speaker2.jpg,Images/Speaker3.jpg,Images/Speaker4.jpg,Audio/Speaker4_Per/P4-18-Per.wav,Speaker4,گوینده۴,2,16,176,77,,,,,76.92256729200017,,,,,,,,,,,,,,,,,,,,,,,,,,,,,,,,,,,,,,,,,49.175331582999206,0.0,False,49.17553566700008,293960,001,2024-07-02_08h56.26.691,5-29,2024.1.4,None,2024-07-02 08h56.31.879488 +0900,
Images/Speaker1.jpg,Images/Speaker2.jpg,Images/Speaker3.jpg,Images/Speaker4.jpg,Audio/Speaker1_Per/P1-12-Per.wav,Speaker1,گوینده ۱,2,17,177,11,,,,,76.92256729200017,,,,,,,,,,,,,,,,,,,,,,,,,,,,,,,,,,,,,,,,,49.19139279199953,0.0,False,49.19160933300009,293960,001,2024-07-02_08h56.26.691,5-29,2024.1.4,None,2024-07-02 08h56.31.879488 +0900,
Images/Speaker1.jpg,Images/Speaker2.jpg,Images/Speaker3.jpg,Images/Speaker4.jpg,Audio/Speaker1_Per/P1-4-Per.wav,Speaker1,گوینده ۱,2,18,178,3,,,,,76.92256729200017,,,,,,,,,,,,,,,,,,,,,,,,,,,,,,,,,,,,,,,,,49.20758783299971,0.0,False,49.20774637499926,293960,001,2024-07-02_08h56.26.691,5-29,2024.1.4,None,2024-07-02 08h56.31.879488 +0900,
Images/Speaker1.jpg,Images/Speaker2.jpg,Images/Speaker3.jpg,Images/Speaker4.jpg,Audio/Speaker3_Per/P3-4-Per.wav,Speaker3,گوینده۳,2,19,179,43,,,,,76.92256729200017,,,,,,,,,,,,,,,,,,,,,,,,,,,,,,,,,,,,,,,,,49.22405591699862,0.0,False,49.22422708299928,293960,001,2024-07-02_08h56.26.691,5-29,2024.1.4,None,2024-07-02 08h56.31.879488 +0900,
Images/Speaker1.jpg,Images/Speaker2.jpg,Images/Speaker3.jpg,Images/Speaker4.jpg,Audio/Speaker3_Per/P3-18-Per.wav,Speaker3,گوینده۳,2,20,180,57,,,,,76.92256729200017,,,,,,,,,,,,,,,,,,,,,,,,,,,,,,,,,,,,,,,,,49.240109624999604,0.0,False,49.24028449999969,293960,001,2024-07-02_08h56.26.691,5-29,2024.1.4,None,2024-07-02 08h56.31.879488 +0900,
Images/Speaker1.jpg,Images/Speaker2.jpg,Images/Speaker3.jpg,Images/Speaker4.jpg,Audio/Speaker4_Per/P4-14-Per.wav,Speaker4,گوینده۴,2,21,181,73,,,,,76.92256729200017,,,,,,,,,,,,,,,,,,,,,,,,,,,,,,,,,,,,,,,,,49.25623750000159,0.0,False,49.25643841700003,293960,001,2024-07-02_08h56.26.691,5-29,2024.1.4,None,2024-07-02 08h56.31.879488 +0900,
Images/Speaker1.jpg,Images/Speaker2.jpg,Images/Speaker3.jpg,Images/Speaker4.jpg,Audio/Speaker4_Per/P4-15-Per.wav,Speaker4,گوینده۴,2,22,182,74,,,,,76.92256729200017,,,,,,,,,,,,,,,,,,,,,,,,,,,,,,,,,,,,,,,,,49.27237900000182,0.0,False,49.27260820800075,293960,001,2024-07-02_08h56.26.691,5-29,2024.1.4,None,2024-07-02 08h56.31.879488 +0900,
Images/Speaker1.jpg,Images/Speaker2.jpg,Images/Speaker3.jpg,Images/Speaker4.jpg,Audio/Speaker2_Per/P2-1-Per.wav,Speaker2,گوینده۲,2,23,183,20,,,,,76.92256729200017,,,,,,,,,,,,,,,,,,,,,,,,,,,,,,,,,,,,,,,,,49.28896249999889,0.0,False,49.28914162499859,293960,001,2024-07-02_08h56.26.691,5-29,2024.1.4,None,2024-07-02 08h56.31.879488 +0900,
Images/Speaker1.jpg,Images/Speaker2.jpg,Images/Speaker3.jpg,Images/Speaker4.jpg,Audio/Speaker3_Per/P3-9-Per.wav,Speaker3,گوینده۳,2,24,184,48,,,,,76.92256729200017,,,,,,,,,,,,,,,,,,,,,,,,,,,,,,,,,,,,,,,,,49.30500329200004,0.0,False,49.30518604200188,293960,001,2024-07-02_08h56.26.691,5-29,2024.1.4,None,2024-07-02 08h56.31.879488 +0900,
Images/Speaker1.jpg,Images/Speaker2.jpg,Images/Speaker3.jpg,Images/Speaker4.jpg,Audio/Speaker2_Per/P2-12-Per.wav,Speaker2,گوینده۲,2,25,185,31,,,,,76.92256729200017,,,,,,,,,,,,,,,,,,,,,,,,,,,,,,,,,,,,,,,,,49.32121204199939,0.0,False,49.32137199999852,293960,001,2024-07-02_08h56.26.691,5-29,2024.1.4,None,2024-07-02 08h56.31.879488 +0900,
Images/Speaker1.jpg,Images/Speaker2.jpg,Images/Speaker3.jpg,Images/Speaker4.jpg,Audio/Speaker2_Per/P2-14-Per.wav,Speaker2,گوینده۲,2,26,186,33,,,,,76.92256729200017,,,,,,,,,,,,,,,,,,,,,,,,,,,,,,,,,,,,,,,,,49.33733770799881,0.0,False,49.337495416999445,293960,001,2024-07-02_08h56.26.691,5-29,2024.1.4,None,2024-07-02 08h56.31.879488 +0900,
Images/Speaker1.jpg,Images/Speaker2.jpg,Images/Speaker3.jpg,Images/Speaker4.jpg,Audio/Speaker1_Per/P1-6-Per.wav,Speaker1,گوینده ۱,2,27,187,5,,,,,76.92256729200017,,,,,,,,,,,,,,,,,,,,,,,,,,,,,,,,,,,,,,,,,49.35374462500113,0.0,False,49.35391370800062,293960,001,2024-07-02_08h56.26.691,5-29,2024.1.4,None,2024-07-02 08h56.31.879488 +0900,
Images/Speaker1.jpg,Images/Speaker2.jpg,Images/Speaker3.jpg,Images/Speaker4.jpg,Audio/Speaker2_Per/P2-16-Per.wav,Speaker2,گوینده۲,2,28,188,35,,,,,76.92256729200017,,,,,,,,,,,,,,,,,,,,,,,,,,,,,,,,,,,,,,,,,49.36974704200111,0.0,False,49.36991466700056,293960,001,2024-07-02_08h56.26.691,5-29,2024.1.4,None,2024-07-02 08h56.31.879488 +0900,
Images/Speaker1.jpg,Images/Speaker2.jpg,Images/Speaker3.jpg,Images/Speaker4.jpg,Audio/Speaker4_Per/P4-13-Per.wav,Speaker4,گوینده۴,2,29,189,72,,,,,76.92256729200017,,,,,,,,,,,,,,,,,,,,,,,,,,,,,,,,,,,,,,,,,49.3857339999995,0.0,False,49.38594833300158,293960,001,2024-07-02_08h56.26.691,5-29,2024.1.4,None,2024-07-02 08h56.31.879488 +0900,
Images/Speaker1.jpg,Images/Speaker2.jpg,Images/Speaker3.jpg,Images/Speaker4.jpg,Audio/Speaker4_Per/P4-12-Per.wav,Speaker4,گوینده۴,2,30,190,71,,,,,76.92256729200017,,,,,,,,,,,,,,,,,,,,,,,,,,,,,,,,,,,,,,,,,49.401798124999914,0.0,False,49.40196579199983,293960,001,2024-07-02_08h56.26.691,5-29,2024.1.4,None,2024-07-02 08h56.31.879488 +0900,
Images/Speaker1.jpg,Images/Speaker2.jpg,Images/Speaker3.jpg,Images/Speaker4.jpg,Audio/Speaker3_Per/P3-8-Per.wav,Speaker3,گوینده۳,2,31,191,47,,,,,76.92256729200017,,,,,,,,,,,,,,,,,,,,,,,,,,,,,,,,,,,,,,,,,49.41834779200144,0.0,False,49.418529041999136,293960,001,2024-07-02_08h56.26.691,5-29,2024.1.4,None,2024-07-02 08h56.31.879488 +0900,
Images/Speaker1.jpg,Images/Speaker2.jpg,Images/Speaker3.jpg,Images/Speaker4.jpg,Audio/Speaker4_Per/P4-1-Per.wav,Speaker4,گوینده۴,2,32,192,60,,,,,76.92256729200017,,,,,,,,,,,,,,,,,,,,,,,,,,,,,,,,,,,,,,,,,49.434359082999435,0.0,False,49.43458200000168,293960,001,2024-07-02_08h56.26.691,5-29,2024.1.4,None,2024-07-02 08h56.31.879488 +0900,
Images/Speaker1.jpg,Images/Speaker2.jpg,Images/Speaker3.jpg,Images/Speaker4.jpg,Audio/Speaker3_Per/P3-3-Per.wav,Speaker3,گوینده۳,2,33,193,42,,,,,76.92256729200017,,,,,,,,,,,,,,,,,,,,,,,,,,,,,,,,,,,,,,,,,49.45042766700135,0.0,False,49.450638333000825,293960,001,2024-07-02_08h56.26.691,5-29,2024.1.4,None,2024-07-02 08h56.31.879488 +0900,
Images/Speaker1.jpg,Images/Speaker2.jpg,Images/Speaker3.jpg,Images/Speaker4.jpg,Audio/Speaker3_Per/P3-7-Per.wav,Speaker3,گوینده۳,2,34,194,46,,,,,76.92256729200017,,,,,,,,,,,,,,,,,,,,,,,,,,,,,,,,,,,,,,,,,49.466373125000246,0.0,False,49.46658283299985,293960,001,2024-07-02_08h56.26.691,5-29,2024.1.4,None,2024-07-02 08h56.31.879488 +0900,
Images/Speaker1.jpg,Images/Speaker2.jpg,Images/Speaker3.jpg,Images/Speaker4.jpg,Audio/Speaker4_Per/P4-19-Per.wav,Speaker4,گوینده۴,2,35,195,78,,,,,76.92256729200017,,,,,,,,,,,,,,,,,,,,,,,,,,,,,,,,,,,,,,,,,49.483113750000484,0.0,False,49.48327829199843,293960,001,2024-07-02_08h56.26.691,5-29,2024.1.4,None,2024-07-02 08h56.31.879488 +0900,
Images/Speaker1.jpg,Images/Speaker2.jpg,Images/Speaker3.jpg,Images/Speaker4.jpg,Audio/Speaker1_Per/P1-7-Per.wav,Speaker1,گوینده ۱,2,36,196,6,,,,,76.92256729200017,,,,,,,,,,,,,,,,,,,,,,,,,,,,,,,,,,,,,,,,,49.49908491699898,0.0,False,49.49924954200105,293960,001,2024-07-02_08h56.26.691,5-29,2024.1.4,None,2024-07-02 08h56.31.879488 +0900,
Images/Speaker1.jpg,Images/Speaker2.jpg,Images/Speaker3.jpg,Images/Speaker4.jpg,Audio/Speaker2_Per/P2-7-Per.wav,Speaker2,گوینده۲,2,37,197,26,,,,,76.92256729200017,,,,,,,,,,,,,,,,,,,,,,,,,,,,,,,,,,,,,,,,,49.515096999999514,0.0,False,49.51530387499952,293960,001,2024-07-02_08h56.26.691,5-29,2024.1.4,None,2024-07-02 08h56.31.879488 +0900,
Images/Speaker1.jpg,Images/Speaker2.jpg,Images/Speaker3.jpg,Images/Speaker4.jpg,Audio/Speaker2_Per/P2-2-Per.wav,Speaker2,گوینده۲,2,38,198,21,,,,,76.92256729200017,,,,,,,,,,,,,,,,,,,,,,,,,,,,,,,,,,,,,,,,,49.53117312500035,0.0,False,49.53133454199997,293960,001,2024-07-02_08h56.26.691,5-29,2024.1.4,None,2024-07-02 08h56.31.879488 +0900,
Images/Speaker1.jpg,Images/Speaker2.jpg,Images/Speaker3.jpg,Images/Speaker4.jpg,Audio/Speaker4_Per/P4-9-Per.wav,Speaker4,گوینده۴,2,39,199,68,,,,,76.92256729200017,,,,,,,,,,,,,,,,,,,,,,,,,,,,,,,,,,,,,,,,,49.54780120799842,0.0,False,49.54795683300108,293960,001,2024-07-02_08h56.26.691,5-29,2024.1.4,None,2024-07-02 08h56.31.879488 +0900,
Images/Speaker1.jpg,Images/Speaker2.jpg,Images/Speaker3.jpg,Images/Speaker4.jpg,Audio/Speaker2_Per/P2-18-Per.wav,Speaker2,گوینده۲,2,40,200,37,,,,,76.92256729200017,,,,,,,,,,,,,,,,,,,,,,,,,,,,,,,,,,,,,,,,,49.56385541700001,0.0,False,49.56403858300109,293960,001,2024-07-02_08h56.26.691,5-29,2024.1.4,None,2024-07-02 08h56.31.879488 +0900,
Images/Speaker1.jpg,Images/Speaker2.jpg,Images/Speaker3.jpg,Images/Speaker4.jpg,Audio/Speaker3_Per/P3-2-Per.wav,Speaker3,گوینده۳,2,41,201,41,,,,,76.92256729200017,,,,,,,,,,,,,,,,,,,,,,,,,,,,,,,,,,,,,,,,,49.5799407500017,0.0,False,49.58013695800037,293960,001,2024-07-02_08h56.26.691,5-29,2024.1.4,None,2024-07-02 08h56.31.879488 +0900,
Images/Speaker1.jpg,Images/Speaker2.jpg,Images/Speaker3.jpg,Images/Speaker4.jpg,Audio/Speaker1_Per/P1-16-Per.wav,Speaker1,گوینده ۱,2,42,202,15,,,,,76.92256729200017,,,,,,,,,,,,,,,,,,,,,,,,,,,,,,,,,,,,,,,,,49.59602658299991,0.0,False,49.59624199999962,293960,001,2024-07-02_08h56.26.691,5-29,2024.1.4,None,2024-07-02 08h56.31.879488 +0900,
Images/Speaker1.jpg,Images/Speaker2.jpg,Images/Speaker3.jpg,Images/Speaker4.jpg,Audio/Speaker1_Per/P1-10-Per.wav,Speaker1,گوینده ۱,2,43,203,9,,,,,76.92256729200017,,,,,,,,,,,,,,,,,,,,,,,,,,,,,,,,,,,,,,,,,49.61273633300152,0.0,False,49.612902374999976,293960,001,2024-07-02_08h56.26.691,5-29,2024.1.4,None,2024-07-02 08h56.31.879488 +0900,
Images/Speaker1.jpg,Images/Speaker2.jpg,Images/Speaker3.jpg,Images/Speaker4.jpg,Audio/Speaker4_Per/P4-20-Per.wav,Speaker4,گوینده۴,2,44,204,79,,,,,76.92256729200017,,,,,,,,,,,,,,,,,,,,,,,,,,,,,,,,,,,,,,,,,49.62874791699869,0.0,False,49.62890787500146,293960,001,2024-07-02_08h56.26.691,5-29,2024.1.4,None,2024-07-02 08h56.31.879488 +0900,
Images/Speaker1.jpg,Images/Speaker2.jpg,Images/Speaker3.jpg,Images/Speaker4.jpg,Audio/Speaker3_Per/P3-10-Per.wav,Speaker3,گوینده۳,2,45,205,49,,,,,76.92256729200017,,,,,,,,,,,,,,,,,,,,,,,,,,,,,,,,,,,,,,,,,49.64482791699993,0.0,False,49.64499183299995,293960,001,2024-07-02_08h56.26.691,5-29,2024.1.4,None,2024-07-02 08h56.31.879488 +0900,
Images/Speaker1.jpg,Images/Speaker2.jpg,Images/Speaker3.jpg,Images/Speaker4.jpg,Audio/Speaker1_Per/P1-18-Per.wav,Speaker1,گوینده ۱,2,46,206,17,,,,,76.92256729200017,,,,,,,,,,,,,,,,,,,,,,,,,,,,,,,,,,,,,,,,,49.66076358300052,0.0,False,49.660929375000705,293960,001,2024-07-02_08h56.26.691,5-29,2024.1.4,None,2024-07-02 08h56.31.879488 +0900,
Images/Speaker1.jpg,Images/Speaker2.jpg,Images/Speaker3.jpg,Images/Speaker4.jpg,Audio/Speaker4_Per/P4-8-Per.wav,Speaker4,گوینده۴,2,47,207,67,,,,,76.92256729200017,,,,,,,,,,,,,,,,,,,,,,,,,,,,,,,,,,,,,,,,,49.677354374998686,0.0,False,49.67752679200203,293960,001,2024-07-02_08h56.26.691,5-29,2024.1.4,None,2024-07-02 08h56.31.879488 +0900,
Images/Speaker1.jpg,Images/Speaker2.jpg,Images/Speaker3.jpg,Images/Speaker4.jpg,Audio/Speaker2_Per/P2-6-Per.wav,Speaker2,گوینده۲,2,48,208,25,,,,,76.92256729200017,,,,,,,,,,,,,,,,,,,,,,,,,,,,,,,,,,,,,,,,,49.69332837500042,0.0,False,49.693512166999426,293960,001,2024-07-02_08h56.26.691,5-29,2024.1.4,None,2024-07-02 08h56.31.879488 +0900,
Images/Speaker1.jpg,Images/Speaker2.jpg,Images/Speaker3.jpg,Images/Speaker4.jpg,Audio/Speaker4_Per/P4-17-Per.wav,Speaker4,گوینده۴,2,49,209,76,,,,,76.92256729200017,,,,,,,,,,,,,,,,,,,,,,,,,,,,,,,,,,,,,,,,,49.7093794579996,0.0,False,49.709546292000596,293960,001,2024-07-02_08h56.26.691,5-29,2024.1.4,None,2024-07-02 08h56.31.879488 +0900,
Images/Speaker1.jpg,Images/Speaker2.jpg,Images/Speaker3.jpg,Images/Speaker4.jpg,Audio/Speaker1_Per/P1-2-Per.wav,Speaker1,گوینده ۱,2,50,210,1,,,,,76.92256729200017,,,,,,,,,,,,,,,,,,,,,,,,,,,,,,,,,,,,,,,,,49.72530774999905,0.0,False,49.72546924999915,293960,001,2024-07-02_08h56.26.691,5-29,2024.1.4,None,2024-07-02 08h56.31.879488 +0900,
Images/Speaker1.jpg,Images/Speaker2.jpg,Images/Speaker3.jpg,Images/Speaker4.jpg,Audio/Speaker1_Per/P1-3-Per.wav,Speaker1,گوینده ۱,2,51,211,2,,,,,76.92256729200017,,,,,,,,,,,,,,,,,,,,,,,,,,,,,,,,,,,,,,,,,49.74203941700034,0.0,False,49.7422144580014,293960,001,2024-07-02_08h56.26.691,5-29,2024.1.4,None,2024-07-02 08h56.31.879488 +0900,
Images/Speaker1.jpg,Images/Speaker2.jpg,Images/Speaker3.jpg,Images/Speaker4.jpg,Audio/Speaker2_Per/P2-15-Per.wav,Speaker2,گوینده۲,2,52,212,34,,,,,76.92256729200017,,,,,,,,,,,,,,,,,,,,,,,,,,,,,,,,,,,,,,,,,49.757867542000895,0.0,False,49.758029417000216,293960,001,2024-07-02_08h56.26.691,5-29,2024.1.4,None,2024-07-02 08h56.31.879488 +0900,
Images/Speaker1.jpg,Images/Speaker2.jpg,Images/Speaker3.jpg,Images/Speaker4.jpg,Audio/Speaker1_Per/P1-13-Per.wav,Speaker1,گوینده ۱,2,53,213,12,,,,,76.92256729200017,,,,,,,,,,,,,,,,,,,,,,,,,,,,,,,,,,,,,,,,,49.77388633300143,0.0,False,49.774076792000415,293960,001,2024-07-02_08h56.26.691,5-29,2024.1.4,None,2024-07-02 08h56.31.879488 +0900,
Images/Speaker1.jpg,Images/Speaker2.jpg,Images/Speaker3.jpg,Images/Speaker4.jpg,Audio/Speaker3_Per/P3-1-Per.wav,Speaker3,گوینده۳,2,54,214,40,,,,,76.92256729200017,,,,,,,,,,,,,,,,,,,,,,,,,,,,,,,,,,,,,,,,,49.78988795799887,0.0,False,49.790062000000034,293960,001,2024-07-02_08h56.26.691,5-29,2024.1.4,None,2024-07-02 08h56.31.879488 +0900,
Images/Speaker1.jpg,Images/Speaker2.jpg,Images/Speaker3.jpg,Images/Speaker4.jpg,Audio/Speaker2_Per/P2-10-Per.wav,Speaker2,گوینده۲,2,55,215,29,,,,,76.92256729200017,,,,,,,,,,,,,,,,,,,,,,,,,,,,,,,,,,,,,,,,,49.806545792002,0.0,False,49.80670375000045,293960,001,2024-07-02_08h56.26.691,5-29,2024.1.4,None,2024-07-02 08h56.31.879488 +0900,
Images/Speaker1.jpg,Images/Speaker2.jpg,Images/Speaker3.jpg,Images/Speaker4.jpg,Audio/Speaker2_Per/P2-4-Per.wav,Speaker2,گوینده۲,2,56,216,23,,,,,76.92256729200017,,,,,,,,,,,,,,,,,,,,,,,,,,,,,,,,,,,,,,,,,49.82250683299935,0.0,False,49.822686250001425,293960,001,2024-07-02_08h56.26.691,5-29,2024.1.4,None,2024-07-02 08h56.31.879488 +0900,
Images/Speaker1.jpg,Images/Speaker2.jpg,Images/Speaker3.jpg,Images/Speaker4.jpg,Audio/Speaker1_Per/P1-5-Per.wav,Speaker1,گوینده ۱,2,57,217,4,,,,,76.92256729200017,,,,,,,,,,,,,,,,,,,,,,,,,,,,,,,,,,,,,,,,,49.83860104199994,0.0,False,49.83877208299964,293960,001,2024-07-02_08h56.26.691,5-29,2024.1.4,None,2024-07-02 08h56.31.879488 +0900,
Images/Speaker1.jpg,Images/Speaker2.jpg,Images/Speaker3.jpg,Images/Speaker4.jpg,Audio/Speaker3_Per/P3-20-Per.wav,Speaker3,گوینده۳,2,58,218,59,,,,,76.92256729200017,,,,,,,,,,,,,,,,,,,,,,,,,,,,,,,,,,,,,,,,,49.85465608300001,0.0,False,49.854866292000224,293960,001,2024-07-02_08h56.26.691,5-29,2024.1.4,None,2024-07-02 08h56.31.879488 +0900,
Images/Speaker1.jpg,Images/Speaker2.jpg,Images/Speaker3.jpg,Images/Speaker4.jpg,Audio/Speaker4_Per/P4-6-Per.wav,Speaker4,گوینده۴,2,59,219,65,,,,,76.92256729200017,,,,,,,,,,,,,,,,,,,,,,,,,,,,,,,,,,,,,,,,,49.87126529200032,0.0,False,49.871394958001474,293960,001,2024-07-02_08h56.26.691,5-29,2024.1.4,None,2024-07-02 08h56.31.879488 +0900,
Images/Speaker1.jpg,Images/Speaker2.jpg,Images/Speaker3.jpg,Images/Speaker4.jpg,Audio/Speaker2_Per/P2-20-Per.wav,Speaker2,گوینده۲,2,60,220,39,,,,,76.92256729200017,,,,,,,,,,,,,,,,,,,,,,,,,,,,,,,,,,,,,,,,,49.88717874999929,0.0,False,49.88734787499925,293960,001,2024-07-02_08h56.26.691,5-29,2024.1.4,None,2024-07-02 08h56.31.879488 +0900,
Images/Speaker1.jpg,Images/Speaker2.jpg,Images/Speaker3.jpg,Images/Speaker4.jpg,Audio/Speaker4_Per/P4-10-Per.wav,Speaker4,گوینده۴,2,61,221,69,,,,,76.92256729200017,,,,,,,,,,,,,,,,,,,,,,,,,,,,,,,,,,,,,,,,,49.903291167000134,0.0,False,49.90346625000166,293960,001,2024-07-02_08h56.26.691,5-29,2024.1.4,None,2024-07-02 08h56.31.879488 +0900,
Images/Speaker1.jpg,Images/Speaker2.jpg,Images/Speaker3.jpg,Images/Speaker4.jpg,Audio/Speaker3_Per/P3-11-Per.wav,Speaker3,گوینده۳,2,62,222,50,,,,,76.92256729200017,,,,,,,,,,,,,,,,,,,,,,,,,,,,,,,,,,,,,,,,,49.919305833002,0.0,False,49.91950625000027,293960,001,2024-07-02_08h56.26.691,5-29,2024.1.4,None,2024-07-02 08h56.31.879488 +0900,
Images/Speaker1.jpg,Images/Speaker2.jpg,Images/Speaker3.jpg,Images/Speaker4.jpg,Audio/Speaker3_Per/P3-5-Per.wav,Speaker3,گوینده۳,2,63,223,44,,,,,76.92256729200017,,,,,,,,,,,,,,,,,,,,,,,,,,,,,,,,,,,,,,,,,49.93596704200172,0.0,False,49.93614091700147,293960,001,2024-07-02_08h56.26.691,5-29,2024.1.4,None,2024-07-02 08h56.31.879488 +0900,
Images/Speaker1.jpg,Images/Speaker2.jpg,Images/Speaker3.jpg,Images/Speaker4.jpg,Audio/Speaker3_Per/P3-16-Per.wav,Speaker3,گوینده۳,2,64,224,55,,,,,76.92256729200017,,,,,,,,,,,,,,,,,,,,,,,,,,,,,,,,,,,,,,,,,49.952114957999584,0.0,False,49.952276125000935,293960,001,2024-07-02_08h56.26.691,5-29,2024.1.4,None,2024-07-02 08h56.31.879488 +0900,
Images/Speaker1.jpg,Images/Speaker2.jpg,Images/Speaker3.jpg,Images/Speaker4.jpg,Audio/Speaker2_Per/P2-13-Per.wav,Speaker2,گوینده۲,2,65,225,32,,,,,76.92256729200017,,,,,,,,,,,,,,,,,,,,,,,,,,,,,,,,,,,,,,,,,49.96828279200054,0.0,False,49.968449832998886,293960,001,2024-07-02_08h56.26.691,5-29,2024.1.4,None,2024-07-02 08h56.31.879488 +0900,
Images/Speaker1.jpg,Images/Speaker2.jpg,Images/Speaker3.jpg,Images/Speaker4.jpg,Audio/Speaker2_Per/P2-17-Per.wav,Speaker2,گوینده۲,2,66,226,36,,,,,76.92256729200017,,,,,,,,,,,,,,,,,,,,,,,,,,,,,,,,,,,,,,,,,49.98416658299902,0.0,False,49.984348417001456,293960,001,2024-07-02_08h56.26.691,5-29,2024.1.4,None,2024-07-02 08h56.31.879488 +0900,
Images/Speaker1.jpg,Images/Speaker2.jpg,Images/Speaker3.jpg,Images/Speaker4.jpg,Audio/Speaker1_Per/P1-11-Per.wav,Speaker1,گوینده ۱,2,67,227,10,,,,,76.92256729200017,,,,,,,,,,,,,,,,,,,,,,,,,,,,,,,,,,,,,,,,,50.00077537499965,0.0,False,50.00093808300153,293960,001,2024-07-02_08h56.26.691,5-29,2024.1.4,None,2024-07-02 08h56.31.879488 +0900,
Images/Speaker1.jpg,Images/Speaker2.jpg,Images/Speaker3.jpg,Images/Speaker4.jpg,Audio/Speaker1_Per/P1-4-Per.wav,Speaker1,گوینده ۱,2,68,228,13,,,,,76.92256729200017,,,,,,,,,,,,,,,,,,,,,,,,,,,,,,,,,,,,,,,,,50.016781792000984,0.0,False,50.016964458001894,293960,001,2024-07-02_08h56.26.691,5-29,2024.1.4,None,2024-07-02 08h56.31.879488 +0900,
Images/Speaker1.jpg,Images/Speaker2.jpg,Images/Speaker3.jpg,Images/Speaker4.jpg,Audio/Speaker3_Per/P3-6-Per.wav,Speaker3,گوینده۳,2,69,229,45,,,,,76.92256729200017,,,,,,,,,,,,,,,,,,,,,,,,,,,,,,,,,,,,,,,,,50.032760958001745,0.0,False,50.03292225000041,293960,001,2024-07-02_08h56.26.691,5-29,2024.1.4,None,2024-07-02 08h56.31.879488 +0900,
Images/Speaker1.jpg,Images/Speaker2.jpg,Images/Speaker3.jpg,Images/Speaker4.jpg,Audio/Speaker3_Per/P3-15-Per.wav,Speaker3,گوینده۳,2,70,230,54,,,,,76.92256729200017,,,,,,,,,,,,,,,,,,,,,,,,,,,,,,,,,,,,,,,,,50.048783917001856,0.0,False,50.048941958000796,293960,001,2024-07-02_08h56.26.691,5-29,2024.1.4,None,2024-07-02 08h56.31.879488 +0900,
Images/Speaker1.jpg,Images/Speaker2.jpg,Images/Speaker3.jpg,Images/Speaker4.jpg,Audio/Speaker1_Per/P1-1-Per.wav,Speaker1,گوینده ۱,2,71,231,0,,,,,76.92256729200017,,,,,,,,,,,,,,,,,,,,,,,,,,,,,,,,,,,,,,,,,50.065424249998614,0.0,False,50.06559808300153,293960,001,2024-07-02_08h56.26.691,5-29,2024.1.4,None,2024-07-02 08h56.31.879488 +0900,
Images/Speaker1.jpg,Images/Speaker2.jpg,Images/Speaker3.jpg,Images/Speaker4.jpg,Audio/Speaker2_Per/P2-5-Per.wav,Speaker2,گوینده۲,2,72,232,24,,,,,76.92256729200017,,,,,,,,,,,,,,,,,,,,,,,,,,,,,,,,,,,,,,,,,50.08144445799917,0.0,False,50.08160833299917,293960,001,2024-07-02_08h56.26.691,5-29,2024.1.4,None,2024-07-02 08h56.31.879488 +0900,
Images/Speaker1.jpg,Images/Speaker2.jpg,Images/Speaker3.jpg,Images/Speaker4.jpg,Audio/Speaker3_Per/P3-12-Per.wav,Speaker3,گوینده۳,2,73,233,51,,,,,76.92256729200017,,,,,,,,,,,,,,,,,,,,,,,,,,,,,,,,,,,,,,,,,50.097459374999744,0.0,False,50.097672791998775,293960,001,2024-07-02_08h56.26.691,5-29,2024.1.4,None,2024-07-02 08h56.31.879488 +0900,
Images/Speaker1.jpg,Images/Speaker2.jpg,Images/Speaker3.jpg,Images/Speaker4.jpg,Audio/Speaker3_Per/P3-13-Per.wav,Speaker3,گوینده۳,2,74,234,52,,,,,76.92256729200017,,,,,,,,,,,,,,,,,,,,,,,,,,,,,,,,,,,,,,,,,50.11355995800113,0.0,False,50.11376495800141,293960,001,2024-07-02_08h56.26.691,5-29,2024.1.4,None,2024-07-02 08h56.31.879488 +0900,
Images/Speaker1.jpg,Images/Speaker2.jpg,Images/Speaker3.jpg,Images/Speaker4.jpg,Audio/Speaker4_Per/P4-4-Per.wav,Speaker4,گوینده۴,2,75,235,63,,,,,76.92256729200017,,,,,,,,,,,,,,,,,,,,,,,,,,,,,,,,,,,,,,,,,50.13028262499938,0.0,False,50.13044529200124,293960,001,2024-07-02_08h56.26.691,5-29,2024.1.4,None,2024-07-02 08h56.31.879488 +0900,
Images/Speaker1.jpg,Images/Speaker2.jpg,Images/Speaker3.jpg,Images/Speaker4.jpg,Audio/Speaker1_Per/P1-8-Per.wav,Speaker1,گوینده ۱,2,76,236,7,,,,,76.92256729200017,,,,,,,,,,,,,,,,,,,,,,,,,,,,,,,,,,,,,,,,,50.14650495800015,0.0,False,50.14670445799857,293960,001,2024-07-02_08h56.26.691,5-29,2024.1.4,None,2024-07-02 08h56.31.879488 +0900,
Images/Speaker1.jpg,Images/Speaker2.jpg,Images/Speaker3.jpg,Images/Speaker4.jpg,Audio/Speaker1_Per/P1-9-Per.wav,Speaker1,گوینده ۱,2,77,237,8,,,,,76.92256729200017,,,,,,,,,,,,,,,,,,,,,,,,,,,,,,,,,,,,,,,,,50.16236395799933,0.0,False,50.16259404200173,293960,001,2024-07-02_08h56.26.691,5-29,2024.1.4,None,2024-07-02 08h56.31.879488 +0900,
Images/Speaker1.jpg,Images/Speaker2.jpg,Images/Speaker3.jpg,Images/Speaker4.jpg,Audio/Speaker4_Per/P4-16-Per.wav,Speaker4,گوینده۴,2,78,238,75,,,,,76.92256729200017,,,,,,,,,,,,,,,,,,,,,,,,,,,,,,,,,,,,,,,,,50.1783980830005,0.0,False,50.178567541999655,293960,001,2024-07-02_08h56.26.691,5-29,2024.1.4,None,2024-07-02 08h56.31.879488 +0900,
Images/Speaker1.jpg,Images/Speaker2.jpg,Images/Speaker3.jpg,Images/Speaker4.jpg,Audio/Speaker3_Per/P3-19-Per.wav,Speaker3,گوینده۳,2,79,239,58,,,,,76.92256729200017,,,,,,,,,,,,,,,,,,,,,,,,,,,,,,,,,,,,,,,,,50.195097625000926,0.0,False,50.19525729200177,293960,001,2024-07-02_08h56.26.691,5-29,2024.1.4,None,2024-07-02 08h56.31.879488 +0900,
Images/Speaker1.jpg,Images/Speaker2.jpg,Images/Speaker3.jpg,Images/Speaker4.jpg,Audio/Speaker1_Per/P1-1-Per.wav,Speaker1,گوینده ۱,3,0,240,0,,,,,76.92256729200017,,,,,,,,,,,,,,,,,,,,,,,,,,,,,,,,,,,,,,,,,50.21088349999991,0.0,False,50.211048583001684,293960,001,2024-07-02_08h56.26.691,5-29,2024.1.4,None,2024-07-02 08h56.31.879488 +0900,
Images/Speaker1.jpg,Images/Speaker2.jpg,Images/Speaker3.jpg,Images/Speaker4.jpg,Audio/Speaker2_Per/P2-12-Per.wav,Speaker2,گوینده۲,3,1,241,31,,,,,76.92256729200017,,,,,,,,,,,,,,,,,,,,,,,,,,,,,,,,,,,,,,,,,50.2268811670001,0.0,False,50.22705520800082,293960,001,2024-07-02_08h56.26.691,5-29,2024.1.4,None,2024-07-02 08h56.31.879488 +0900,
Images/Speaker1.jpg,Images/Speaker2.jpg,Images/Speaker3.jpg,Images/Speaker4.jpg,Audio/Speaker1_Per/P1-9-Per.wav,Speaker1,گوینده ۱,3,2,242,8,,,,,76.92256729200017,,,,,,,,,,,,,,,,,,,,,,,,,,,,,,,,,,,,,,,,,50.24283741700128,0.0,False,50.243050749999384,293960,001,2024-07-02_08h56.26.691,5-29,2024.1.4,None,2024-07-02 08h56.31.879488 +0900,
Images/Speaker1.jpg,Images/Speaker2.jpg,Images/Speaker3.jpg,Images/Speaker4.jpg,Audio/Speaker2_Per/P2-4-Per.wav,Speaker2,گوینده۲,3,3,243,23,,,,,76.92256729200017,,,,,,,,,,,,,,,,,,,,,,,,,,,,,,,,,,,,,,,,,50.25933370799976,0.0,False,50.2594929170009,293960,001,2024-07-02_08h56.26.691,5-29,2024.1.4,None,2024-07-02 08h56.31.879488 +0900,
Images/Speaker1.jpg,Images/Speaker2.jpg,Images/Speaker3.jpg,Images/Speaker4.jpg,Audio/Speaker3_Per/P3-20-Per.wav,Speaker3,گوینده۳,3,4,244,59,,,,,76.92256729200017,,,,,,,,,,,,,,,,,,,,,,,,,,,,,,,,,,,,,,,,,50.275324458001705,0.0,False,50.2754915000005,293960,001,2024-07-02_08h56.26.691,5-29,2024.1.4,None,2024-07-02 08h56.31.879488 +0900,
Images/Speaker1.jpg,Images/Speaker2.jpg,Images/Speaker3.jpg,Images/Speaker4.jpg,Audio/Speaker4_Per/P4-5-Per.wav,Speaker4,گوینده۴,3,5,245,64,,,,,76.92256729200017,,,,,,,,,,,,,,,,,,,,,,,,,,,,,,,,,,,,,,,,,50.29136720799943,0.0,False,50.29153820799911,293960,001,2024-07-02_08h56.26.691,5-29,2024.1.4,None,2024-07-02 08h56.31.879488 +0900,
Images/Speaker1.jpg,Images/Speaker2.jpg,Images/Speaker3.jpg,Images/Speaker4.jpg,Audio/Speaker3_Per/P3-16-Per.wav,Speaker3,گوینده۳,3,6,246,55,,,,,76.92256729200017,,,,,,,,,,,,,,,,,,,,,,,,,,,,,,,,,,,,,,,,,50.3074163329984,0.0,False,50.307593624998844,293960,001,2024-07-02_08h56.26.691,5-29,2024.1.4,None,2024-07-02 08h56.31.879488 +0900,
Images/Speaker1.jpg,Images/Speaker2.jpg,Images/Speaker3.jpg,Images/Speaker4.jpg,Audio/Speaker3_Per/P3-17-Per.wav,Speaker3,گوینده۳,3,7,247,56,,,,,76.92256729200017,,,,,,,,,,,,,,,,,,,,,,,,,,,,,,,,,,,,,,,,,50.32403999999951,0.0,False,50.3242084170015,293960,001,2024-07-02_08h56.26.691,5-29,2024.1.4,None,2024-07-02 08h56.31.879488 +0900,
Images/Speaker1.jpg,Images/Speaker2.jpg,Images/Speaker3.jpg,Images/Speaker4.jpg,Audio/Speaker4_Per/P4-4-Per.wav,Speaker4,گوینده۴,3,8,248,63,,,,,76.92256729200017,,,,,,,,,,,,,,,,,,,,,,,,,,,,,,,,,,,,,,,,,50.339964750000945,0.0,False,50.34012266699938,293960,001,2024-07-02_08h56.26.691,5-29,2024.1.4,None,2024-07-02 08h56.31.879488 +0900,
Images/Speaker1.jpg,Images/Speaker2.jpg,Images/Speaker3.jpg,Images/Speaker4.jpg,Audio/Speaker2_Per/P2-15-Per.wav,Speaker2,گوینده۲,3,9,249,34,,,,,76.92256729200017,,,,,,,,,,,,,,,,,,,,,,,,,,,,,,,,,,,,,,,,,50.3560663749995,0.0,False,50.35623108299842,293960,001,2024-07-02_08h56.26.691,5-29,2024.1.4,None,2024-07-02 08h56.31.879488 +0900,
Images/Speaker1.jpg,Images/Speaker2.jpg,Images/Speaker3.jpg,Images/Speaker4.jpg,Audio/Speaker3_Per/P3-11-Per.wav,Speaker3,گوینده۳,3,10,250,50,,,,,76.92256729200017,,,,,,,,,,,,,,,,,,,,,,,,,,,,,,,,,,,,,,,,,50.37200033300178,0.0,False,50.37217079200127,293960,001,2024-07-02_08h56.26.691,5-29,2024.1.4,None,2024-07-02 08h56.31.879488 +0900,
Images/Speaker1.jpg,Images/Speaker2.jpg,Images/Speaker3.jpg,Images/Speaker4.jpg,Audio/Speaker4_Per/P4-10-Per.wav,Speaker4,گوینده۴,3,11,251,69,,,,,76.92256729200017,,,,,,,,,,,,,,,,,,,,,,,,,,,,,,,,,,,,,,,,,50.388686792000954,0.0,False,50.38885433299947,293960,001,2024-07-02_08h56.26.691,5-29,2024.1.4,None,2024-07-02 08h56.31.879488 +0900,
Images/Speaker1.jpg,Images/Speaker2.jpg,Images/Speaker3.jpg,Images/Speaker4.jpg,Audio/Speaker2_Per/P2-14-Per.wav,Speaker2,گوینده۲,3,12,252,33,,,,,76.92256729200017,,,,,,,,,,,,,,,,,,,,,,,,,,,,,,,,,,,,,,,,,50.40470212500077,0.0,False,50.40488912499859,293960,001,2024-07-02_08h56.26.691,5-29,2024.1.4,None,2024-07-02 08h56.31.879488 +0900,
Images/Speaker1.jpg,Images/Speaker2.jpg,Images/Speaker3.jpg,Images/Speaker4.jpg,Audio/Speaker2_Per/P2-17-Per.wav,Speaker2,گوینده۲,3,13,253,36,,,,,76.92256729200017,,,,,,,,,,,,,,,,,,,,,,,,,,,,,,,,,,,,,,,,,50.42074312499972,0.0,False,50.420919583000796,293960,001,2024-07-02_08h56.26.691,5-29,2024.1.4,None,2024-07-02 08h56.31.879488 +0900,
Images/Speaker1.jpg,Images/Speaker2.jpg,Images/Speaker3.jpg,Images/Speaker4.jpg,Audio/Speaker3_Per/P3-7-Per.wav,Speaker3,گوینده۳,3,14,254,46,,,,,76.92256729200017,,,,,,,,,,,,,,,,,,,,,,,,,,,,,,,,,,,,,,,,,50.43684991700138,0.0,False,50.43702704200041,293960,001,2024-07-02_08h56.26.691,5-29,2024.1.4,None,2024-07-02 08h56.31.879488 +0900,
Images/Speaker1.jpg,Images/Speaker2.jpg,Images/Speaker3.jpg,Images/Speaker4.jpg,Audio/Speaker2_Per/P2-16-Per.wav,Speaker2,گوینده۲,3,15,255,35,,,,,76.92256729200017,,,,,,,,,,,,,,,,,,,,,,,,,,,,,,,,,,,,,,,,,50.45343199999843,0.0,False,50.453586457999336,293960,001,2024-07-02_08h56.26.691,5-29,2024.1.4,None,2024-07-02 08h56.31.879488 +0900,
Images/Speaker1.jpg,Images/Speaker2.jpg,Images/Speaker3.jpg,Images/Speaker4.jpg,Audio/Speaker4_Per/P4-13-Per.wav,Speaker4,گوینده۴,3,16,256,72,,,,,76.92256729200017,,,,,,,,,,,,,,,,,,,,,,,,,,,,,,,,,,,,,,,,,50.469398917000944,0.0,False,50.46956854200107,293960,001,2024-07-02_08h56.26.691,5-29,2024.1.4,None,2024-07-02 08h56.31.879488 +0900,
Images/Speaker1.jpg,Images/Speaker2.jpg,Images/Speaker3.jpg,Images/Speaker4.jpg,Audio/Speaker4_Per/P4-9-Per.wav,Speaker4,گوینده۴,3,17,257,68,,,,,76.92256729200017,,,,,,,,,,,,,,,,,,,,,,,,,,,,,,,,,,,,,,,,,50.48539429200173,0.0,False,50.48556529200141,293960,001,2024-07-02_08h56.26.691,5-29,2024.1.4,None,2024-07-02 08h56.31.879488 +0900,
Images/Speaker1.jpg,Images/Speaker2.jpg,Images/Speaker3.jpg,Images/Speaker4.jpg,Audio/Speaker4_Per/P4-8-Per.wav,Speaker4,گوینده۴,3,18,258,67,,,,,76.92256729200017,,,,,,,,,,,,,,,,,,,,,,,,,,,,,,,,,,,,,,,,,50.50143987499905,0.0,False,50.50163145799888,293960,001,2024-07-02_08h56.26.691,5-29,2024.1.4,None,2024-07-02 08h56.31.879488 +0900,
Images/Speaker1.jpg,Images/Speaker2.jpg,Images/Speaker3.jpg,Images/Speaker4.jpg,Audio/Speaker1_Per/P1-19-Per.wav,Speaker1,گوینده ۱,3,19,259,18,,,,,76.92256729200017,,,,,,,,,,,,,,,,,,,,,,,,,,,,,,,,,,,,,,,,,50.51820283300185,0.0,False,50.51836720800202,293960,001,2024-07-02_08h56.26.691,5-29,2024.1.4,None,2024-07-02 08h56.31.879488 +0900,
Images/Speaker1.jpg,Images/Speaker2.jpg,Images/Speaker3.jpg,Images/Speaker4.jpg,Audio/Speaker2_Per/P2-6-Per.wav,Speaker2,گوینده۲,3,20,260,25,,,,,76.92256729200017,,,,,,,,,,,,,,,,,,,,,,,,,,,,,,,,,,,,,,,,,50.534258750001754,0.0,False,50.53442983300192,293960,001,2024-07-02_08h56.26.691,5-29,2024.1.4,None,2024-07-02 08h56.31.879488 +0900,
Images/Speaker1.jpg,Images/Speaker2.jpg,Images/Speaker3.jpg,Images/Speaker4.jpg,Audio/Speaker1_Per/P1-4-Per.wav,Speaker1,گوینده ۱,3,21,261,13,,,,,76.92256729200017,,,,,,,,,,,,,,,,,,,,,,,,,,,,,,,,,,,,,,,,,50.55025745799867,0.0,False,50.550414917001035,293960,001,2024-07-02_08h56.26.691,5-29,2024.1.4,None,2024-07-02 08h56.31.879488 +0900,
Images/Speaker1.jpg,Images/Speaker2.jpg,Images/Speaker3.jpg,Images/Speaker4.jpg,Audio/Speaker2_Per/P2-18-Per.wav,Speaker2,گوینده۲,3,22,262,37,,,,,76.92256729200017,,,,,,,,,,,,,,,,,,,,,,,,,,,,,,,,,,,,,,,,,50.5662037080001,0.0,False,50.56635579200156,293960,001,2024-07-02_08h56.26.691,5-29,2024.1.4,None,2024-07-02 08h56.31.879488 +0900,
Images/Speaker1.jpg,Images/Speaker2.jpg,Images/Speaker3.jpg,Images/Speaker4.jpg,Audio/Speaker2_Per/P2-7-Per.wav,Speaker2,گوینده۲,3,23,263,26,,,,,76.92256729200017,,,,,,,,,,,,,,,,,,,,,,,,,,,,,,,,,,,,,,,,,50.58287387499877,0.0,False,50.583072000001266,293960,001,2024-07-02_08h56.26.691,5-29,2024.1.4,None,2024-07-02 08h56.31.879488 +0900,
Images/Speaker1.jpg,Images/Speaker2.jpg,Images/Speaker3.jpg,Images/Speaker4.jpg,Audio/Speaker2_Per/P2-2-Per.wav,Speaker2,گوینده۲,3,24,264,21,,,,,76.92256729200017,,,,,,,,,,,,,,,,,,,,,,,,,,,,,,,,,,,,,,,,,50.598762333000195,0.0,False,50.5989212079985,293960,001,2024-07-02_08h56.26.691,5-29,2024.1.4,None,2024-07-02 08h56.31.879488 +0900,
Images/Speaker1.jpg,Images/Speaker2.jpg,Images/Speaker3.jpg,Images/Speaker4.jpg,Audio/Speaker1_Per/P1-16-Per.wav,Speaker1,گوینده ۱,3,25,265,15,,,,,76.92256729200017,,,,,,,,,,,,,,,,,,,,,,,,,,,,,,,,,,,,,,,,,50.614721166999516,0.0,False,50.614886708000995,293960,001,2024-07-02_08h56.26.691,5-29,2024.1.4,None,2024-07-02 08h56.31.879488 +0900,
Images/Speaker1.jpg,Images/Speaker2.jpg,Images/Speaker3.jpg,Images/Speaker4.jpg,Audio/Speaker3_Per/P3-3-Per.wav,Speaker3,گوینده۳,3,26,266,42,,,,,76.92256729200017,,,,,,,,,,,,,,,,,,,,,,,,,,,,,,,,,,,,,,,,,50.63077699999849,0.0,False,50.631020875000104,293960,001,2024-07-02_08h56.26.691,5-29,2024.1.4,None,2024-07-02 08h56.31.879488 +0900,
Images/Speaker1.jpg,Images/Speaker2.jpg,Images/Speaker3.jpg,Images/Speaker4.jpg,Audio/Speaker2_Per/P2-19-Per.wav,Speaker2,گوینده۲,3,27,267,38,,,,,76.92256729200017,,,,,,,,,,,,,,,,,,,,,,,,,,,,,,,,,,,,,,,,,50.647522667000885,0.0,False,50.6477009170012,293960,001,2024-07-02_08h56.26.691,5-29,2024.1.4,None,2024-07-02 08h56.31.879488 +0900,
Images/Speaker1.jpg,Images/Speaker2.jpg,Images/Speaker3.jpg,Images/Speaker4.jpg,Audio/Speaker1_Per/P1-11-Per.wav,Speaker1,گوینده ۱,3,28,268,10,,,,,76.92256729200017,,,,,,,,,,,,,,,,,,,,,,,,,,,,,,,,,,,,,,,,,50.66364800000156,0.0,False,50.663824499999464,293960,001,2024-07-02_08h56.26.691,5-29,2024.1.4,None,2024-07-02 08h56.31.879488 +0900,
Images/Speaker1.jpg,Images/Speaker2.jpg,Images/Speaker3.jpg,Images/Speaker4.jpg,Audio/Speaker3_Per/P3-9-Per.wav,Speaker3,گوینده۳,3,29,269,48,,,,,76.92256729200017,,,,,,,,,,,,,,,,,,,,,,,,,,,,,,,,,,,,,,,,,50.6795788749987,0.0,False,50.67978820799908,293960,001,2024-07-02_08h56.26.691,5-29,2024.1.4,None,2024-07-02 08h56.31.879488 +0900,
Images/Speaker1.jpg,Images/Speaker2.jpg,Images/Speaker3.jpg,Images/Speaker4.jpg,Audio/Speaker2_Per/P2-11-Per.wav,Speaker2,گوینده۲,3,30,270,30,,,,,76.92256729200017,,,,,,,,,,,,,,,,,,,,,,,,,,,,,,,,,,,,,,,,,50.69564279200131,0.0,False,50.69583950000015,293960,001,2024-07-02_08h56.26.691,5-29,2024.1.4,None,2024-07-02 08h56.31.879488 +0900,
Images/Speaker1.jpg,Images/Speaker2.jpg,Images/Speaker3.jpg,Images/Speaker4.jpg,Audio/Speaker4_Per/P4-11-Per.wav,Speaker4,گوینده۴,3,31,271,70,,,,,76.92256729200017,,,,,,,,,,,,,,,,,,,,,,,,,,,,,,,,,,,,,,,,,50.71223820800151,0.0,False,50.71239570800026,293960,001,2024-07-02_08h56.26.691,5-29,2024.1.4,None,2024-07-02 08h56.31.879488 +0900,
Images/Speaker1.jpg,Images/Speaker2.jpg,Images/Speaker3.jpg,Images/Speaker4.jpg,Audio/Speaker2_Per/P2-20-Per.wav,Speaker2,گوینده۲,3,32,272,39,,,,,76.92256729200017,,,,,,,,,,,,,,,,,,,,,,,,,,,,,,,,,,,,,,,,,50.72821775000193,0.0,False,50.72837937499935,293960,001,2024-07-02_08h56.26.691,5-29,2024.1.4,None,2024-07-02 08h56.31.879488 +0900,
Images/Speaker1.jpg,Images/Speaker2.jpg,Images/Speaker3.jpg,Images/Speaker4.jpg,Audio/Speaker3_Per/P3-4-Per.wav,Speaker3,گوینده۳,3,33,273,43,,,,,76.92256729200017,,,,,,,,,,,,,,,,,,,,,,,,,,,,,,,,,,,,,,,,,50.74428524999894,0.0,False,50.74446362500021,293960,001,2024-07-02_08h56.26.691,5-29,2024.1.4,None,2024-07-02 08h56.31.879488 +0900,
Images/Speaker1.jpg,Images/Speaker2.jpg,Images/Speaker3.jpg,Images/Speaker4.jpg,Audio/Speaker4_Per/P4-3-Per.wav,Speaker4,گوینده۴,3,34,274,62,,,,,76.92256729200017,,,,,,,,,,,,,,,,,,,,,,,,,,,,,,,,,,,,,,,,,50.760303416998795,0.0,False,50.76047908300097,293960,001,2024-07-02_08h56.26.691,5-29,2024.1.4,None,2024-07-02 08h56.31.879488 +0900,
Images/Speaker1.jpg,Images/Speaker2.jpg,Images/Speaker3.jpg,Images/Speaker4.jpg,Audio/Speaker1_Per/P1-4-Per.wav,Speaker1,گوینده ۱,3,35,275,3,,,,,76.92256729200017,,,,,,,,,,,,,,,,,,,,,,,,,,,,,,,,,,,,,,,,,50.77696495800046,0.0,False,50.77712362500097,293960,001,2024-07-02_08h56.26.691,5-29,2024.1.4,None,2024-07-02 08h56.31.879488 +0900,
Images/Speaker1.jpg,Images/Speaker2.jpg,Images/Speaker3.jpg,Images/Speaker4.jpg,Audio/Speaker3_Per/P3-8-Per.wav,Speaker3,گوینده۳,3,36,276,47,,,,,76.92256729200017,,,,,,,,,,,,,,,,,,,,,,,,,,,,,,,,,,,,,,,,,50.84382041700155,0.0,False,50.84407887500129,293960,001,2024-07-02_08h56.26.691,5-29,2024.1.4,None,2024-07-02 08h56.31.879488 +0900,
Images/Speaker1.jpg,Images/Speaker2.jpg,Images/Speaker3.jpg,Images/Speaker4.jpg,Audio/Speaker1_Per/P1-20-Per.wav,Speaker1,گوینده ۱,3,37,277,19,,,,,76.92256729200017,,,,,,,,,,,,,,,,,,,,,,,,,,,,,,,,,,,,,,,,,50.86032770800011,0.0,False,50.860502750001615,293960,001,2024-07-02_08h56.26.691,5-29,2024.1.4,None,2024-07-02 08h56.31.879488 +0900,
Images/Speaker1.jpg,Images/Speaker2.jpg,Images/Speaker3.jpg,Images/Speaker4.jpg,Audio/Speaker2_Per/P2-5-Per.wav,Speaker2,گوینده۲,3,38,278,24,,,,,76.92256729200017,,,,,,,,,,,,,,,,,,,,,,,,,,,,,,,,,,,,,,,,,50.87658804199964,0.0,False,50.8767576249993,293960,001,2024-07-02_08h56.26.691,5-29,2024.1.4,None,2024-07-02 08h56.31.879488 +0900,
Images/Speaker1.jpg,Images/Speaker2.jpg,Images/Speaker3.jpg,Images/Speaker4.jpg,Audio/Speaker3_Per/P3-14-Per.wav,Speaker3,گوینده۳,3,39,279,53,,,,,76.92256729200017,,,,,,,,,,,,,,,,,,,,,,,,,,,,,,,,,,,,,,,,,50.89308520800114,0.0,False,50.89324962500177,293960,001,2024-07-02_08h56.26.691,5-29,2024.1.4,None,2024-07-02 08h56.31.879488 +0900,
Images/Speaker1.jpg,Images/Speaker2.jpg,Images/Speaker3.jpg,Images/Speaker4.jpg,Audio/Speaker2_Per/P2-13-Per.wav,Speaker2,گوینده۲,3,40,280,32,,,,,76.92256729200017,,,,,,,,,,,,,,,,,,,,,,,,,,,,,,,,,,,,,,,,,50.90913524999996,0.0,False,50.90931733300022,293960,001,2024-07-02_08h56.26.691,5-29,2024.1.4,None,2024-07-02 08h56.31.879488 +0900,
Images/Speaker1.jpg,Images/Speaker2.jpg,Images/Speaker3.jpg,Images/Speaker4.jpg,Audio/Speaker4_Per/P4-1-Per.wav,Speaker4,گوینده۴,3,41,281,60,,,,,76.92256729200017,,,,,,,,,,,,,,,,,,,,,,,,,,,,,,,,,,,,,,,,,50.92521662500076,0.0,False,50.925385957998515,293960,001,2024-07-02_08h56.26.691,5-29,2024.1.4,None,2024-07-02 08h56.31.879488 +0900,
Images/Speaker1.jpg,Images/Speaker2.jpg,Images/Speaker3.jpg,Images/Speaker4.jpg,Audio/Speaker4_Per/P4-20-Per.wav,Speaker4,گوینده۴,3,42,282,79,,,,,76.92256729200017,,,,,,,,,,,,,,,,,,,,,,,,,,,,,,,,,,,,,,,,,50.94179954200081,0.0,False,50.94198429199969,293960,001,2024-07-02_08h56.26.691,5-29,2024.1.4,None,2024-07-02 08h56.31.879488 +0900,
Images/Speaker1.jpg,Images/Speaker2.jpg,Images/Speaker3.jpg,Images/Speaker4.jpg,Audio/Speaker2_Per/P2-8-Per.wav,Speaker2,گوینده۲,3,43,283,27,,,,,76.92256729200017,,,,,,,,,,,,,,,,,,,,,,,,,,,,,,,,,,,,,,,,,50.95788425000137,0.0,False,50.95804045800105,293960,001,2024-07-02_08h56.26.691,5-29,2024.1.4,None,2024-07-02 08h56.31.879488 +0900,
Images/Speaker1.jpg,Images/Speaker2.jpg,Images/Speaker3.jpg,Images/Speaker4.jpg,Audio/Speaker4_Per/P4-19-Per.wav,Speaker4,گوینده۴,3,44,284,78,,,,,76.92256729200017,,,,,,,,,,,,,,,,,,,,,,,,,,,,,,,,,,,,,,,,,50.97385787500025,0.0,False,50.97406816700095,293960,001,2024-07-02_08h56.26.691,5-29,2024.1.4,None,2024-07-02 08h56.31.879488 +0900,
Images/Speaker1.jpg,Images/Speaker2.jpg,Images/Speaker3.jpg,Images/Speaker4.jpg,Audio/Speaker3_Per/P3-15-Per.wav,Speaker3,گوینده۳,3,45,285,54,,,,,76.92256729200017,,,,,,,,,,,,,,,,,,,,,,,,,,,,,,,,,,,,,,,,,50.989973374998954,0.0,False,50.99013449999984,293960,001,2024-07-02_08h56.26.691,5-29,2024.1.4,None,2024-07-02 08h56.31.879488 +0900,
Images/Speaker1.jpg,Images/Speaker2.jpg,Images/Speaker3.jpg,Images/Speaker4.jpg,Audio/Speaker4_Per/P4-14-Per.wav,Speaker4,گوینده۴,3,46,286,73,,,,,76.92256729200017,,,,,,,,,,,,,,,,,,,,,,,,,,,,,,,,,,,,,,,,,51.00668604200109,0.0,False,51.00685745800001,293960,001,2024-07-02_08h56.26.691,5-29,2024.1.4,None,2024-07-02 08h56.31.879488 +0900,
Images/Speaker1.jpg,Images/Speaker2.jpg,Images/Speaker3.jpg,Images/Speaker4.jpg,Audio/Speaker1_Per/P1-5-Per.wav,Speaker1,گوینده ۱,3,47,287,4,,,,,76.92256729200017,,,,,,,,,,,,,,,,,,,,,,,,,,,,,,,,,,,,,,,,,51.02268320800067,0.0,False,51.022863917001814,293960,001,2024-07-02_08h56.26.691,5-29,2024.1.4,None,2024-07-02 08h56.31.879488 +0900,
