SpeakerImage1,SpeakerImage2,SpeakerImage3,SpeakerImage4,TrainingSound,EnglishCorrectAnswer,PersianCorrectAnswer,TrainingLoopGroup1.thisRepN,TrainingLoopGroup1.thisTrialN,TrainingLoopGroup1.thisN,TrainingLoopGroup1.thisIndex,TrainingLoopGroup2.thisRepN,TrainingLoopGroup2.thisTrialN,TrainingLoopGroup2.thisN,TrainingLoopGroup2.thisIndex,TrainingLoopGroup3.thisRepN,TrainingLoopGroup3.thisTrialN,TrainingLoopGroup3.thisN,TrainingLoopGroup3.thisIndex,testPhase1Loop.thisRepN,testPhase1Loop.thisTrialN,testPhase1Loop.thisN,testPhase1Loop.thisIndex,SpeakerPhoto1,SpeakerPhoto2,SpeakerPhoto3,SpeakerPhoto4,TestingSound,EnglishCorrectResponse,PersianCorrectResponse,thisRow.t,notes,trial.started,trial.stopped,GroupSelection.started,GroupInstructions.started,key_resp.started,GroupSelection.stopped,key_resp.keys,key_resp.rt,key_resp.duration,Introduction.started,text_2.started,image.started,sound_7.started,text_4.started,text_2.stopped,sound_8.started,image.stopped,text_4.stopped,image_7.started,sound_9.started,text_5.started,sound_10.started,image_7.stopped,text_5.stopped,image_8.started,sound_11.started,text_6.started,sound_12.started,image_8.stopped,text_6.stopped,image_9.started,sound_13.started,text_7.started,sound_14.started,image_9.stopped,text_7.stopped,Introduction.stopped,Instructions.started,InstructionText.started,InstructionText.stopped,Instructions.stopped,InitializeExperiment.started,InitializeExperiment.stopped,TrainingGroup3.started,SpeakerPicture3.started,image_15.started,image_16.started,image_17.started,Sound3.started,Instruction3.started,Response3.started,TrainingGroup3.stopped,feedbackText,Response3.keys,Response3.rt,Response3.duration,correct_responses,total_trials,FeedbackRoutine3.started,FeedbackText3.started,FeedbackRoutine3.stopped,FeedbackText3.stopped,TransitionRoutine.started,TransitionRoutine.stopped,nextRoutine,TestPhase1.started,WelcomeTest1.started,test1_image1.started,test1_image2.started,test1_image3.started,test1_image4.started,test1_sound.started,text_3.started,Test1_response.started,TestPhase1.stopped,Test1_response.keys,Test1_response.rt,Test1_response.duration,participant,session,date,expName,psychopyVersion,frameRate,expStart,
,,,,,,,,,,,,,,,,,,,,,,,,,,,,,,,,0.010854000021936372,0.011180125002283603,,,,,,,,,,,,,,,,,,,,,,,,,,,,,,,,,,,,,,,,,,,,,,,,,,,,,,,,,,,,,,,,,,,,,,,,,,,,,296511,001,2024-06-28_11h27.18.912,5-20,2024.1.4,None,2024-06-28 11h27.23.985180 +0900,
,,,,,,,,,,,,,,,,,,,,,,,,,,,,,,,,,,0.011197000014362857,0.023409041023114696,0.023409041023114696,1.4076432910223957,3,1.3483657499891706,None,,,,,,,,,,,,,,,,,,,,,,,,,,,,,,,,,,,,,,,,,,,,,,,,,,,,,,,,,,,,,,,,,,,,,,296511,001,2024-06-28_11h27.18.912,5-20,2024.1.4,None,2024-06-28 11h27.23.985180 +0900,
,,,,,,,,,,,,,,,,,,,,,,,,,,,,,,,,,,,,,,,,,1.407677875016816,1.4691325410094578,6.415324541012524,6.411592124674159,6.415324541012524,6.462195916014025,11.414382999679463,16.406231541011948,16.406231541011948,16.406231541011948,16.414988291686555,16.406231541011948,21.414601749686213,26.405166333017405,26.405166333017405,26.405166333017405,26.415579666678482,26.405166333017405,31.410278791682018,36.401783000008436,36.401783000008436,36.401783000008436,36.412270749690165,36.401783000008436,41.41717599967184,46.389649166027084,46.389649166027084,46.385534916014876,,,,,,,,,,,,,,,,,,,,,,,,,,,,,,,,,,,,,,,,,,296511,001,2024-06-28_11h27.18.912,5-20,2024.1.4,None,2024-06-28 11h27.23.985180 +0900,
,,,,,,,,,,,,,,,,,,,,,,,,,,,,,,,,,,,,,,,,,,,,,,,,,,,,,,,,,,,,,,,,,,,,,46.38559966601315,46.40626745802001,47.47602604102576,47.39409733301727,,,,,,,,,,,,,,,,,,,,,,,,,,,,,,,,,,,,,,296511,001,2024-06-28_11h27.18.912,5-20,2024.1.4,None,2024-06-28 11h27.23.985180 +0900,
,,,,,,,,,,,,,,,,,,,,,,,,,,,,,,,,,,,,,,,,,,,,,,,,,,,,,,,,,,,,,,,,,,,,,,,,,47.39410966599826,47.39427041599993,,,,,,,,,,,,,,,,,,,,,,,,,,,,,,,,,,,,296511,001,2024-06-28_11h27.18.912,5-20,2024.1.4,None,2024-06-28 11h27.23.985180 +0900,
Images/Speaker1.jpg,Images/Speaker2.jpg,Images/Speaker3.jpg,Images/Speaker4.jpg,Audio/Speaker3_En/P3-8-En.wav,Speaker3,گوینده۳,,,,,,,,,0,0,0,47,,,,,,,,,,,,47.47602604102576,,,,,,,,,,,,,,,,,,,,,,,,,,,,,,,,,,,,,,,,,,,,,47.44824716600124,47.47602604102576,47.47602604102576,47.47602604102576,47.47602604102576,47.47719562433971,47.47602604102576,47.47602604102576,48.47814383302466,Incorrect! The correct answer is Speaker3. نادرست! پاسخ صحیح گوینده۳ است,1,0.9986670829821378,None,0,1,48.48219833301846,48.500704375008354,50.4900455410243,,,,,,,,,,,,,,,,,,296511,001,2024-06-28_11h27.18.912,5-20,2024.1.4,None,2024-06-28 11h27.23.985180 +0900,
Images/Speaker1.jpg,Images/Speaker2.jpg,Images/Speaker3.jpg,Images/Speaker4.jpg,Audio/Speaker1_En/P1-10-En.wav,Speaker1,گوینده ۱,,,,,,,,,0,1,1,9,,,,,,,,,,,,50.51425004101475,,,,,,,,,,,,,,,,,,,,,,,,,,,,,,,,,,,,,,,,,,,,,50.49022112501552,50.51425004101475,50.51425004101475,50.51425004101475,50.51425004101475,50.52333579134623,50.51425004101475,50.51425004101475,50.86284133300069,Correct! صحیح است,1,0.3437734589970205,None,0,2,50.866664041008335,50.878417666011956,52.87411370800692,,,,,,,,,,,,,,,,,,296511,001,2024-06-28_11h27.18.912,5-20,2024.1.4,None,2024-06-28 11h27.23.985180 +0900,
Images/Speaker1.jpg,Images/Speaker2.jpg,Images/Speaker3.jpg,Images/Speaker4.jpg,Audio/Speaker3_En/P3-9-En.wav,Speaker3,گوینده۳,,,,,,,,,0,2,2,48,,,,,,,,,,,,52.898499250004534,,,,,,,,,,,,,,,,,,,,,,,,,,,,,,,,,,,,,,,,,,,,,52.87464420800097,52.898499250004534,52.898499250004534,52.898499250004534,52.898499250004534,52.9072599993456,52.898499250004534,52.898499250004534,53.072613166004885,Incorrect! The correct answer is Speaker3. نادرست! پاسخ صحیح گوینده۳ است,1,0.1662104580027517,None,0,3,53.07636358300806,53.089182708004955,55.082699250022415,,,,,,,,,,,,,,,,,,296511,001,2024-06-28_11h27.18.912,5-20,2024.1.4,None,2024-06-28 11h27.23.985180 +0900,
Images/Speaker1.jpg,Images/Speaker2.jpg,Images/Speaker3.jpg,Images/Speaker4.jpg,Audio/Speaker2_En/P2-8-En.wav,Speaker2,گوینده۲,,,,,,,,,0,3,3,27,,,,,,,,,,,,55.10712691600202,,,,,,,,,,,,,,,,,,,,,,,,,,,,,,,,,,,,,,,,,,,,,55.083282000006875,55.10712691600202,55.10712691600202,55.10712691600202,55.10712691600202,55.115846874345635,55.10712691600202,55.10712691600202,55.29304141600733,Incorrect! The correct answer is Speaker2. نادرست! پاسخ صحیح گوینده۲ است,1,0.17656720799277537,None,0,4,55.29726720802137,55.30966316600097,57.29796341600013,,,,,,,,,,,,,,,,,,296511,001,2024-06-28_11h27.18.912,5-20,2024.1.4,None,2024-06-28 11h27.23.985180 +0900,
Images/Speaker1.jpg,Images/Speaker2.jpg,Images/Speaker3.jpg,Images/Speaker4.jpg,Audio/Speaker3_En/P3-6-En.wav,Speaker3,گوینده۳,,,,,,,,,0,4,4,45,,,,,,,,,,,,57.32217337502516,,,,,,,,,,,,,,,,,,,,,,,,,,,,,,,,,,,,,,,,,,,,,57.29851416600286,57.32217337502516,57.32217337502516,57.32217337502516,57.32217337502516,57.3311195413485,57.32217337502516,57.32217337502516,57.36647108301986,Incorrect! The correct answer is Speaker3. نادرست! پاسخ صحیح گوینده۳ است,1,0.03618204200756736,None,0,5,57.37071125002694,57.38317291601561,59.37555350002367,,,,,,,,,,,,,,,,,,296511,001,2024-06-28_11h27.18.912,5-20,2024.1.4,None,2024-06-28 11h27.23.985180 +0900,
Images/Speaker1.jpg,Images/Speaker2.jpg,Images/Speaker3.jpg,Images/Speaker4.jpg,Audio/Speaker1_En/P1-5-En.wav,Speaker1,گوینده ۱,,,,,,,,,0,5,5,4,,,,,,,,,,,,59.39813429102651,,,,,,,,,,,,,,,,,,,,,,,,,,,,,,,,,,,,,,,,,,,,,59.3757301250007,59.39813429102651,59.39813429102651,59.39813429102651,59.39813429102651,59.39218212466609,59.39813429102651,59.39813429102651,59.68975550000323,Correct! صحیح است,1,0.29021058400394395,None,0,6,59.69500325000263,59.70825666602468,61.69667745800689,,,,,,,,,,,,,,,,,,296511,001,2024-06-28_11h27.18.912,5-20,2024.1.4,None,2024-06-28 11h27.23.985180 +0900,
Images/Speaker1.jpg,Images/Speaker2.jpg,Images/Speaker3.jpg,Images/Speaker4.jpg,Audio/Speaker3_En/P3-12-En.wav,Speaker3,گوینده۳,,,,,,,,,0,6,6,51,,,,,,,,,,,,61.71944787501707,,,,,,,,,,,,,,,,,,,,,,,,,,,,,,,,,,,,,,,,,,,,,61.69685804101755,61.71944787501707,61.71944787501707,61.71944787501707,61.71944787501707,61.71329437467308,61.71944787501707,61.71944787501707,61.87606587502523,Incorrect! The correct answer is Speaker3. نادرست! پاسخ صحیح گوینده۳ است,1,0.14788574998965487,None,0,7,61.88010387500981,61.893724125024164,63.87739145802334,63.902152875001775,,,,,,,,,,,,,,,,,296511,001,2024-06-28_11h27.18.912,5-20,2024.1.4,None,2024-06-28 11h27.23.985180 +0900,
Images/Speaker1.jpg,Images/Speaker2.jpg,Images/Speaker3.jpg,Images/Speaker4.jpg,Audio/Speaker2_En/P2-13-En.wav,Speaker2,گوینده۲,,,,,,,,,0,7,7,32,,,,,,,,,,,,63.902152875001775,,,,,,,,,,,,,,,,,,,,,,,,,,,,,,,,,,,,,,,,,,,,,63.878327625017846,63.902152875001775,63.902152875001775,63.902152875001775,63.902152875001775,63.909746958358056,63.902152875001775,63.902152875001775,64.09189383301418,Incorrect! The correct answer is Speaker2. نادرست! پاسخ صحیح گوینده۲ است,1,0.1874918339890428,None,0,8,64.09573850000743,64.10832545801532,66.10296087502502,,,,,,,,,,,,,,,,,,296511,001,2024-06-28_11h27.18.912,5-20,2024.1.4,None,2024-06-28 11h27.23.985180 +0900,
Images/Speaker1.jpg,Images/Speaker2.jpg,Images/Speaker3.jpg,Images/Speaker4.jpg,Audio/Speaker3_En/P3-15-En.wav,Speaker3,گوینده۳,,,,,,,,,0,8,8,54,,,,,,,,,,,,66.1308182910143,,,,,,,,,,,,,,,,,,,,,,,,,,,,,,,,,,,,,,,,,,,,,66.10352579102619,66.1308182910143,66.1308182910143,66.1308182910143,66.1308182910143,66.1361310833386,66.1308182910143,66.1308182910143,66.3112105410255,Incorrect! The correct answer is Speaker3. نادرست! پاسخ صحیح گوینده۳ است,1,0.17322416699607857,None,0,9,66.31546679101302,66.32614166600979,68.30932154101902,68.33288270802586,,,,,,,,,,,,,,,,,296511,001,2024-06-28_11h27.18.912,5-20,2024.1.4,None,2024-06-28 11h27.23.985180 +0900,
Images/Speaker1.jpg,Images/Speaker2.jpg,Images/Speaker3.jpg,Images/Speaker4.jpg,Audio/Speaker1_En/P1-13-En.wav,Speaker1,گوینده ۱,,,,,,,,,0,9,9,12,,,,,,,,,,,,68.33288270802586,,,,,,,,,,,,,,,,,,,,,,,,,,,,,,,,,,,,,,,,,,,,,68.30949066602625,68.33288270802586,68.33288270802586,68.33288270802586,68.33288270802586,68.34245241634974,68.33288270802586,68.33288270802586,68.54081208302523,Correct! صحیح است,1,0.2056746669986751,None,0,10,68.54483154101763,68.55607925000368,70.55269483302254,,,,,,,,,,,,,,,,,,296511,001,2024-06-28_11h27.18.912,5-20,2024.1.4,None,2024-06-28 11h27.23.985180 +0900,
Images/Speaker1.jpg,Images/Speaker2.jpg,Images/Speaker3.jpg,Images/Speaker4.jpg,Audio/Speaker3_En/P3-7-En.wav,Speaker3,گوینده۳,,,,,,,,,0,10,10,46,,,,,,,,,,,,70.57496345799882,,,,,,,,,,,,,,,,,,,,,,,,,,,,,,,,,,,,,,,,,,,,,70.55286325002089,70.57496345799882,70.57496345799882,70.57496345799882,70.57496345799882,70.5693273746913,70.57496345799882,70.57496345799882,70.82447474999935,Incorrect! The correct answer is Speaker3. نادرست! پاسخ صحیح گوینده۳ است,1,0.2416008749860339,None,0,11,70.8286543750146,70.8412411660247,72.83644837501924,,,,,,,,,,,,,,,,,,296511,001,2024-06-28_11h27.18.912,5-20,2024.1.4,None,2024-06-28 11h27.23.985180 +0900,
Images/Speaker1.jpg,Images/Speaker2.jpg,Images/Speaker3.jpg,Images/Speaker4.jpg,Audio/Speaker4_En/P4-11-En.wav,Speaker4,گوینده۴,,,,,,,,,0,11,11,70,,,,,,,,,,,,72.86189608302084,,,,,,,,,,,,,,,,,,,,,,,,,,,,,,,,,,,,,,,,,,,,,72.83706179101137,72.86189608302084,72.86189608302084,72.86189608302084,72.86189608302084,72.86957612433665,72.86189608302084,72.86189608302084,72.86246016601217,Incorrect! The correct answer is Speaker4. نادرست! پاسخ صحیح گوینده۴ است,1,2.2210551669995766,None,0,12,72.86295412501204,72.87305612501223,74.86939170802361,,,,,,,,,,,,,,,,,,296511,001,2024-06-28_11h27.18.912,5-20,2024.1.4,None,2024-06-28 11h27.23.985180 +0900,
Images/Speaker1.jpg,Images/Speaker2.jpg,Images/Speaker3.jpg,Images/Speaker4.jpg,Audio/Speaker2_En/P2-14-En.wav,Speaker2,گوینده۲,,,,,,,,,0,12,12,33,,,,,,,,,,,,74.89263120800024,,,,,,,,,,,,,,,,,,,,,,,,,,,,,,,,,,,,,,,,,,,,,74.86953612501384,74.89263120800024,74.89263120800024,74.89263120800024,74.89263120800024,74.90269649934683,74.89263120800024,74.89263120800024,74.89320966601372,Incorrect! The correct answer is Speaker2. نادرست! پاسخ صحیح گوینده۲ است,1,1.8637718330137432,None,0,13,74.89358166602324,74.90351616599946,76.88773241601302,76.91060391601059,,,,,,,,,,,,,,,,,296511,001,2024-06-28_11h27.18.912,5-20,2024.1.4,None,2024-06-28 11h27.23.985180 +0900,
Images/Speaker1.jpg,Images/Speaker2.jpg,Images/Speaker3.jpg,Images/Speaker4.jpg,Audio/Speaker1_En/P1-3-En.wav,Speaker1,گوینده ۱,,,,,,,,,0,13,13,2,,,,,,,,,,,,76.91060391601059,,,,,,,,,,,,,,,,,,,,,,,,,,,,,,,,,,,,,,,,,,,,,76.8879190000007,76.91060391601059,76.91060391601059,76.91060391601059,76.91060391601059,76.90408187467644,76.91060391601059,76.91060391601059,76.91116720801801,Correct! صحیح است,1,1.8809507910045795,None,0,14,76.91137350001372,76.91967462500907,78.91325720801251,,,,,,,,,,,,,,,,,,296511,001,2024-06-28_11h27.18.912,5-20,2024.1.4,None,2024-06-28 11h27.23.985180 +0900,
Images/Speaker1.jpg,Images/Speaker2.jpg,Images/Speaker3.jpg,Images/Speaker4.jpg,Audio/Speaker3_En/P3-1-En.wav,Speaker3,گوینده۳,,,,,,,,,0,14,14,40,,,,,,,,,,,,78.94105370802572,,,,,,,,,,,,,,,,,,,,,,,,,,,,,,,,,,,,,,,,,,,,,78.9139109160169,78.94105370802572,78.94105370802572,78.94105370802572,78.94105370802572,78.94641904134963,78.94105370802572,78.94105370802572,79.20494720802526,Incorrect! The correct answer is Speaker3. نادرست! پاسخ صحیح گوینده۳ است,1,0.25831466700765304,None,0,15,79.20898925000802,79.22209775002557,81.20586812502006,81.22891658300068,,,,,,,,,,,,,,,,,296511,001,2024-06-28_11h27.18.912,5-20,2024.1.4,None,2024-06-28 11h27.23.985180 +0900,
Images/Speaker1.jpg,Images/Speaker2.jpg,Images/Speaker3.jpg,Images/Speaker4.jpg,Audio/Speaker1_En/P1-1-En.wav,Speaker1,گوینده ۱,,,,,,,,,0,15,15,0,,,,,,,,,,,,81.22891658300068,,,,,,,,,,,,,,,,,,,,,,,,,,,,,,,,,,,,,,,,,,,,,81.20606166601647,81.22891658300068,81.22891658300068,81.22891658300068,81.22891658300068,81.22234962467725,81.22891658300068,81.22891658300068,81.55237312501413,Correct! صحیح است,1,0.31940887501696125,None,0,16,81.55616829101928,81.56795129101374,83.55448495800374,83.58025991602335,,,,,,,,,,,,,,,,,296511,001,2024-06-28_11h27.18.912,5-20,2024.1.4,None,2024-06-28 11h27.23.985180 +0900,
Images/Speaker1.jpg,Images/Speaker2.jpg,Images/Speaker3.jpg,Images/Speaker4.jpg,Audio/Speaker2_En/P2-12-En.wav,Speaker2,گوینده۲,,,,,,,,,0,16,16,31,,,,,,,,,,,,83.58025991602335,,,,,,,,,,,,,,,,,,,,,,,,,,,,,,,,,,,,,,,,,,,,,83.555056333018,83.58025991602335,83.58025991602335,83.58025991602335,83.58025991602335,83.58693358334907,83.58025991602335,83.58025991602335,83.74568387502222,Incorrect! The correct answer is Speaker2. نادرست! پاسخ صحیح گوینده۲ است,1,0.15376950000063516,None,0,17,83.74960837501567,83.76275183301186,85.74627004101058,85.77319412500947,,,,,,,,,,,,,,,,,296511,001,2024-06-28_11h27.18.912,5-20,2024.1.4,None,2024-06-28 11h27.23.985180 +0900,
Images/Speaker1.jpg,Images/Speaker2.jpg,Images/Speaker3.jpg,Images/Speaker4.jpg,Audio/Speaker1_En/P1-6-En.wav,Speaker1,گوینده ۱,,,,,,,,,0,17,17,5,,,,,,,,,,,,85.77319412500947,,,,,,,,,,,,,,,,,,,,,,,,,,,,,,,,,,,,,,,,,,,,,85.7470669580216,85.77319412500947,85.77319412500947,85.77319412500947,85.77319412500947,85.7787817913418,85.77319412500947,85.77319412500947,85.95161041599931,Correct! صحیح است,1,0.1755926250189077,None,0,18,85.95581012501498,85.96685670802253,87.95550316601293,87.978891708015,,,,,,,,,,,,,,,,,296511,001,2024-06-28_11h27.18.912,5-20,2024.1.4,None,2024-06-28 11h27.23.985180 +0900,
Images/Speaker1.jpg,Images/Speaker2.jpg,Images/Speaker3.jpg,Images/Speaker4.jpg,Audio/Speaker1_En/P1-8-En.wav,Speaker1,گوینده ۱,,,,,,,,,0,18,18,7,,,,,,,,,,,,87.978891708015,,,,,,,,,,,,,,,,,,,,,,,,,,,,,,,,,,,,,,,,,,,,,87.95573141600471,87.978891708015,87.978891708015,87.978891708015,87.978891708015,87.98850466634806,87.978891708015,87.978891708015,88.32472625002265,Correct! صحیح است,1,0.3405154169886373,None,0,19,88.32877987500979,88.34021175000817,90.33495650000987,,,,,,,,,,,,,,,,,,296511,001,2024-06-28_11h27.18.912,5-20,2024.1.4,None,2024-06-28 11h27.23.985180 +0900,
Images/Speaker1.jpg,Images/Speaker2.jpg,Images/Speaker3.jpg,Images/Speaker4.jpg,Audio/Speaker2_En/P2-9-En.wav,Speaker2,گوینده۲,,,,,,,,,0,19,19,28,,,,,,,,,,,,90.35663745802594,,,,,,,,,,,,,,,,,,,,,,,,,,,,,,,,,,,,,,,,,,,,,90.33515908301342,90.35663745802594,90.35663745802594,90.35663745802594,90.35663745802594,90.35158941668148,90.35663745802594,90.35663745802594,90.62642087502172,Incorrect! The correct answer is Speaker2. نادرست! پاسخ صحیح گوینده۲ است,1,0.26818383400677703,None,0,20,90.63022958301008,90.642930291011,92.6262324580166,92.65014966600575,,,,,,,,,,,,,,,,,296511,001,2024-06-28_11h27.18.912,5-20,2024.1.4,None,2024-06-28 11h27.23.985180 +0900,
Images/Speaker1.jpg,Images/Speaker2.jpg,Images/Speaker3.jpg,Images/Speaker4.jpg,Audio/Speaker1_En/P1-19-En.wav,Speaker1,گوینده ۱,,,,,,,,,0,20,20,18,,,,,,,,,,,,92.65014966600575,,,,,,,,,,,,,,,,,,,,,,,,,,,,,,,,,,,,,,,,,,,,,92.62643345800461,92.65014966600575,92.65014966600575,92.65014966600575,92.65014966600575,92.65933095833364,92.65014966600575,92.65014966600575,93.0903366249986,Correct! صحیح است,1,0.4305659589881543,None,0,21,93.09434591600439,93.1059683750209,95.10245350000332,,,,,,,,,,,,,,,,,,296511,001,2024-06-28_11h27.18.912,5-20,2024.1.4,None,2024-06-28 11h27.23.985180 +0900,
Images/Speaker1.jpg,Images/Speaker2.jpg,Images/Speaker3.jpg,Images/Speaker4.jpg,Audio/Speaker2_En/P2-4-En.wav,Speaker2,گوینده۲,,,,,,,,,0,21,21,23,,,,,,,,,,,,95.127162083023,,,,,,,,,,,,,,,,,,,,,,,,,,,,,,,,,,,,,,,,,,,,,95.10311191601795,95.127162083023,95.127162083023,95.127162083023,95.127162083023,95.1356128333505,95.127162083023,95.127162083023,95.58271629101364,Incorrect! The correct answer is Speaker2. نادرست! پاسخ صحیح گوینده۲ است,1,0.45292775001144037,None,0,22,95.58661287502036,95.59950695800944,97.5855220000085,97.6085670410248,,,,,,,,,,,,,,,,,296511,001,2024-06-28_11h27.18.912,5-20,2024.1.4,None,2024-06-28 11h27.23.985180 +0900,
Images/Speaker1.jpg,Images/Speaker2.jpg,Images/Speaker3.jpg,Images/Speaker4.jpg,Audio/Speaker4_En/P4-8-En.wav,Speaker4,گوینده۴,,,,,,,,,0,22,22,67,,,,,,,,,,,,97.6085670410248,,,,,,,,,,,,,,,,,,,,,,,,,,,,,,,,,,,,,,,,,,,,,97.5856886250258,97.6085670410248,97.6085670410248,97.6085670410248,97.6085670410248,97.60192912468143,97.6085670410248,97.6085670410248,97.9689207910269,Incorrect! The correct answer is Speaker4. نادرست! پاسخ صحیح گوینده۴ است,1,0.35628366700257175,None,0,23,97.97310779101099,97.98658575001173,99.97161291600787,99.99613183300244,,,,,,,,,,,,,,,,,296511,001,2024-06-28_11h27.18.912,5-20,2024.1.4,None,2024-06-28 11h27.23.985180 +0900,
Images/Speaker1.jpg,Images/Speaker2.jpg,Images/Speaker3.jpg,Images/Speaker4.jpg,Audio/Speaker1_En/P1-7-En.wav,Speaker1,گوینده ۱,,,,,,,,,0,23,23,6,,,,,,,,,,,,99.99613183300244,,,,,,,,,,,,,,,,,,,,,,,,,,,,,,,,,,,,,,,,,,,,,99.97177583302255,99.99613183300244,99.99613183300244,99.99613183300244,99.99613183300244,100.00472283335014,99.99613183300244,99.99613183300244,100.30435179101187,Correct! صحیح است,1,0.30020320901530795,None,0,24,100.30843395800912,100.31900087502436,102.30205270802253,102.32379066600697,,,,,,,,,,,,,,,,,296511,001,2024-06-28_11h27.18.912,5-20,2024.1.4,None,2024-06-28 11h27.23.985180 +0900,
Images/Speaker1.jpg,Images/Speaker2.jpg,Images/Speaker3.jpg,Images/Speaker4.jpg,Audio/Speaker1_En/P1-18-En.wav,Speaker1,گوینده ۱,,,,,,,,,0,24,24,17,,,,,,,,,,,,102.32379066600697,,,,,,,,,,,,,,,,,,,,,,,,,,,,,,,,,,,,,,,,,,,,,102.30219608300831,102.32379066600697,102.32379066600697,102.32379066600697,102.32379066600697,102.31850220766889,102.32379066600697,102.32379066600697,102.65263895801036,Correct! صحیح است,1,0.323242125014076,None,0,25,102.65657225000905,102.66803870801232,104.66053137500421,,,,,,,,,,,,,,,,,,296511,001,2024-06-28_11h27.18.912,5-20,2024.1.4,None,2024-06-28 11h27.23.985180 +0900,
Images/Speaker1.jpg,Images/Speaker2.jpg,Images/Speaker3.jpg,Images/Speaker4.jpg,Audio/Speaker4_En/P4-7-En.wav,Speaker4,گوینده۴,,,,,,,,,0,25,25,66,,,,,,,,,,,,104.68558062502416,,,,,,,,,,,,,,,,,,,,,,,,,,,,,,,,,,,,,,,,,,,,,104.6606977910269,104.68558062502416,104.68558062502416,104.68558062502416,104.68558062502416,104.69383258335486,104.68558062502416,104.68558062502416,104.91315916602616,Incorrect! The correct answer is Speaker4. نادرست! پاسخ صحیح گوینده۴ است,1,0.219200915977126,None,0,26,104.91794737501186,104.93290808302118,106.91701591599849,106.93994883302366,,,,,,,,,,,,,,,,,296511,001,2024-06-28_11h27.18.912,5-20,2024.1.4,None,2024-06-28 11h27.23.985180 +0900,
Images/Speaker1.jpg,Images/Speaker2.jpg,Images/Speaker3.jpg,Images/Speaker4.jpg,Audio/Speaker4_En/P4-20-En.wav,Speaker4,گوینده۴,,,,,,,,,0,26,26,79,,,,,,,,,,,,106.93994883302366,,,,,,,,,,,,,,,,,,,,,,,,,,,,,,,,,,,,,,,,,,,,,106.91715987501084,106.93994883302366,106.93994883302366,106.93994883302366,106.93994883302366,106.95007187434433,106.93994883302366,106.93994883302366,107.34587050002301,Incorrect! The correct answer is Speaker4. نادرست! پاسخ صحیح گوینده۴ است,1,0.39793687500059605,None,0,27,107.34972891601501,107.36008816602407,109.34361391601851,109.3668247500027,,,,,,,,,,,,,,,,,296511,001,2024-06-28_11h27.18.912,5-20,2024.1.4,None,2024-06-28 11h27.23.985180 +0900,
Images/Speaker1.jpg,Images/Speaker2.jpg,Images/Speaker3.jpg,Images/Speaker4.jpg,Audio/Speaker3_En/P3-18-En.wav,Speaker3,گوینده۳,,,,,,,,,0,27,27,57,,,,,,,,,,,,109.3668247500027,,,,,,,,,,,,,,,,,,,,,,,,,,,,,,,,,,,,,,,,,,,,,109.34379362501204,109.3668247500027,109.3668247500027,109.3668247500027,109.3668247500027,109.37672974935461,109.3668247500027,109.3668247500027,109.65183654101565,Incorrect! The correct answer is Speaker3. نادرست! پاسخ صحیح گوینده۳ است,1,0.2805440830125008,None,0,28,109.65664583301987,109.67174587500631,111.6609340000141,,,,,,,,,,,,,,,,,,296511,001,2024-06-28_11h27.18.912,5-20,2024.1.4,None,2024-06-28 11h27.23.985180 +0900,
Images/Speaker1.jpg,Images/Speaker2.jpg,Images/Speaker3.jpg,Images/Speaker4.jpg,Audio/Speaker2_En/P2-16-En.wav,Speaker2,گوینده۲,,,,,,,,,0,28,28,35,,,,,,,,,,,,111.68568412502646,,,,,,,,,,,,,,,,,,,,,,,,,,,,,,,,,,,,,,,,,,,,,111.66155883300235,111.68568412502646,111.68568412502646,111.68568412502646,111.68568412502646,111.6941093333376,111.68568412502646,111.68568412502646,111.98231025002315,Incorrect! The correct answer is Speaker2. نادرست! پاسخ صحیح گوینده۲ است,1,0.2923717090161517,None,0,29,111.9866060000204,111.9994406250189,113.98668137501227,114.00896112501505,,,,,,,,,,,,,,,,,296511,001,2024-06-28_11h27.18.912,5-20,2024.1.4,None,2024-06-28 11h27.23.985180 +0900,
Images/Speaker1.jpg,Images/Speaker2.jpg,Images/Speaker3.jpg,Images/Speaker4.jpg,Audio/Speaker3_En/P3-3-En.wav,Speaker3,گوینده۳,,,,,,,,,0,29,29,42,,,,,,,,,,,,114.00896112501505,,,,,,,,,,,,,,,,,,,,,,,,,,,,,,,,,,,,,,,,,,,,,113.98685287500848,114.00896112501505,114.00896112501505,114.00896112501505,114.00896112501505,114.00308758268172,114.00896112501505,114.00896112501505,114.21583841601387,Incorrect! The correct answer is Speaker3. نادرست! پاسخ صحیح گوینده۳ است,1,0.20582545900833793,None,0,30,114.2200559580233,114.23287487501511,116.21875175001333,116.24246358301025,,,,,,,,,,,,,,,,,296511,001,2024-06-28_11h27.18.912,5-20,2024.1.4,None,2024-06-28 11h27.23.985180 +0900,
Images/Speaker1.jpg,Images/Speaker2.jpg,Images/Speaker3.jpg,Images/Speaker4.jpg,Audio/Speaker1_En/P1-11-En.wav,Speaker1,گوینده ۱,,,,,,,,,0,30,30,10,,,,,,,,,,,,116.24246358301025,,,,,,,,,,,,,,,,,,,,,,,,,,,,,,,,,,,,,,,,,,,,,116.21894045799854,116.24246358301025,116.24246358301025,116.24246358301025,116.24246358301025,116.25182045833984,116.24246358301025,116.24246358301025,116.61930012502125,Correct! صحیح است,1,0.3715617919806391,None,0,31,116.62349833300686,116.63492150002276,118.62649645801866,,,,,,,,,,,,,,,,,,296511,001,2024-06-28_11h27.18.912,5-20,2024.1.4,None,2024-06-28 11h27.23.985180 +0900,
Images/Speaker1.jpg,Images/Speaker2.jpg,Images/Speaker3.jpg,Images/Speaker4.jpg,Audio/Speaker2_En/P2-2-En.wav,Speaker2,گوینده۲,,,,,,,,,0,31,31,21,,,,,,,,,,,,118.64995912500308,,,,,,,,,,,,,,,,,,,,,,,,,,,,,,,,,,,,,,,,,,,,,118.62666658300441,118.64995912500308,118.64995912500308,118.64995912500308,118.64995912500308,118.65979408333854,118.64995912500308,118.64995912500308,118.865518333012,Incorrect! The correct answer is Speaker2. نادرست! پاسخ صحیح گوینده۲ است,1,0.21310862500104122,None,0,32,118.86974720802391,118.88209829101106,120.87633466601255,,,,,,,,,,,,,,,,,,296511,001,2024-06-28_11h27.18.912,5-20,2024.1.4,None,2024-06-28 11h27.23.985180 +0900,
Images/Speaker1.jpg,Images/Speaker2.jpg,Images/Speaker3.jpg,Images/Speaker4.jpg,Audio/Speaker1_En/P1-17-En.wav,Speaker1,گوینده ۱,,,,,,,,,0,32,32,16,,,,,,,,,,,,120.89824770801351,,,,,,,,,,,,,,,,,,,,,,,,,,,,,,,,,,,,,,,,,,,,,120.87648800000898,120.89824770801351,120.89824770801351,120.89824770801351,120.89824770801351,120.89296824968575,120.89824770801351,120.89824770801351,121.30144500001916,Correct! صحیح است,1,0.4010367500013672,None,0,33,121.30571937499917,121.31760012501036,123.31302104101633,,,,,,,,,,,,,,,,,,296511,001,2024-06-28_11h27.18.912,5-20,2024.1.4,None,2024-06-28 11h27.23.985180 +0900,
Images/Speaker1.jpg,Images/Speaker2.jpg,Images/Speaker3.jpg,Images/Speaker4.jpg,Audio/Speaker1_En/P1-9-En.wav,Speaker1,گوینده ۱,,,,,,,,,0,33,33,8,,,,,,,,,,,,123.33555991601315,,,,,,,,,,,,,,,,,,,,,,,,,,,,,,,,,,,,,,,,,,,,,123.31318691599881,123.33555991601315,123.33555991601315,123.33555991601315,123.33555991601315,123.3296472916884,123.33555991601315,123.33555991601315,123.7855076250271,Correct! صحیح است,1,0.4379162919940427,None,0,34,123.78980045800563,123.79814050000277,125.78903962500044,125.8141513330047,,,,,,,,,,,,,,,,,296511,001,2024-06-28_11h27.18.912,5-20,2024.1.4,None,2024-06-28 11h27.23.985180 +0900,
Images/Speaker1.jpg,Images/Speaker2.jpg,Images/Speaker3.jpg,Images/Speaker4.jpg,Audio/Speaker2_En/P2-17-En.wav,Speaker2,گوینده۲,,,,,,,,,0,34,34,36,,,,,,,,,,,,125.8141513330047,,,,,,,,,,,,,,,,,,,,,,,,,,,,,,,,,,,,,,,,,,,,,125.7898828330217,125.8141513330047,125.8141513330047,125.8141513330047,125.8141513330047,125.82148849935814,125.8141513330047,125.8141513330047,126.09998720799922,Incorrect! The correct answer is Speaker2. نادرست! پاسخ صحیح گوینده۲ است,1,0.2804422920162324,None,0,35,126.10426029100199,126.11715650002589,128.11283929101774,,,,,,,,,,,,,,,,,,296511,001,2024-06-28_11h27.18.912,5-20,2024.1.4,None,2024-06-28 11h27.23.985180 +0900,
Images/Speaker1.jpg,Images/Speaker2.jpg,Images/Speaker3.jpg,Images/Speaker4.jpg,Audio/Speaker2_En/P2-3-En.wav,Speaker2,گوینده۲,,,,,,,,,0,35,35,22,,,,,,,,,,,,128.13590216601733,,,,,,,,,,,,,,,,,,,,,,,,,,,,,,,,,,,,,,,,,,,,,128.11301829101285,128.13590216601733,128.13590216601733,128.13590216601733,128.13590216601733,128.1294713326827,128.13590216601733,128.13590216601733,128.16852437501075,Incorrect! The correct answer is Speaker2. نادرست! پاسخ صحیح گوینده۲ است,1,0.03020087498589419,None,0,36,128.17261641600635,128.1852533330093,130.17319904101896,130.19704858300975,,,,,,,,,,,,,,,,,296511,001,2024-06-28_11h27.18.912,5-20,2024.1.4,None,2024-06-28 11h27.23.985180 +0900,
Images/Speaker1.jpg,Images/Speaker2.jpg,Images/Speaker3.jpg,Images/Speaker4.jpg,Audio/Speaker1_En/P1-16-En.wav,Speaker1,گوینده ۱,,,,,,,,,0,36,36,15,,,,,,,,,,,,130.19704858300975,,,,,,,,,,,,,,,,,,,,,,,,,,,,,,,,,,,,,,,,,,,,,130.17420866602333,130.19704858300975,130.19704858300975,130.19704858300975,130.19704858300975,130.20556866634485,130.19704858300975,130.19704858300975,130.4796699580038,Correct! صحیح است,1,0.27873133300454356,None,0,37,130.48385504100588,130.49606583302375,132.48528258301667,,,,,,,,,,,,,,,,,,296511,001,2024-06-28_11h27.18.912,5-20,2024.1.4,None,2024-06-28 11h27.23.985180 +0900,
Images/Speaker1.jpg,Images/Speaker2.jpg,Images/Speaker3.jpg,Images/Speaker4.jpg,Audio/Speaker4_En/P4-13-En.wav,Speaker4,گوینده۴,,,,,,,,,0,37,37,72,,,,,,,,,,,,132.50993166601984,,,,,,,,,,,,,,,,,,,,,,,,,,,,,,,,,,,,,,,,,,,,,132.48543295802665,132.50993166601984,132.50993166601984,132.50993166601984,132.50993166601984,132.5019164996668,132.50993166601984,132.50993166601984,133.9657419580035,Incorrect! The correct answer is Speaker4. نادرست! پاسخ صحیح گوینده۴ است,1,1.4547994170279708,None,0,38,133.96953833301086,133.98336066602496,135.9697098750039,,,,,,,,,,,,,,,,,,296511,001,2024-06-28_11h27.18.912,5-20,2024.1.4,None,2024-06-28 11h27.23.985180 +0900,
Images/Speaker1.jpg,Images/Speaker2.jpg,Images/Speaker3.jpg,Images/Speaker4.jpg,Audio/Speaker1_En/P1-4-En.wav,Speaker1,گوینده ۱,,,,,,,,,0,38,38,3,,,,,,,,,,,,135.99199962502462,,,,,,,,,,,,,,,,,,,,,,,,,,,,,,,,,,,,,,,,,,,,,135.96989700000267,135.99199962502462,135.99199962502462,135.99199962502462,135.99199962502462,135.98632204169215,135.99199962502462,135.99199962502462,136.41769245802425,Correct! صحیح است,1,0.4242696659930516,None,0,39,136.42168016600772,136.43427225001506,138.42168725002557,138.44800383300753,,,,,,,,,,,,,,,,,296511,001,2024-06-28_11h27.18.912,5-20,2024.1.4,None,2024-06-28 11h27.23.985180 +0900,
Images/Speaker1.jpg,Images/Speaker2.jpg,Images/Speaker3.jpg,Images/Speaker4.jpg,Audio/Speaker3_En/P3-17-En.wav,Speaker3,گوینده۳,,,,,,,,,0,39,39,56,,,,,,,,,,,,138.44800383300753,,,,,,,,,,,,,,,,,,,,,,,,,,,,,,,,,,,,,,,,,,,,,138.4224900410045,138.44800383300753,138.44800383300753,138.44800383300753,138.44800383300753,138.45421629134995,138.44800383300753,138.44800383300753,138.6987459580123,Incorrect! The correct answer is Speaker3. نادرست! پاسخ صحیح گوینده۳ است,1,0.2488626669801306,None,0,40,138.70296300001792,138.71538337500533,140.70234566600993,140.72470195800997,,,,,,,,,,,,,,,,,296511,001,2024-06-28_11h27.18.912,5-20,2024.1.4,None,2024-06-28 11h27.23.985180 +0900,
Images/Speaker1.jpg,Images/Speaker2.jpg,Images/Speaker3.jpg,Images/Speaker4.jpg,Audio/Speaker2_En/P2-11-En.wav,Speaker2,گوینده۲,,,,,,,,,0,40,40,30,,,,,,,,,,,,140.72470195800997,,,,,,,,,,,,,,,,,,,,,,,,,,,,,,,,,,,,,,,,,,,,,140.70249608301674,140.72470195800997,140.72470195800997,140.72470195800997,140.72470195800997,140.71878920766565,140.72470195800997,140.72470195800997,140.95773229101906,Incorrect! The correct answer is Speaker2. نادرست! پاسخ صحیح گوینده۲ است,1,0.2221162090136204,None,0,41,140.96204262500396,140.97454520800966,142.9689839160128,,,,,,,,,,,,,,,,,,296511,001,2024-06-28_11h27.18.912,5-20,2024.1.4,None,2024-06-28 11h27.23.985180 +0900,
Images/Speaker1.jpg,Images/Speaker2.jpg,Images/Speaker3.jpg,Images/Speaker4.jpg,Audio/Speaker2_En/P2-1-En.wav,Speaker2,گوینده۲,,,,,,,,,0,41,41,20,,,,,,,,,,,,142.9913502910058,,,,,,,,,,,,,,,,,,,,,,,,,,,,,,,,,,,,,,,,,,,,,142.96913158299867,142.9913502910058,142.9913502910058,142.9913502910058,142.9913502910058,142.9856189576715,142.9913502910058,142.9913502910058,143.22887354102568,Incorrect! The correct answer is Speaker2. نادرست! پاسخ صحیح گوینده۲ است,1,0.23533008398953825,None,0,42,143.23269841601723,143.245805958024,145.2332054580038,,,,,,,,,,,,,,,,,,296511,001,2024-06-28_11h27.18.912,5-20,2024.1.4,None,2024-06-28 11h27.23.985180 +0900,
Images/Speaker1.jpg,Images/Speaker2.jpg,Images/Speaker3.jpg,Images/Speaker4.jpg,Audio/Speaker3_En/P3-5-En.wav,Speaker3,گوینده۳,,,,,,,,,0,42,42,44,,,,,,,,,,,,145.25691983301658,,,,,,,,,,,,,,,,,,,,,,,,,,,,,,,,,,,,,,,,,,,,,145.23336579100578,145.25691983301658,145.25691983301658,145.25691983301658,145.25691983301658,145.26650445833417,145.25691983301658,145.25691983301658,145.43978308301303,Incorrect! The correct answer is Speaker3. نادرست! پاسخ صحیح گوینده۳ است,1,0.18159091600682586,None,0,43,145.44363225001143,145.4569756660203,147.44048716602265,147.4616799580108,,,,,,,,,,,,,,,,,296511,001,2024-06-28_11h27.18.912,5-20,2024.1.4,None,2024-06-28 11h27.23.985180 +0900,
Images/Speaker1.jpg,Images/Speaker2.jpg,Images/Speaker3.jpg,Images/Speaker4.jpg,Audio/Speaker4_En/P4-3-En.wav,Speaker4,گوینده۴,,,,,,,,,0,43,43,62,,,,,,,,,,,,147.4616799580108,,,,,,,,,,,,,,,,,,,,,,,,,,,,,,,,,,,,,,,,,,,,,147.44067029102007,147.4616799580108,147.4616799580108,147.4616799580108,147.4616799580108,147.4569217916908,147.4616799580108,147.4616799580108,147.67568262500572,Incorrect! The correct answer is Speaker4. نادرست! پاسخ صحیح گوینده۴ است,1,0.20899249997455627,None,0,44,147.67985758301802,147.69217150000622,149.6863652910106,,,,,,,,,,,,,,,,,,296511,001,2024-06-28_11h27.18.912,5-20,2024.1.4,None,2024-06-28 11h27.23.985180 +0900,
Images/Speaker1.jpg,Images/Speaker2.jpg,Images/Speaker3.jpg,Images/Speaker4.jpg,Audio/Speaker4_En/P4-18-En.wav,Speaker4,گوینده۴,,,,,,,,,0,44,44,77,,,,,,,,,,,,149.70855600002687,,,,,,,,,,,,,,,,,,,,,,,,,,,,,,,,,,,,,,,,,,,,,149.68674604099942,149.70855600002687,149.70855600002687,149.70855600002687,149.70855600002687,149.70294770767603,149.70855600002687,149.70855600002687,149.91891370801022,Incorrect! The correct answer is Speaker4. نادرست! پاسخ صحیح گوینده۴ است,1,0.20800479198805988,None,0,45,149.92305604100693,149.9363345830061,151.9305871250108,,,,,,,,,,,,,,,,,,296511,001,2024-06-28_11h27.18.912,5-20,2024.1.4,None,2024-06-28 11h27.23.985180 +0900,
Images/Speaker1.jpg,Images/Speaker2.jpg,Images/Speaker3.jpg,Images/Speaker4.jpg,Audio/Speaker3_En/P3-2-En.wav,Speaker3,گوینده۳,,,,,,,,,0,45,45,41,,,,,,,,,,,,151.95796658302424,,,,,,,,,,,,,,,,,,,,,,,,,,,,,,,,,,,,,,,,,,,,,151.9312043329992,151.95796658302424,151.95796658302424,151.95796658302424,151.95796658302424,151.9637602083463,151.95796658302424,151.95796658302424,152.15257220802596,Incorrect! The correct answer is Speaker3. نادرست! پاسخ صحیح گوینده۳ است,1,0.18556079198606312,None,0,46,152.15680858300766,152.1696186250192,154.15685941601987,154.1816636660078,,,,,,,,,,,,,,,,,296511,001,2024-06-28_11h27.18.912,5-20,2024.1.4,None,2024-06-28 11h27.23.985180 +0900,
Images/Speaker1.jpg,Images/Speaker2.jpg,Images/Speaker3.jpg,Images/Speaker4.jpg,Audio/Speaker2_En/P2-18-En.wav,Speaker2,گوینده۲,,,,,,,,,0,46,46,37,,,,,,,,,,,,154.1816636660078,,,,,,,,,,,,,,,,,,,,,,,,,,,,,,,,,,,,,,,,,,,,,154.15782391600078,154.1816636660078,154.1816636660078,154.1816636660078,154.1816636660078,154.1890122083501,154.1816636660078,154.1816636660078,154.46894262501155,Incorrect! The correct answer is Speaker2. نادرست! پاسخ صحیح گوینده۲ است,1,0.2811164159793407,None,0,47,154.47373141601565,154.48796595801832,156.47225687501486,156.49495812502573,,,,,,,,,,,,,,,,,296511,001,2024-06-28_11h27.18.912,5-20,2024.1.4,None,2024-06-28 11h27.23.985180 +0900,
Images/Speaker1.jpg,Images/Speaker2.jpg,Images/Speaker3.jpg,Images/Speaker4.jpg,Audio/Speaker2_En/P2-20-En.wav,Speaker2,گوینده۲,,,,,,,,,0,47,47,39,,,,,,,,,,,,156.49495812502573,,,,,,,,,,,,,,,,,,,,,,,,,,,,,,,,,,,,,,,,,,,,,156.47243058300228,156.49495812502573,156.49495812502573,156.49495812502573,156.49495812502573,156.48868595768388,156.49495812502573,156.49495812502573,156.68138704102603,Incorrect! The correct answer is Speaker2. نادرست! پاسخ صحیح گوینده۲ است,1,0.18495545801124536,None,0,48,156.68525770801352,156.6983820410096,158.6882552910247,,,,,,,,,,,,,,,,,,296511,001,2024-06-28_11h27.18.912,5-20,2024.1.4,None,2024-06-28 11h27.23.985180 +0900,
Images/Speaker1.jpg,Images/Speaker2.jpg,Images/Speaker3.jpg,Images/Speaker4.jpg,Audio/Speaker4_En/P4-19-En.wav,Speaker4,گوینده۴,,,,,,,,,0,48,48,78,,,,,,,,,,,,158.7154776250245,,,,,,,,,,,,,,,,,,,,,,,,,,,,,,,,,,,,,,,,,,,,,158.68880020800862,158.7154776250245,158.7154776250245,158.7154776250245,158.7154776250245,158.72145983335992,158.7154776250245,158.7154776250245,158.8963825830142,Incorrect! The correct answer is Speaker4. نادرست! پاسخ صحیح گوینده۴ است,1,0.17150045800372027,None,0,49,158.90057987501496,158.9136808750045,160.89878854100243,160.92137212501257,,,,,,,,,,,,,,,,,296511,001,2024-06-28_11h27.18.912,5-20,2024.1.4,None,2024-06-28 11h27.23.985180 +0900,
Images/Speaker1.jpg,Images/Speaker2.jpg,Images/Speaker3.jpg,Images/Speaker4.jpg,Audio/Speaker4_En/P4-16-En.wav,Speaker4,گوینده۴,,,,,,,,,0,49,49,75,,,,,,,,,,,,160.92137212501257,,,,,,,,,,,,,,,,,,,,,,,,,,,,,,,,,,,,,,,,,,,,,160.89896779099945,160.92137212501257,160.92137212501257,160.92137212501257,160.92137212501257,160.91517020768177,160.92137212501257,160.92137212501257,161.20265550000477,Incorrect! The correct answer is Speaker4. نادرست! پاسخ صحیح گوینده۴ است,1,0.2710004579857923,None,0,50,161.20655929102213,161.21899366599973,163.2019665830012,163.226790833025,,,,,,,,,,,,,,,,,296511,001,2024-06-28_11h27.18.912,5-20,2024.1.4,None,2024-06-28 11h27.23.985180 +0900,
Images/Speaker1.jpg,Images/Speaker2.jpg,Images/Speaker3.jpg,Images/Speaker4.jpg,Audio/Speaker4_En/P4-4-En.wav,Speaker4,گوینده۴,,,,,,,,,0,50,50,63,,,,,,,,,,,,163.226790833025,,,,,,,,,,,,,,,,,,,,,,,,,,,,,,,,,,,,,,,,,,,,,163.20213829100248,163.226790833025,163.226790833025,163.226790833025,163.226790833025,163.23501624933175,163.226790833025,163.226790833025,163.40806308301399,Incorrect! The correct answer is Speaker4. نادرست! پاسخ صحیح گوینده۴ است,1,0.17350924998754635,None,0,51,163.4121693750203,163.42289433302358,165.41127637500176,165.43699875002494,,,,,,,,,,,,,,,,,296511,001,2024-06-28_11h27.18.912,5-20,2024.1.4,None,2024-06-28 11h27.23.985180 +0900,
Images/Speaker1.jpg,Images/Speaker2.jpg,Images/Speaker3.jpg,Images/Speaker4.jpg,Audio/Speaker4_En/P4-14-En.wav,Speaker4,گوینده۴,,,,,,,,,0,51,51,73,,,,,,,,,,,,165.43699875002494,,,,,,,,,,,,,,,,,,,,,,,,,,,,,,,,,,,,,,,,,,,,,165.41228462502477,165.43699875002494,165.43699875002494,165.43699875002494,165.43699875002494,165.44364504135643,165.43699875002494,165.43699875002494,165.58757329100627,Incorrect! The correct answer is Speaker4. نادرست! پاسخ صحیح گوینده۴ است,1,0.13913316701655276,None,0,52,165.59182958301972,165.60446383300587,167.59625462500844,,,,,,,,,,,,,,,,,,296511,001,2024-06-28_11h27.18.912,5-20,2024.1.4,None,2024-06-28 11h27.23.985180 +0900,
Images/Speaker1.jpg,Images/Speaker2.jpg,Images/Speaker3.jpg,Images/Speaker4.jpg,Audio/Speaker4_En/P4-12-En.wav,Speaker4,گوینده۴,,,,,,,,,0,52,52,71,,,,,,,,,,,,167.6183524580265,,,,,,,,,,,,,,,,,,,,,,,,,,,,,,,,,,,,,,,,,,,,,167.5964337910118,167.6183524580265,167.6183524580265,167.6183524580265,167.6183524580265,167.61288124969386,167.6183524580265,167.6183524580265,167.78640729101608,Incorrect! The correct answer is Speaker4. نادرست! پاسخ صحیح گوینده۴ است,1,0.16578083400963806,None,0,53,167.79029650002485,167.8036009159987,169.79369291602052,,,,,,,,,,,,,,,,,,296511,001,2024-06-28_11h27.18.912,5-20,2024.1.4,None,2024-06-28 11h27.23.985180 +0900,
Images/Speaker1.jpg,Images/Speaker2.jpg,Images/Speaker3.jpg,Images/Speaker4.jpg,Audio/Speaker2_En/P2-6-En.wav,Speaker2,گوینده۲,,,,,,,,,0,53,53,25,,,,,,,,,,,,169.81652004100033,,,,,,,,,,,,,,,,,,,,,,,,,,,,,,,,,,,,,,,,,,,,,169.79386904102284,169.81652004100033,169.81652004100033,169.81652004100033,169.81652004100033,169.81032454167533,169.81652004100033,169.81652004100033,169.92200662501273,Incorrect! The correct answer is Speaker2. نادرست! پاسخ صحیح گوینده۲ است,1,0.10293900000397116,None,0,54,169.92624291600077,169.93850037502125,171.9298016660032,,,,,,,,,,,,,,,,,,296511,001,2024-06-28_11h27.18.912,5-20,2024.1.4,None,2024-06-28 11h27.23.985180 +0900,
Images/Speaker1.jpg,Images/Speaker2.jpg,Images/Speaker3.jpg,Images/Speaker4.jpg,Audio/Speaker4_En/P4-15-En.wav,Speaker4,گوینده۴,,,,,,,,,0,54,54,74,,,,,,,,,,,,171.9528541660111,,,,,,,,,,,,,,,,,,,,,,,,,,,,,,,,,,,,,,,,,,,,,171.92997566601844,171.9528541660111,171.9528541660111,171.9528541660111,171.9528541660111,171.9464304166652,171.9528541660111,171.9528541660111,172.16063433300587,Incorrect! The correct answer is Speaker4. نادرست! پاسخ صحیح گوینده۴ است,1,0.2026467919931747,None,0,55,172.16439541600994,172.1767099580029,174.17048725002678,,,,,,,,,,,,,,,,,,296511,001,2024-06-28_11h27.18.912,5-20,2024.1.4,None,2024-06-28 11h27.23.985180 +0900,
Images/Speaker1.jpg,Images/Speaker2.jpg,Images/Speaker3.jpg,Images/Speaker4.jpg,Audio/Speaker2_En/P2-19-En.wav,Speaker2,گوینده۲,,,,,,,,,0,55,55,38,,,,,,,,,,,,174.19556845800253,,,,,,,,,,,,,,,,,,,,,,,,,,,,,,,,,,,,,,,,,,,,,174.17104750001454,174.19556845800253,174.19556845800253,174.19556845800253,174.19556845800253,174.2036795413374,174.19556845800253,174.19556845800253,174.3013140000112,Incorrect! The correct answer is Speaker2. نادرست! پاسخ صحیح گوینده۲ است,1,0.09959741699276492,None,0,56,174.30499654100277,174.31754679101869,176.30132387499907,176.32370354101295,,,,,,,,,,,,,,,,,296511,001,2024-06-28_11h27.18.912,5-20,2024.1.4,None,2024-06-28 11h27.23.985180 +0900,
Images/Speaker1.jpg,Images/Speaker2.jpg,Images/Speaker3.jpg,Images/Speaker4.jpg,Audio/Speaker2_En/P2-10-En.wav,Speaker2,گوینده۲,,,,,,,,,0,56,56,29,,,,,,,,,,,,176.32370354101295,,,,,,,,,,,,,,,,,,,,,,,,,,,,,,,,,,,,,,,,,,,,,176.30149316601455,176.32370354101295,176.32370354101295,176.32370354101295,176.32370354101295,176.31777558266575,176.32370354101295,176.32370354101295,176.56822633300908,Incorrect! The correct answer is Speaker2. نادرست! پاسخ صحیح گوینده۲ است,1,0.2399541669874452,None,0,57,176.57260775001487,176.5856400830089,178.57136179102235,178.59812341601355,,,,,,,,,,,,,,,,,296511,001,2024-06-28_11h27.18.912,5-20,2024.1.4,None,2024-06-28 11h27.23.985180 +0900,
Images/Speaker1.jpg,Images/Speaker2.jpg,Images/Speaker3.jpg,Images/Speaker4.jpg,Audio/Speaker4_En/P4-6-En.wav,Speaker4,گوینده۴,,,,,,,,,0,57,57,65,,,,,,,,,,,,178.59812341601355,,,,,,,,,,,,,,,,,,,,,,,,,,,,,,,,,,,,,,,,,,,,,178.57222687502508,178.59812341601355,178.59812341601355,178.59812341601355,178.59812341601355,178.60370866634963,178.59812341601355,178.59812341601355,178.76758158300072,Incorrect! The correct answer is Speaker4. نادرست! پاسخ صحیح گوینده۴ است,1,0.16124562500044703,None,0,58,178.77170579100493,178.78196820800076,180.767697666015,180.78970350002055,,,,,,,,,,,,,,,,,296511,001,2024-06-28_11h27.18.912,5-20,2024.1.4,None,2024-06-28 11h27.23.985180 +0900,
Images/Speaker1.jpg,Images/Speaker2.jpg,Images/Speaker3.jpg,Images/Speaker4.jpg,Audio/Speaker1_En/P1-4-En.wav,Speaker1,گوینده ۱,,,,,,,,,0,58,58,13,,,,,,,,,,,,180.78970350002055,,,,,,,,,,,,,,,,,,,,,,,,,,,,,,,,,,,,,,,,,,,,,180.7678896250145,180.78970350002055,180.78970350002055,180.78970350002055,180.78970350002055,180.78405558268813,180.78970350002055,180.78970350002055,180.9678010409989,Correct! صحیح است,1,0.1746982499898877,None,0,59,180.97190966602648,180.98333329102024,182.97948262499995,,,,,,,,,,,,,,,,,,296511,001,2024-06-28_11h27.18.912,5-20,2024.1.4,None,2024-06-28 11h27.23.985180 +0900,
Images/Speaker1.jpg,Images/Speaker2.jpg,Images/Speaker3.jpg,Images/Speaker4.jpg,Audio/Speaker4_En/P4-5-En.wav,Speaker4,گوینده۴,,,,,,,,,0,59,59,64,,,,,,,,,,,,183.0027013750223,,,,,,,,,,,,,,,,,,,,,,,,,,,,,,,,,,,,,,,,,,,,,182.9796506249986,183.0027013750223,183.0027013750223,183.0027013750223,183.0027013750223,183.01277424934284,183.0027013750223,183.0027013750223,183.0856717080169,Incorrect! The correct answer is Speaker4. نادرست! پاسخ صحیح گوینده۴ است,1,0.08100708297570236,None,0,60,183.0894224580261,183.10196187501424,185.09678920800798,,,,,,,,,,,,,,,,,,296511,001,2024-06-28_11h27.18.912,5-20,2024.1.4,None,2024-06-28 11h27.23.985180 +0900,
Images/Speaker1.jpg,Images/Speaker2.jpg,Images/Speaker3.jpg,Images/Speaker4.jpg,Audio/Speaker3_En/P3-11-En.wav,Speaker3,گوینده۳,,,,,,,,,0,60,60,50,,,,,,,,,,,,185.12304800000857,,,,,,,,,,,,,,,,,,,,,,,,,,,,,,,,,,,,,,,,,,,,,185.09741133300122,185.12304800000857,185.12304800000857,185.12304800000857,185.12304800000857,185.12997366634278,185.12304800000857,185.12304800000857,185.35714245800045,Incorrect! The correct answer is Speaker3. نادرست! پاسخ صحیح گوینده۳ است,1,0.23251145801623352,None,0,61,185.36127166601364,185.37385366600938,187.36193425001693,,,,,,,,,,,,,,,,,,296511,001,2024-06-28_11h27.18.912,5-20,2024.1.4,None,2024-06-28 11h27.23.985180 +0900,
Images/Speaker1.jpg,Images/Speaker2.jpg,Images/Speaker3.jpg,Images/Speaker4.jpg,Audio/Speaker3_En/P3-13-En.wav,Speaker3,گوینده۳,,,,,,,,,0,61,61,52,,,,,,,,,,,,187.38675541602424,,,,,,,,,,,,,,,,,,,,,,,,,,,,,,,,,,,,,,,,,,,,,187.3625431660039,187.38675541602424,187.38675541602424,187.38675541602424,187.38675541602424,187.39506649933952,187.38675541602424,187.38675541602424,187.59440508301486,Incorrect! The correct answer is Speaker3. نادرست! پاسخ صحیح گوینده۳ است,1,0.2064839169906918,None,0,62,187.59940733300755,187.61363741601235,189.59754587500356,189.62046683300287,,,,,,,,,,,,,,,,,296511,001,2024-06-28_11h27.18.912,5-20,2024.1.4,None,2024-06-28 11h27.23.985180 +0900,
Images/Speaker1.jpg,Images/Speaker2.jpg,Images/Speaker3.jpg,Images/Speaker4.jpg,Audio/Speaker1_En/P1-20-En.wav,Speaker1,گوینده ۱,,,,,,,,,0,62,62,19,,,,,,,,,,,,189.62046683300287,,,,,,,,,,,,,,,,,,,,,,,,,,,,,,,,,,,,,,,,,,,,,189.597755625,189.62046683300287,189.62046683300287,189.62046683300287,189.62046683300287,189.6139159166817,189.62046683300287,189.62046683300287,189.764794540999,Correct! صحیح است,1,0.14237737501389347,None,0,63,189.76884662502562,189.78043341601733,191.7656001660216,191.7876574160182,,,,,,,,,,,,,,,,,296511,001,2024-06-28_11h27.18.912,5-20,2024.1.4,None,2024-06-28 11h27.23.985180 +0900,
Images/Speaker1.jpg,Images/Speaker2.jpg,Images/Speaker3.jpg,Images/Speaker4.jpg,Audio/Speaker3_En/P3-20-En.wav,Speaker3,گوینده۳,,,,,,,,,0,63,63,59,,,,,,,,,,,,191.7876574160182,,,,,,,,,,,,,,,,,,,,,,,,,,,,,,,,,,,,,,,,,,,,,191.7657645830186,191.7876574160182,191.7876574160182,191.7876574160182,191.7876574160182,191.78200487466918,191.7876574160182,191.7876574160182,192.0035957080254,Incorrect! The correct answer is Speaker3. نادرست! پاسخ صحیح گوینده۳ است,1,0.21359170900541358,None,0,64,192.00791816602577,192.0205545000208,194.00601645800634,194.0293670000101,,,,,,,,,,,,,,,,,296511,001,2024-06-28_11h27.18.912,5-20,2024.1.4,None,2024-06-28 11h27.23.985180 +0900,
Images/Speaker1.jpg,Images/Speaker2.jpg,Images/Speaker3.jpg,Images/Speaker4.jpg,Audio/Speaker2_En/P2-15-En.wav,Speaker2,گوینده۲,,,,,,,,,0,64,64,34,,,,,,,,,,,,194.0293670000101,,,,,,,,,,,,,,,,,,,,,,,,,,,,,,,,,,,,,,,,,,,,,194.00620441601495,194.0293670000101,194.0293670000101,194.0293670000101,194.0293670000101,194.0390764583504,194.0293670000101,194.0293670000101,194.29368108301423,Incorrect! The correct answer is Speaker2. نادرست! پاسخ صحیح گوینده۲ است,1,0.2580880419991445,None,0,65,194.29798275002395,194.31083762500202,196.3018899160088,,,,,,,,,,,,,,,,,,296511,001,2024-06-28_11h27.18.912,5-20,2024.1.4,None,2024-06-28 11h27.23.985180 +0900,
Images/Speaker1.jpg,Images/Speaker2.jpg,Images/Speaker3.jpg,Images/Speaker4.jpg,Audio/Speaker1_En/P1-15-En.wav,Speaker1,گوینده ۱,,,,,,,,,0,65,65,14,,,,,,,,,,,,196.32672700000694,,,,,,,,,,,,,,,,,,,,,,,,,,,,,,,,,,,,,,,,,,,,,196.3020630410174,196.32672700000694,196.32672700000694,196.32672700000694,196.32672700000694,196.33519370834307,196.32672700000694,196.32672700000694,196.5595379580045,Correct! صحیح است,1,0.2294774170150049,None,0,66,196.56321916601155,196.57448033301625,198.55799683299847,198.58337566599948,,,,,,,,,,,,,,,,,296511,001,2024-06-28_11h27.18.912,5-20,2024.1.4,None,2024-06-28 11h27.23.985180 +0900,
Images/Speaker1.jpg,Images/Speaker2.jpg,Images/Speaker3.jpg,Images/Speaker4.jpg,Audio/Speaker4_En/P4-10-En.wav,Speaker4,گوینده۴,,,,,,,,,0,66,66,69,,,,,,,,,,,,198.58337566599948,,,,,,,,,,,,,,,,,,,,,,,,,,,,,,,,,,,,,,,,,,,,,198.5584382500092,198.58337566599948,198.58337566599948,198.58337566599948,198.58337566599948,198.59097837433416,198.58337566599948,198.58337566599948,198.71539729100186,Incorrect! The correct answer is Speaker4. نادرست! پاسخ صحیح گوینده۴ است,1,0.1309693749935832,None,0,67,198.71950958302477,198.73222741601057,200.71609100000933,200.73955108301016,,,,,,,,,,,,,,,,,296511,001,2024-06-28_11h27.18.912,5-20,2024.1.4,None,2024-06-28 11h27.23.985180 +0900,
Images/Speaker1.jpg,Images/Speaker2.jpg,Images/Speaker3.jpg,Images/Speaker4.jpg,Audio/Speaker4_En/P4-2-En.wav,Speaker4,گوینده۴,,,,,,,,,0,67,67,61,,,,,,,,,,,,200.73955108301016,,,,,,,,,,,,,,,,,,,,,,,,,,,,,,,,,,,,,,,,,,,,,200.71627120801713,200.73955108301016,200.73955108301016,200.73955108301016,200.73955108301016,200.74918312434653,200.73955108301016,200.73955108301016,201.02342929100269,Incorrect! The correct answer is Speaker4. نادرست! پاسخ صحیح گوینده۴ است,1,0.281108957977267,None,0,68,201.0274627500039,201.0407919580175,203.0296422500105,,,,,,,,,,,,,,,,,,296511,001,2024-06-28_11h27.18.912,5-20,2024.1.4,None,2024-06-28 11h27.23.985180 +0900,
Images/Speaker1.jpg,Images/Speaker2.jpg,Images/Speaker3.jpg,Images/Speaker4.jpg,Audio/Speaker3_En/P3-14-En.wav,Speaker3,گوینده۳,,,,,,,,,0,68,68,53,,,,,,,,,,,,203.0537813330011,,,,,,,,,,,,,,,,,,,,,,,,,,,,,,,,,,,,,,,,,,,,,203.02982116601197,203.0537813330011,203.0537813330011,203.0537813330011,203.0537813330011,203.06293195833183,203.0537813330011,203.0537813330011,203.2374062500021,Incorrect! The correct answer is Speaker3. نادرست! پاسخ صحیح گوینده۳ است,1,0.18092712500947528,None,0,69,203.24111041601282,203.25381570801255,205.245880958013,,,,,,,,,,,,,,,,,,296511,001,2024-06-28_11h27.18.912,5-20,2024.1.4,None,2024-06-28 11h27.23.985180 +0900,
Images/Speaker1.jpg,Images/Speaker2.jpg,Images/Speaker3.jpg,Images/Speaker4.jpg,Audio/Speaker4_En/P4-1-En.wav,Speaker4,گوینده۴,,,,,,,,,0,69,69,60,,,,,,,,,,,,205.26900175001356,,,,,,,,,,,,,,,,,,,,,,,,,,,,,,,,,,,,,,,,,,,,,205.24604750002618,205.26900175001356,205.26900175001356,205.26900175001356,205.26900175001356,205.2625073326674,205.26900175001356,205.26900175001356,205.6104935410258,Incorrect! The correct answer is Speaker4. نادرست! پاسخ صحیح گوینده۴ است,1,0.33192895899992436,None,0,70,205.61523687501904,205.62939337501302,207.6160830410081,207.6433005410072,,,,,,,,,,,,,,,,,296511,001,2024-06-28_11h27.18.912,5-20,2024.1.4,None,2024-06-28 11h27.23.985180 +0900,
Images/Speaker1.jpg,Images/Speaker2.jpg,Images/Speaker3.jpg,Images/Speaker4.jpg,Audio/Speaker1_En/P1-2-En.wav,Speaker1,گوینده ۱,,,,,,,,,0,70,70,1,,,,,,,,,,,,207.6433005410072,,,,,,,,,,,,,,,,,,,,,,,,,,,,,,,,,,,,,,,,,,,,,207.6170866250177,207.6433005410072,207.6433005410072,207.6433005410072,207.6433005410072,207.64841512434265,207.6433005410072,207.6433005410072,207.90725787502015,Correct! صحیح است,1,0.2548246670048684,None,0,71,207.91112975002034,207.92225391601096,209.9179380830028,,,,,,,,,,,,,,,,,,296511,001,2024-06-28_11h27.18.912,5-20,2024.1.4,None,2024-06-28 11h27.23.985180 +0900,
Images/Speaker1.jpg,Images/Speaker2.jpg,Images/Speaker3.jpg,Images/Speaker4.jpg,Audio/Speaker3_En/P3-16-En.wav,Speaker3,گوینده۳,,,,,,,,,0,71,71,55,,,,,,,,,,,,209.94071187500958,,,,,,,,,,,,,,,,,,,,,,,,,,,,,,,,,,,,,,,,,,,,,209.9180950000009,209.94071187500958,209.94071187500958,209.94071187500958,209.94071187500958,209.9345673326791,209.94071187500958,209.94071187500958,210.17576683301013,Incorrect! The correct answer is Speaker3. نادرست! پاسخ صحیح گوینده۳ است,1,0.22761699999682605,None,0,72,210.18019812501734,210.1924075410061,212.18003391602542,212.20263691601576,,,,,,,,,,,,,,,,,296511,001,2024-06-28_11h27.18.912,5-20,2024.1.4,None,2024-06-28 11h27.23.985180 +0900,
Images/Speaker1.jpg,Images/Speaker2.jpg,Images/Speaker3.jpg,Images/Speaker4.jpg,Audio/Speaker4_En/P4-9-En.wav,Speaker4,گوینده۴,,,,,,,,,0,72,72,68,,,,,,,,,,,,212.20263691601576,,,,,,,,,,,,,,,,,,,,,,,,,,,,,,,,,,,,,,,,,,,,,212.18020154102123,212.20263691601576,212.20263691601576,212.20263691601576,212.20263691601576,212.19646458267042,212.20263691601576,212.20263691601576,212.4484959160036,Incorrect! The correct answer is Speaker4. نادرست! پاسخ صحیح گوینده۴ است,1,0.2393079169851262,None,0,73,212.45269791601459,212.4661422080244,214.45698404102586,,,,,,,,,,,,,,,,,,296511,001,2024-06-28_11h27.18.912,5-20,2024.1.4,None,2024-06-28 11h27.23.985180 +0900,
Images/Speaker1.jpg,Images/Speaker2.jpg,Images/Speaker3.jpg,Images/Speaker4.jpg,Audio/Speaker2_En/P2-5-En.wav,Speaker2,گوینده۲,,,,,,,,,0,73,73,24,,,,,,,,,,,,214.47974383301334,,,,,,,,,,,,,,,,,,,,,,,,,,,,,,,,,,,,,,,,,,,,,214.45719145800103,214.47974383301334,214.47974383301334,214.47974383301334,214.47974383301334,214.47359674968564,214.47974383301334,214.47974383301334,214.77352087502368,Incorrect! The correct answer is Speaker2. نادرست! پاسخ صحیح گوینده۲ است,1,0.2881493750028312,None,0,74,214.7777404160006,214.79059012501966,216.77533820801182,216.80011541600106,,,,,,,,,,,,,,,,,296511,001,2024-06-28_11h27.18.912,5-20,2024.1.4,None,2024-06-28 11h27.23.985180 +0900,
Images/Speaker1.jpg,Images/Speaker2.jpg,Images/Speaker3.jpg,Images/Speaker4.jpg,Audio/Speaker3_En/P3-4-En.wav,Speaker3,گوینده۳,,,,,,,,,0,74,74,43,,,,,,,,,,,,216.80011541600106,,,,,,,,,,,,,,,,,,,,,,,,,,,,,,,,,,,,,,,,,,,,,216.7759539160179,216.80011541600106,216.80011541600106,216.80011541600106,216.80011541600106,216.80774674934997,216.80011541600106,216.80011541600106,217.08020641602343,Incorrect! The correct answer is Speaker3. نادرست! پاسخ صحیح گوینده۳ است,1,0.2707102909917012,None,0,75,217.08515366600477,217.09984295800678,219.08453375002136,219.11098241602303,,,,,,,,,,,,,,,,,296511,001,2024-06-28_11h27.18.912,5-20,2024.1.4,None,2024-06-28 11h27.23.985180 +0900,
Images/Speaker1.jpg,Images/Speaker2.jpg,Images/Speaker3.jpg,Images/Speaker4.jpg,Audio/Speaker3_En/P3-19-En.wav,Speaker3,گوینده۳,,,,,,,,,0,75,75,58,,,,,,,,,,,,219.11098241602303,,,,,,,,,,,,,,,,,,,,,,,,,,,,,,,,,,,,,,,,,,,,,219.084692791017,219.11098241602303,219.11098241602303,219.11098241602303,219.11098241602303,219.11760824934078,219.11098241602303,219.11098241602303,219.3058955000015,Incorrect! The correct answer is Speaker3. نادرست! پاسخ صحیح گوینده۳ است,1,0.184741250006482,None,0,76,219.30958295802702,219.322135541006,221.30888266602415,221.3307703330065,,,,,,,,,,,,,,,,,296511,001,2024-06-28_11h27.18.912,5-20,2024.1.4,None,2024-06-28 11h27.23.985180 +0900,
Images/Speaker1.jpg,Images/Speaker2.jpg,Images/Speaker3.jpg,Images/Speaker4.jpg,Audio/Speaker4_En/P4-17-En.wav,Speaker4,گوینده۴,,,,,,,,,0,76,76,76,,,,,,,,,,,,221.3307703330065,,,,,,,,,,,,,,,,,,,,,,,,,,,,,,,,,,,,,,,,,,,,,221.30903554102406,221.3307703330065,221.3307703330065,221.3307703330065,221.3307703330065,221.32532604167162,221.3307703330065,221.3307703330065,221.5785683330032,Incorrect! The correct answer is Speaker4. نادرست! پاسخ صحیح گوینده۴ است,1,0.24478545799502172,None,0,77,221.58242941601202,221.59543095802655,223.57984612500877,223.60408316602116,,,,,,,,,,,,,,,,,296511,001,2024-06-28_11h27.18.912,5-20,2024.1.4,None,2024-06-28 11h27.23.985180 +0900,
Images/Speaker1.jpg,Images/Speaker2.jpg,Images/Speaker3.jpg,Images/Speaker4.jpg,Audio/Speaker3_En/P3-10-En.wav,Speaker3,گوینده۳,,,,,,,,,0,77,77,49,,,,,,,,,,,,223.60408316602116,,,,,,,,,,,,,,,,,,,,,,,,,,,,,,,,,,,,,,,,,,,,,223.5806481660111,223.60408316602116,223.60408316602116,223.60408316602116,223.60408316602116,223.61237304134607,223.60408316602116,223.60408316602116,223.85768829099834,Incorrect! The correct answer is Speaker3. نادرست! پاسخ صحیح گوینده۳ است,1,0.2507660420087632,None,0,78,223.86180329101626,223.87512445801985,225.85979795802268,225.88348566601053,,,,,,,,,,,,,,,,,296511,001,2024-06-28_11h27.18.912,5-20,2024.1.4,None,2024-06-28 11h27.23.985180 +0900,
Images/Speaker1.jpg,Images/Speaker2.jpg,Images/Speaker3.jpg,Images/Speaker4.jpg,Audio/Speaker2_En/P2-7-En.wav,Speaker2,گوینده۲,,,,,,,,,0,78,78,26,,,,,,,,,,,,225.88348566601053,,,,,,,,,,,,,,,,,,,,,,,,,,,,,,,,,,,,,,,,,,,,,225.86066175001906,225.88348566601053,225.88348566601053,225.88348566601053,225.88348566601053,225.89222033334278,225.88348566601053,225.88348566601053,226.21557233302156,Incorrect! The correct answer is Speaker2. نادرست! پاسخ صحیح گوینده۲ است,1,0.330293332983274,None,0,79,226.2193420830008,226.23187933300505,228.22540616602055,,,,,,,,,,,,,,,,,,296511,001,2024-06-28_11h27.18.912,5-20,2024.1.4,None,2024-06-28 11h27.23.985180 +0900,
Images/Speaker1.jpg,Images/Speaker2.jpg,Images/Speaker3.jpg,Images/Speaker4.jpg,Audio/Speaker1_En/P1-12-En.wav,Speaker1,گوینده ۱,,,,,,,,,0,79,79,11,,,,,,,,,,,,228.25187079102034,,,,,,,,,,,,,,,,,,,,,,,,,,,,,,,,,,,,,,,,,,,,,228.2260118330014,228.25187079102034,228.25187079102034,228.25187079102034,228.25187079102034,228.25858437433686,228.25187079102034,228.25187079102034,230.5040733750211,Correct! صحیح است,1,2.242050750006456,None,0,80,230.507837666024,230.51677704101894,232.50876016600523,,,,,,,,,,,,,,,,,,296511,001,2024-06-28_11h27.18.912,5-20,2024.1.4,None,2024-06-28 11h27.23.985180 +0900,
,,,,,,,,,,,,,,,,,,,,,,,,,,,,,,,,,,,,,,,,,,,,,,,,,,,,,,,,,,,,,,,,,,,,,,,,,,,,,,,,,,,,,,,,,,,,,,232.50883800000884,232.50903275000746,TrainingGroup1,,,,,,,,,,,,,,296511,001,2024-06-28_11h27.18.912,5-20,2024.1.4,None,2024-06-28 11h27.23.985180 +0900,
,,,,,,,,,,,,,,,,,,,,,,,,,,,,,,232.56384679101757,,,,,,,,,,,,,,,,,,,,,,,,,,,,,,,,,,,,,,,,,,,,,,,,,,,,,,,,,,,,,,,,,,,232.5277447910048,232.56384679101757,232.56384679101757,232.56384679101757,232.56384679101757,232.56384679101757,232.55872504099972,232.56384679101757,232.56384679101757,234.64860554100596,1,2.080713416013168,None,,,,,,,,
