SpeakerImage1,SpeakerImage2,SpeakerImage3,SpeakerImage4,TrainingSound,EnglishCorrectAnswer,PersianCorrectAnswer,TrainingLoopGroup1.thisRepN,TrainingLoopGroup1.thisTrialN,TrainingLoopGroup1.thisN,TrainingLoopGroup1.thisIndex,TrainingLoopGroup2.thisRepN,TrainingLoopGroup2.thisTrialN,TrainingLoopGroup2.thisN,TrainingLoopGroup2.thisIndex,TrainingLoopGroup3.thisRepN,TrainingLoopGroup3.thisTrialN,TrainingLoopGroup3.thisN,TrainingLoopGroup3.thisIndex,thisRow.t,notes,trial.started,trial.stopped,GroupSelection.started,GroupInstructions.started,key_resp.started,GroupSelection.stopped,key_resp.keys,key_resp.rt,key_resp.duration,Introduction.started,text_2.started,image.started,sound_7.started,text_4.started,text_2.stopped,sound_8.started,image_7.started,sound_9.started,text_5.started,image.stopped,text_4.stopped,sound_10.started,image_7.stopped,text_5.stopped,image_8.started,sound_11.started,text_6.started,sound_12.started,image_8.stopped,text_6.stopped,image_9.started,sound_13.started,text_7.started,sound_14.started,image_9.stopped,text_7.stopped,Introduction.stopped,Instructions.started,InstructionText.started,InstructionText.stopped,Instructions.stopped,InitializeExperiment.started,InitializeExperiment.stopped,TrainingGroup3.started,SpeakerPicture3.started,image_15.started,image_16.started,image_17.started,Sound3.started,Instruction3.started,Response3.started,TrainingGroup3.stopped,feedbackText,Response3.keys,Response3.rt,Response3.duration,correct_responses_group3,total_trials_group3,FeedbackRoutine3.started,FeedbackText3.started,FeedbackText3.stopped,FeedbackRoutine3.stopped,CheckAccuracy.started,accuracy_group3,proceed_to_test_group3,CheckAccuracy.stopped,participant,session,date,expName,psychopyVersion,frameRate,expStart,
,,,,,,,,,,,,,,,,,,,,,0.010497082999791019,0.018122874998880434,,,,,,,,,,,,,,,,,,,,,,,,,,,,,,,,,,,,,,,,,,,,,,,,,,,,,,,,,,,,,,,,,332031,001,2024-07-01_13h00.28.483,5-26,2024.1.4,None,2024-07-01 13h00.33.987594 +0900,
,,,,,,,,,,,,,,,,,,,,,,,0.018140499998480664,0.022401707999961218,0.022401707999961218,1.2265594159998727,3,1.165774084000077,None,,,,,,,,,,,,,,,,,,,,,,,,,,,,,,,,,,,,,,,,,,,,,,,,,,,,,,,,,,332031,001,2024-07-01_13h00.28.483,5-26,2024.1.4,None,2024-07-01 13h00.33.987594 +0900,
,,,,,,,,,,,,,,,,,,,,,,,,,,,,,,1.2265893749990937,1.2934797079997225,6.230093582998961,6.2382007916660465,6.230093582998961,6.27982795799835,11.228015416665828,16.224593332999575,16.22881133266516,16.224593332999575,16.229140249999546,16.229140249999546,21.232433166666183,26.21787858299831,26.21787858299831,26.21787858299831,26.227793249665652,26.21787858299831,31.229193416666263,36.21788558299886,36.21788558299886,36.22281316599947,36.234552249665526,36.22281316599947,41.22699999966632,46.21451708299901,46.21451708299901,46.210141374998784,,,,,,,,,,,,,,,,,,,,,,,,,,,,,,332031,001,2024-07-01_13h00.28.483,5-26,2024.1.4,None,2024-07-01 13h00.33.987594 +0900,
,,,,,,,,,,,,,,,,,,,,,,,,,,,,,,,,,,,,,,,,,,,,,,,,,,,,,,,,,,46.210157999999865,46.21451708299901,47.28074541599926,47.19832049999968,,,,,,,,,,,,,,,,,,,,,,,,,,332031,001,2024-07-01_13h00.28.483,5-26,2024.1.4,None,2024-07-01 13h00.33.987594 +0900,
,,,,,,,,,,,,,,,,,,,,,,,,,,,,,,,,,,,,,,,,,,,,,,,,,,,,,,,,,,,,,,47.19833604099949,47.19851254099922,,,,,,,,,,,,,,,,,,,,,,,,332031,001,2024-07-01_13h00.28.483,5-26,2024.1.4,None,2024-07-01 13h00.33.987594 +0900,
Images/Speaker1.jpg,Images/Speaker2.jpg,Images/Speaker3.jpg,Images/Speaker4.jpg,Audio/Speaker4_En/P4-11-En.wav,Speaker4,گوینده۴,,,,,,,,,0,0,0,70,47.28074541599926,,,,,,,,,,,,,,,,,,,,,,,,,,,,,,,,,,,,,,,,,,,,,47.254254624998794,47.28074541599926,47.28074541599926,47.28074541599926,47.28074541599926,47.28144033333168,47.28074541599926,47.28074541599926,52.01293508299932,Incorrect! The correct answer is Speaker4. نادرست! پاسخ صحیح گوینده۴ است,1,4.727005082999312,None,0,1,52.0136860829989,52.027355957998225,54.03326229099912,54.01058049999847,54.010592124999675,0.0,False,54.01075233299889,332031,001,2024-07-01_13h00.28.483,5-26,2024.1.4,None,2024-07-01 13h00.33.987594 +0900,
Images/Speaker1.jpg,Images/Speaker2.jpg,Images/Speaker3.jpg,Images/Speaker4.jpg,Audio/Speaker4_En/P4-12-En.wav,Speaker4,گوینده۴,,,,,,,,,0,1,1,71,54.03326229099912,,,,,,,,,,,,,,,,,,,,,,,,,,,,,,,,,,,,,,,,,,,,,54.01093349999974,54.03326229099912,54.03326229099912,54.03326229099912,54.03326229099912,54.02694174966588,54.03326229099912,54.03326229099912,54.22348737499851,Incorrect! The correct answer is Speaker4. نادرست! پاسخ صحیح گوینده۴ است,1,0.18067641700145032,None,0,2,54.227411374999065,54.24533812499976,,56.228471832999276,56.228480624999065,0.0,False,56.22867195799881,332031,001,2024-07-01_13h00.28.483,5-26,2024.1.4,None,2024-07-01 13h00.33.987594 +0900,
Images/Speaker1.jpg,Images/Speaker2.jpg,Images/Speaker3.jpg,Images/Speaker4.jpg,Audio/Speaker3_En/P3-4-En.wav,Speaker3,گوینده۳,,,,,,,,,0,2,2,43,56.253005999999004,,,,,,,,,,,,,,,,,,,,,,,,,,,,,,,,,,,,,,,,,,,,,56.22884549999981,56.253005999999004,56.253005999999004,56.253005999999004,56.253005999999004,56.26176612433167,56.253005999999004,56.253005999999004,56.307947790999606,Incorrect! The correct answer is Speaker3. نادرست! پاسخ صحیح گوینده۳ است,1,0.05191658299918345,None,0,3,56.3121328749985,56.32445737499984,,58.31690816599985,58.31693420800002,0.0,False,58.31756204099838,332031,001,2024-07-01_13h00.28.483,5-26,2024.1.4,None,2024-07-01 13h00.33.987594 +0900,
Images/Speaker1.jpg,Images/Speaker2.jpg,Images/Speaker3.jpg,Images/Speaker4.jpg,Audio/Speaker3_En/P3-17-En.wav,Speaker3,گوینده۳,,,,,,,,,0,3,3,56,58.34658283299905,,,,,,,,,,,,,,,,,,,,,,,,,,,,,,,,,,,,,,,,,,,,,58.31811408299836,58.34658283299905,58.34658283299905,58.34658283299905,58.34658283299905,58.35009987433162,58.34658283299905,58.34658283299905,58.3472544999986,Incorrect! The correct answer is Speaker3. نادرست! پاسخ صحیح گوینده۳ است,1,2.0758522910000465,None,0,4,58.35118166599932,58.36085699999967,60.37117045799823,60.34629162499914,60.34630112499872,0.0,False,60.346445749999475,332031,001,2024-07-01_13h00.28.483,5-26,2024.1.4,None,2024-07-01 13h00.33.987594 +0900,
Images/Speaker1.jpg,Images/Speaker2.jpg,Images/Speaker3.jpg,Images/Speaker4.jpg,Audio/Speaker2_En/P2-2-En.wav,Speaker2,گوینده۲,,,,,,,,,0,4,4,21,60.37117045799823,,,,,,,,,,,,,,,,,,,,,,,,,,,,,,,,,,,,,,,,,,,,,60.3467679159985,60.37117045799823,60.37117045799823,60.37117045799823,60.37117045799823,60.37938599933162,60.37117045799823,60.37117045799823,60.52294291599901,Incorrect! The correct answer is Speaker2. نادرست! پاسخ صحیح گوینده۲ است,1,0.1493569579997711,None,0,5,60.52682345799985,60.53885087499839,62.54654866599958,62.522611207999944,62.522646957999314,0.0,False,62.52297245799855,332031,001,2024-07-01_13h00.28.483,5-26,2024.1.4,None,2024-07-01 13h00.33.987594 +0900,
Images/Speaker1.jpg,Images/Speaker2.jpg,Images/Speaker3.jpg,Images/Speaker4.jpg,Audio/Speaker1_En/P1-1-En.wav,Speaker1,گوینده ۱,,,,,,,,,0,5,5,0,62.54654866599958,,,,,,,,,,,,,,,,,,,,,,,,,,,,,,,,,,,,,,,,,,,,,62.52315904099851,62.54654866599958,62.54654866599958,62.54654866599958,62.54654866599958,62.55506058333279,62.54654866599958,62.54654866599958,62.578212082999016,Correct! صحیح است,1,0.028393208000125014,None,0,6,62.58211483299965,62.594269374998476,64.60478220799996,64.58043829099915,64.5804676659991,0.0,False,64.58075041599841,332031,001,2024-07-01_13h00.28.483,5-26,2024.1.4,None,2024-07-01 13h00.33.987594 +0900,
Images/Speaker1.jpg,Images/Speaker2.jpg,Images/Speaker3.jpg,Images/Speaker4.jpg,Audio/Speaker3_En/P3-9-En.wav,Speaker3,گوینده۳,,,,,,,,,0,6,6,48,64.60478220799996,,,,,,,,,,,,,,,,,,,,,,,,,,,,,,,,,,,,,,,,,,,,,64.58136537499922,64.60478220799996,64.60478220799996,64.60478220799996,64.60478220799996,64.6128900413319,64.60478220799996,64.60478220799996,64.83718729099928,Incorrect! The correct answer is Speaker3. نادرست! پاسخ صحیح گوینده۳ است,1,0.22571995799989963,None,0,7,64.84127533299943,64.85396062499967,,66.84599899999921,66.84600895799849,0.0,False,66.84616795799957,332031,001,2024-07-01_13h00.28.483,5-26,2024.1.4,None,2024-07-01 13h00.33.987594 +0900,
Images/Speaker1.jpg,Images/Speaker2.jpg,Images/Speaker3.jpg,Images/Speaker4.jpg,Audio/Speaker2_En/P2-11-En.wav,Speaker2,گوینده۲,,,,,,,,,0,7,7,30,66.86856045799868,,,,,,,,,,,,,,,,,,,,,,,,,,,,,,,,,,,,,,,,,,,,,66.84632908299864,66.86856045799868,66.86856045799868,66.86856045799868,66.86856045799868,66.86263308266668,66.86856045799868,66.86856045799868,67.03864283299845,Incorrect! The correct answer is Speaker2. نادرست! پاسخ صحیح گوینده۲ است,1,0.160899459000575,None,0,8,67.04279749999841,67.0531887499983,69.06421754099938,69.03794937499879,69.0379762499997,0.0,False,69.03829912499896,332031,001,2024-07-01_13h00.28.483,5-26,2024.1.4,None,2024-07-01 13h00.33.987594 +0900,
Images/Speaker1.jpg,Images/Speaker2.jpg,Images/Speaker3.jpg,Images/Speaker4.jpg,Audio/Speaker1_En/P1-3-En.wav,Speaker1,گوینده ۱,,,,,,,,,0,8,8,2,69.06421754099938,,,,,,,,,,,,,,,,,,,,,,,,,,,,,,,,,,,,,,,,,,,,,69.03905262499939,69.06421754099938,69.06421754099938,69.06421754099938,69.06421754099938,69.07052337433245,69.06421754099938,69.06421754099938,69.12978883299911,Correct! صحیح است,1,0.06269241600057285,None,0,9,69.13403349999862,69.14475320799829,71.15179545799947,71.12925687499956,71.12926637499913,0.0,False,71.12942212499911,332031,001,2024-07-01_13h00.28.483,5-26,2024.1.4,None,2024-07-01 13h00.33.987594 +0900,
Images/Speaker1.jpg,Images/Speaker2.jpg,Images/Speaker3.jpg,Images/Speaker4.jpg,Audio/Speaker1_En/P1-4-En.wav,Speaker1,گوینده ۱,,,,,,,,,0,9,9,13,71.15179545799947,,,,,,,,,,,,,,,,,,,,,,,,,,,,,,,,,,,,,,,,,,,,,71.12959583299926,71.15179545799947,71.15179545799947,71.15179545799947,71.15179545799947,71.14567362466575,71.15179545799947,71.15179545799947,71.45418087500002,Correct! صحیح است,1,0.29985320800005866,None,0,10,71.45940641599918,71.47053733299981,73.48671266599922,73.46028204100003,73.4603411249991,0.0,False,73.46070591599891,332031,001,2024-07-01_13h00.28.483,5-26,2024.1.4,None,2024-07-01 13h00.33.987594 +0900,
Images/Speaker1.jpg,Images/Speaker2.jpg,Images/Speaker3.jpg,Images/Speaker4.jpg,Audio/Speaker2_En/P2-9-En.wav,Speaker2,گوینده۲,,,,,,,,,0,10,10,28,73.48671266599922,,,,,,,,,,,,,,,,,,,,,,,,,,,,,,,,,,,,,,,,,,,,,73.46164354099892,73.48671266599922,73.48671266599922,73.48671266599922,73.48671266599922,73.4925025413327,73.48671266599922,73.48671266599922,73.89148766599828,Incorrect! The correct answer is Speaker2. نادرست! پاسخ صحیح گوینده۲ است,1,0.3948114999984682,None,0,11,73.89540279099856,73.90863199999876,,75.89899562499886,75.89900387499983,0.0,False,75.89920608299872,332031,001,2024-07-01_13h00.28.483,5-26,2024.1.4,None,2024-07-01 13h00.33.987594 +0900,
Images/Speaker1.jpg,Images/Speaker2.jpg,Images/Speaker3.jpg,Images/Speaker4.jpg,Audio/Speaker3_En/P3-2-En.wav,Speaker3,گوینده۳,,,,,,,,,0,11,11,41,75.92405774999861,,,,,,,,,,,,,,,,,,,,,,,,,,,,,,,,,,,,,,,,,,,,,75.89937595799893,75.92405774999861,75.92405774999861,75.92405774999861,75.92405774999861,75.93228779133327,75.92405774999861,75.92405774999861,75.9512704159988,Incorrect! The correct answer is Speaker3. نادرست! پاسخ صحیح گوینده۳ است,1,0.015916915999696357,None,0,12,75.95501220799997,75.96685324999999,,77.95658816599826,77.95659695799986,0.0,False,77.95680470799925,332031,001,2024-07-01_13h00.28.483,5-26,2024.1.4,None,2024-07-01 13h00.33.987594 +0900,
Images/Speaker1.jpg,Images/Speaker2.jpg,Images/Speaker3.jpg,Images/Speaker4.jpg,Audio/Speaker2_En/P2-14-En.wav,Speaker2,گوینده۲,,,,,,,,,0,12,12,33,77.98049145799996,,,,,,,,,,,,,,,,,,,,,,,,,,,,,,,,,,,,,,,,,,,,,77.95697662499879,77.98049145799996,77.98049145799996,77.98049145799996,77.98049145799996,77.98988620833236,77.98049145799996,77.98049145799996,77.98107049999999,Incorrect! The correct answer is Speaker2. نادرست! پاسخ صحیح گوینده۲ است,1,1.9883859159999702,None,0,13,77.98156408299837,77.99118341599933,,79.98520470799849,79.98524595799972,0.0,False,79.98579170799894,332031,001,2024-07-01_13h00.28.483,5-26,2024.1.4,None,2024-07-01 13h00.33.987594 +0900,
Images/Speaker1.jpg,Images/Speaker2.jpg,Images/Speaker3.jpg,Images/Speaker4.jpg,Audio/Speaker4_En/P4-9-En.wav,Speaker4,گوینده۴,,,,,,,,,0,13,13,68,80.01236791599877,,,,,,,,,,,,,,,,,,,,,,,,,,,,,,,,,,,,,,,,,,,,,79.98662979099936,80.01236791599877,80.01236791599877,80.01236791599877,80.01236791599877,80.01839474933197,80.01236791599877,80.01236791599877,80.19043370799955,Incorrect! The correct answer is Speaker4. نادرست! پاسخ صحیح گوینده۴ است,1,0.17660329199861735,None,0,14,80.19471883299957,80.2073602499986,,82.19976279099865,82.19978999999876,0.0,False,82.2004286249994,332031,001,2024-07-01_13h00.28.483,5-26,2024.1.4,None,2024-07-01 13h00.33.987594 +0900,
Images/Speaker1.jpg,Images/Speaker2.jpg,Images/Speaker3.jpg,Images/Speaker4.jpg,Audio/Speaker3_En/P3-14-En.wav,Speaker3,گوینده۳,,,,,,,,,0,14,14,53,82.22784079099984,,,,,,,,,,,,,,,,,,,,,,,,,,,,,,,,,,,,,,,,,,,,,82.20128616599868,82.22784079099984,82.22784079099984,82.22784079099984,82.22784079099984,82.23291195833238,82.22784079099984,82.22784079099984,82.23393579099866,Incorrect! The correct answer is Speaker3. نادرست! پاسخ صحیح گوینده۳ است,1,0.0018598330007080222,None,0,15,82.23785599999974,82.25017379099882,84.25579441599984,84.23349649999909,84.2335054999985,0.0,False,84.23366016599903,332031,001,2024-07-01_13h00.28.483,5-26,2024.1.4,None,2024-07-01 13h00.33.987594 +0900,
Images/Speaker1.jpg,Images/Speaker2.jpg,Images/Speaker3.jpg,Images/Speaker4.jpg,Audio/Speaker2_En/P2-19-En.wav,Speaker2,گوینده۲,,,,,,,,,0,15,15,38,84.25579441599984,,,,,,,,,,,,,,,,,,,,,,,,,,,,,,,,,,,,,,,,,,,,,84.23382120799943,84.25579441599984,84.25579441599984,84.25579441599984,84.25579441599984,84.2499122076663,84.25579441599984,84.25579441599984,84.41919616599989,Incorrect! The correct answer is Speaker2. نادرست! پاسخ صحیح گوینده۲ است,1,0.16019445899837592,None,0,16,84.42351837499882,84.43648966599903,,86.42395899999974,86.42397391599843,0.0,False,86.42415437499949,332031,001,2024-07-01_13h00.28.483,5-26,2024.1.4,None,2024-07-01 13h00.33.987594 +0900,
Images/Speaker1.jpg,Images/Speaker2.jpg,Images/Speaker3.jpg,Images/Speaker4.jpg,Audio/Speaker1_En/P1-6-En.wav,Speaker1,گوینده ۱,,,,,,,,,0,16,16,5,86.44653274999837,,,,,,,,,,,,,,,,,,,,,,,,,,,,,,,,,,,,,,,,,,,,,86.42435445799856,86.44653274999837,86.44653274999837,86.44653274999837,86.44653274999837,86.44056724966528,86.44653274999837,86.44653274999837,86.72364724999898,Correct! صحیح است,1,0.2755982500002574,None,0,17,86.7276883329996,86.73864541599869,88.75234008299958,88.72730574999878,88.72732716599967,0.0,False,88.7276174159997,332031,001,2024-07-01_13h00.28.483,5-26,2024.1.4,None,2024-07-01 13h00.33.987594 +0900,
Images/Speaker1.jpg,Images/Speaker2.jpg,Images/Speaker3.jpg,Images/Speaker4.jpg,Audio/Speaker4_En/P4-4-En.wav,Speaker4,گوینده۴,,,,,,,,,0,17,17,63,88.75234008299958,,,,,,,,,,,,,,,,,,,,,,,,,,,,,,,,,,,,,,,,,,,,,88.72831166599826,88.75234008299958,88.75234008299958,88.75234008299958,88.75234008299958,88.75975383333255,88.75234008299958,88.75234008299958,89.05445699999837,Incorrect! The correct answer is Speaker4. نادرست! پاسخ صحیح گوینده۴ است,1,0.29193495899926347,None,0,18,89.05855574999987,89.06838249999964,91.08267562499896,91.05813033300001,91.05813999999918,0.0,False,91.05831654099893,332031,001,2024-07-01_13h00.28.483,5-26,2024.1.4,None,2024-07-01 13h00.33.987594 +0900,
Images/Speaker1.jpg,Images/Speaker2.jpg,Images/Speaker3.jpg,Images/Speaker4.jpg,Audio/Speaker4_En/P4-5-En.wav,Speaker4,گوینده۴,,,,,,,,,0,18,18,64,91.08267562499896,,,,,,,,,,,,,,,,,,,,,,,,,,,,,,,,,,,,,,,,,,,,,91.05849987499823,91.08267562499896,91.08267562499896,91.08267562499896,91.08267562499896,91.09119424933172,91.08267562499896,91.08267562499896,91.46660458299993,Incorrect! The correct answer is Speaker4. نادرست! پاسخ صحیح گوینده۴ است,1,0.3798085409998748,None,0,19,91.47040366599867,91.48323124999843,,93.47459733299911,93.47462662499856,0.0,False,93.47540670799935,332031,001,2024-07-01_13h00.28.483,5-26,2024.1.4,None,2024-07-01 13h00.33.987594 +0900,
Images/Speaker1.jpg,Images/Speaker2.jpg,Images/Speaker3.jpg,Images/Speaker4.jpg,Audio/Speaker3_En/P3-20-En.wav,Speaker3,گوینده۳,,,,,,,,,0,19,19,59,93.49869391599896,,,,,,,,,,,,,,,,,,,,,,,,,,,,,,,,,,,,,,,,,,,,,93.47631570799967,93.49869391599896,93.49869391599896,93.49869391599896,93.49869391599896,93.50775866633242,93.49869391599896,93.49869391599896,93.60969595799907,Incorrect! The correct answer is Speaker3. نادرست! پاسخ صحیح گوینده۳ است,1,0.10998966700026358,None,0,20,93.6138778329987,93.62623683299898,95.63360654099961,95.61109975,95.61111024999991,0.0,False,95.61127479099923,332031,001,2024-07-01_13h00.28.483,5-26,2024.1.4,None,2024-07-01 13h00.33.987594 +0900,
Images/Speaker1.jpg,Images/Speaker2.jpg,Images/Speaker3.jpg,Images/Speaker4.jpg,Audio/Speaker4_En/P4-6-En.wav,Speaker4,گوینده۴,,,,,,,,,0,20,20,65,95.63360654099961,,,,,,,,,,,,,,,,,,,,,,,,,,,,,,,,,,,,,,,,,,,,,95.61145762499837,95.63360654099961,95.63360654099961,95.63360654099961,95.63360654099961,95.62747495766622,95.63360654099961,95.63360654099961,98.43316162499832,Incorrect! The correct answer is Speaker4. نادرست! پاسخ صحیح گوینده۴ است,1,2.798204374999841,None,0,21,98.43700920799893,98.45051070799855,100.46050374999868,100.43678274999911,100.43681604099947,0.0,False,100.43728620799993,332031,001,2024-07-01_13h00.28.483,5-26,2024.1.4,None,2024-07-01 13h00.33.987594 +0900,
Images/Speaker1.jpg,Images/Speaker2.jpg,Images/Speaker3.jpg,Images/Speaker4.jpg,Audio/Speaker2_En/P2-3-En.wav,Speaker2,گوینده۲,,,,,,,,,0,21,21,22,100.46050374999868,,,,,,,,,,,,,,,,,,,,,,,,,,,,,,,,,,,,,,,,,,,,,100.43807416599884,100.46050374999868,100.46050374999868,100.46050374999868,100.46050374999868,100.46917424933284,100.46050374999868,100.46050374999868,100.78434216599999,Incorrect! The correct answer is Speaker2. نادرست! پاسخ صحیح گوینده۲ است,1,0.31100891700043576,None,0,22,100.78829762499845,100.80119833299977,,102.79179216599914,102.79180020799868,0.0,False,102.79195345799963,332031,001,2024-07-01_13h00.28.483,5-26,2024.1.4,None,2024-07-01 13h00.33.987594 +0900,
Images/Speaker1.jpg,Images/Speaker2.jpg,Images/Speaker3.jpg,Images/Speaker4.jpg,Audio/Speaker2_En/P2-12-En.wav,Speaker2,گوینده۲,,,,,,,,,0,22,22,31,102.81408029099839,,,,,,,,,,,,,,,,,,,,,,,,,,,,,,,,,,,,,,,,,,,,,102.79213495799922,102.81408029099839,102.81408029099839,102.81408029099839,102.81408029099839,102.8084227076654,102.81408029099839,102.81408029099839,102.97520566599997,Incorrect! The correct answer is Speaker2. نادرست! پاسخ صحیح گوینده۲ است,1,0.14884254199932911,None,0,23,102.97893762499916,102.98879574999955,104.9988537499994,104.97585758299829,104.97586583299926,0.0,False,104.97604233299899,332031,001,2024-07-01_13h00.28.483,5-26,2024.1.4,None,2024-07-01 13h00.33.987594 +0900,
Images/Speaker1.jpg,Images/Speaker2.jpg,Images/Speaker3.jpg,Images/Speaker4.jpg,Audio/Speaker4_En/P4-18-En.wav,Speaker4,گوینده۴,,,,,,,,,0,23,23,77,104.9988537499994,,,,,,,,,,,,,,,,,,,,,,,,,,,,,,,,,,,,,,,,,,,,,104.9762706249985,104.9988537499994,104.9988537499994,104.9988537499994,104.9988537499994,105.00894149933313,104.9988537499994,104.9988537499994,105.15928820799854,Incorrect! The correct answer is Speaker4. نادرست! پاسخ صحیح گوینده۴ است,1,0.14719191699987277,None,0,24,105.16360724999868,105.17359587499959,107.18727845799913,107.16086095799983,107.16088837499956,0.0,False,107.1612220829993,332031,001,2024-07-01_13h00.28.483,5-26,2024.1.4,None,2024-07-01 13h00.33.987594 +0900,
Images/Speaker1.jpg,Images/Speaker2.jpg,Images/Speaker3.jpg,Images/Speaker4.jpg,Audio/Speaker1_En/P1-8-En.wav,Speaker1,گوینده ۱,,,,,,,,,0,24,24,7,107.18727845799913,,,,,,,,,,,,,,,,,,,,,,,,,,,,,,,,,,,,,,,,,,,,,107.16216970799906,107.18727845799913,107.18727845799913,107.18727845799913,107.18727845799913,107.19331108333293,107.18727845799913,107.18727845799913,107.34431462499924,Correct! صحیح است,1,0.1558416669995495,None,0,25,107.34830279099879,107.35903391599822,109.36495599999944,109.34196604099998,109.34197504099939,0.0,False,109.34211704099835,332031,001,2024-07-01_13h00.28.483,5-26,2024.1.4,None,2024-07-01 13h00.33.987594 +0900,
Images/Speaker1.jpg,Images/Speaker2.jpg,Images/Speaker3.jpg,Images/Speaker4.jpg,Audio/Speaker4_En/P4-8-En.wav,Speaker4,گوینده۴,,,,,,,,,0,25,25,67,109.36495599999944,,,,,,,,,,,,,,,,,,,,,,,,,,,,,,,,,,,,,,,,,,,,,109.34233520799899,109.36495599999944,109.36495599999944,109.36495599999944,109.36495599999944,109.3750701243321,109.36495599999944,109.36495599999944,109.49707608299832,Incorrect! The correct answer is Speaker4. نادرست! پاسخ صحیح گوینده۴ است,1,0.13118033399950946,None,0,26,109.50079983299838,109.51354062499922,111.52124779099904,111.49925516599978,111.49926433299879,0.0,False,111.49944125000002,332031,001,2024-07-01_13h00.28.483,5-26,2024.1.4,None,2024-07-01 13h00.33.987594 +0900,
Images/Speaker1.jpg,Images/Speaker2.jpg,Images/Speaker3.jpg,Images/Speaker4.jpg,Audio/Speaker2_En/P2-18-En.wav,Speaker2,گوینده۲,,,,,,,,,0,26,26,37,111.52124779099904,,,,,,,,,,,,,,,,,,,,,,,,,,,,,,,,,,,,,,,,,,,,,111.49961233299837,111.52124779099904,111.52124779099904,111.52124779099904,111.52124779099904,111.51562366666646,111.52124779099904,111.52124779099904,111.52176816599967,Incorrect! The correct answer is Speaker2. نادرست! پاسخ صحیح گوینده۲ است,1,2.1169947090002097,None,0,27,111.52578533299857,111.53496899999845,113.5474481659985,113.52553754099972,113.52554683299968,0.0,False,113.52569624999887,332031,001,2024-07-01_13h00.28.483,5-26,2024.1.4,None,2024-07-01 13h00.33.987594 +0900,
Images/Speaker1.jpg,Images/Speaker2.jpg,Images/Speaker3.jpg,Images/Speaker4.jpg,Audio/Speaker4_En/P4-7-En.wav,Speaker4,گوینده۴,,,,,,,,,0,27,27,66,113.5474481659985,,,,,,,,,,,,,,,,,,,,,,,,,,,,,,,,,,,,,,,,,,,,,113.52586879099908,113.5474481659985,113.5474481659985,113.5474481659985,113.5474481659985,113.5419982916667,113.5474481659985,113.5474481659985,113.76351033299943,Incorrect! The correct answer is Speaker4. نادرست! پاسخ صحیح گوینده۴ است,1,0.21450658300091163,None,0,28,113.76741158299956,113.78049387499959,,115.76819266599887,115.76823241599959,0.0,False,115.76899545799824,332031,001,2024-07-01_13h00.28.483,5-26,2024.1.4,None,2024-07-01 13h00.33.987594 +0900,
Images/Speaker1.jpg,Images/Speaker2.jpg,Images/Speaker3.jpg,Images/Speaker4.jpg,Audio/Speaker2_En/P2-8-En.wav,Speaker2,گوینده۲,,,,,,,,,0,28,28,27,115.79707312499886,,,,,,,,,,,,,,,,,,,,,,,,,,,,,,,,,,,,,,,,,,,,,115.769813040999,115.79707312499886,115.79707312499886,115.79707312499886,115.79707312499886,115.801310499332,115.79707312499886,115.79707312499886,115.99901116599904,Incorrect! The correct answer is Speaker2. نادرست! پاسخ صحیح گوینده۲ است,1,0.19282941600067716,None,0,29,116.00301349999972,116.0159209579997,118.0216256249987,117.99924312499934,117.99925649999932,0.0,False,117.9994297079993,332031,001,2024-07-01_13h00.28.483,5-26,2024.1.4,None,2024-07-01 13h00.33.987594 +0900,
Images/Speaker1.jpg,Images/Speaker2.jpg,Images/Speaker3.jpg,Images/Speaker4.jpg,Audio/Speaker3_En/P3-19-En.wav,Speaker3,گوینده۳,,,,,,,,,0,29,29,58,118.0216256249987,,,,,,,,,,,,,,,,,,,,,,,,,,,,,,,,,,,,,,,,,,,,,117.99960804099828,118.0216256249987,118.0216256249987,118.0216256249987,118.0216256249987,118.01568137466553,118.0216256249987,118.0216256249987,118.09309187500003,Incorrect! The correct answer is Speaker3. نادرست! پاسخ صحیح گوینده۳ است,1,0.0697003749992291,None,0,30,118.09710033299962,118.10925462499836,120.11879799999952,120.09580958299921,120.09581862499908,0.0,False,120.09608970799854,332031,001,2024-07-01_13h00.28.483,5-26,2024.1.4,None,2024-07-01 13h00.33.987594 +0900,
Images/Speaker1.jpg,Images/Speaker2.jpg,Images/Speaker3.jpg,Images/Speaker4.jpg,Audio/Speaker3_En/P3-3-En.wav,Speaker3,گوینده۳,,,,,,,,,0,30,30,42,120.11879799999952,,,,,,,,,,,,,,,,,,,,,,,,,,,,,,,,,,,,,,,,,,,,,120.09627149999869,120.11879799999952,120.11879799999952,120.11879799999952,120.11879799999952,120.12886558333278,120.11879799999952,120.11879799999952,120.41373258299973,Incorrect! The correct answer is Speaker3. نادرست! پاسخ صحیح گوینده۳ است,1,0.2830845410007896,None,0,31,120.41844624999976,120.43239433299823,122.43986691600003,122.41735091599912,122.41736095799934,0.0,False,122.41751487499823,332031,001,2024-07-01_13h00.28.483,5-26,2024.1.4,None,2024-07-01 13h00.33.987594 +0900,
Images/Speaker1.jpg,Images/Speaker2.jpg,Images/Speaker3.jpg,Images/Speaker4.jpg,Audio/Speaker2_En/P2-10-En.wav,Speaker2,گوینده۲,,,,,,,,,0,31,31,29,122.43986691600003,,,,,,,,,,,,,,,,,,,,,,,,,,,,,,,,,,,,,,,,,,,,,122.41767258299842,122.43986691600003,122.43986691600003,122.43986691600003,122.43986691600003,122.43375933266567,122.43986691600003,122.43986691600003,122.48214866599847,Incorrect! The correct answer is Speaker2. نادرست! پاسخ صحیح گوینده۲ است,1,0.039802582999982405,None,0,32,122.48613899999873,122.49836087499898,124.50629062499866,124.48411191599916,124.4841208329999,0.0,False,124.48427624999931,332031,001,2024-07-01_13h00.28.483,5-26,2024.1.4,None,2024-07-01 13h00.33.987594 +0900,
Images/Speaker1.jpg,Images/Speaker2.jpg,Images/Speaker3.jpg,Images/Speaker4.jpg,Audio/Speaker1_En/P1-12-En.wav,Speaker1,گوینده ۱,,,,,,,,,0,32,32,11,124.50629062499866,,,,,,,,,,,,,,,,,,,,,,,,,,,,,,,,,,,,,,,,,,,,,124.48450799999955,124.50629062499866,124.50629062499866,124.50629062499866,124.50629062499866,124.50057666666568,124.50629062499866,124.50629062499866,124.74362829099846,Correct! صحیح است,1,0.2360060830014845,None,0,33,124.74745312499908,124.75844974999927,,126.75291129099969,126.75291937499969,0.0,False,126.75309258299967,332031,001,2024-07-01_13h00.28.483,5-26,2024.1.4,None,2024-07-01 13h00.33.987594 +0900,
Images/Speaker1.jpg,Images/Speaker2.jpg,Images/Speaker3.jpg,Images/Speaker4.jpg,Audio/Speaker1_En/P1-2-En.wav,Speaker1,گوینده ۱,,,,,,,,,0,33,33,1,126.77755383299882,,,,,,,,,,,,,,,,,,,,,,,,,,,,,,,,,,,,,,,,,,,,,126.75327087499863,126.77755383299882,126.77755383299882,126.77755383299882,126.77755383299882,126.78620858333173,126.77755383299882,126.77755383299882,126.91591858299944,Correct! صحیح است,1,0.13476395799989405,None,0,34,126.9199231249986,126.93087129099877,128.9422838749997,128.9198711249992,128.91987941599837,0.0,False,128.9200160829987,332031,001,2024-07-01_13h00.28.483,5-26,2024.1.4,None,2024-07-01 13h00.33.987594 +0900,
Images/Speaker1.jpg,Images/Speaker2.jpg,Images/Speaker3.jpg,Images/Speaker4.jpg,Audio/Speaker1_En/P1-13-En.wav,Speaker1,گوینده ۱,,,,,,,,,0,34,34,12,128.9422838749997,,,,,,,,,,,,,,,,,,,,,,,,,,,,,,,,,,,,,,,,,,,,,128.92018424999878,128.9422838749997,128.9422838749997,128.9422838749997,128.9422838749997,128.93633166666612,128.9422838749997,128.9422838749997,129.1381172909987,Correct! صحیح است,1,0.19447808400036593,None,0,35,129.1418345409984,129.1527784159989,131.16092237499834,131.13838479099832,131.1383930409993,0.0,False,131.13856470799874,332031,001,2024-07-01_13h00.28.483,5-26,2024.1.4,None,2024-07-01 13h00.33.987594 +0900,
Images/Speaker1.jpg,Images/Speaker2.jpg,Images/Speaker3.jpg,Images/Speaker4.jpg,Audio/Speaker2_En/P2-17-En.wav,Speaker2,گوینده۲,,,,,,,,,0,35,35,36,131.16092237499834,,,,,,,,,,,,,,,,,,,,,,,,,,,,,,,,,,,,,,,,,,,,,131.13873954099836,131.16092237499834,131.16092237499834,131.16092237499834,131.16092237499834,131.15482141666533,131.16092237499834,131.16092237499834,131.3685859999987,Incorrect! The correct answer is Speaker2. نادرست! پاسخ صحیح گوینده۲ است,1,0.2057094160009001,None,0,36,131.37350374999914,131.38854283299952,,133.3779920829984,133.37800412499928,0.0,False,133.37818666599924,332031,001,2024-07-01_13h00.28.483,5-26,2024.1.4,None,2024-07-01 13h00.33.987594 +0900,
Images/Speaker1.jpg,Images/Speaker2.jpg,Images/Speaker3.jpg,Images/Speaker4.jpg,Audio/Speaker1_En/P1-17-En.wav,Speaker1,گوینده ۱,,,,,,,,,0,36,36,16,133.4003242079998,,,,,,,,,,,,,,,,,,,,,,,,,,,,,,,,,,,,,,,,,,,,,133.37835608299974,133.4003242079998,133.4003242079998,133.4003242079998,133.4003242079998,133.39462587466576,133.4003242079998,133.4003242079998,133.4009989999995,Correct! صحیح است,1,2.1929631250004604,None,0,37,133.40495999999985,133.41326200000003,135.42303816599997,135.39948991599886,135.3995143329994,0.0,False,135.39988804099994,332031,001,2024-07-01_13h00.28.483,5-26,2024.1.4,None,2024-07-01 13h00.33.987594 +0900,
Images/Speaker1.jpg,Images/Speaker2.jpg,Images/Speaker3.jpg,Images/Speaker4.jpg,Audio/Speaker3_En/P3-12-En.wav,Speaker3,گوینده۳,,,,,,,,,0,37,37,51,135.42303816599997,,,,,,,,,,,,,,,,,,,,,,,,,,,,,,,,,,,,,,,,,,,,,135.4008709159989,135.42303816599997,135.42303816599997,135.42303816599997,135.42303816599997,135.4319821663326,135.42303816599997,135.42303816599997,135.71200149999822,Incorrect! The correct answer is Speaker3. نادرست! پاسخ صحیح گوینده۳ است,1,0.2792585000006511,None,0,38,135.71630454099977,135.72952108299978,,137.72120933299993,137.72123558299973,0.0,False,137.72201787499944,332031,001,2024-07-01_13h00.28.483,5-26,2024.1.4,None,2024-07-01 13h00.33.987594 +0900,
Images/Speaker1.jpg,Images/Speaker2.jpg,Images/Speaker3.jpg,Images/Speaker4.jpg,Audio/Speaker4_En/P4-2-En.wav,Speaker4,گوینده۴,,,,,,,,,0,38,38,61,137.74729108299834,,,,,,,,,,,,,,,,,,,,,,,,,,,,,,,,,,,,,,,,,,,,,137.72290408299887,137.74729108299834,137.74729108299834,137.74729108299834,137.74729108299834,137.75440741633298,137.74729108299834,137.74729108299834,137.99944483299987,Incorrect! The correct answer is Speaker4. نادرست! پاسخ صحیح گوینده۴ است,1,0.24120774999937566,None,0,39,138.00380958299866,138.01620391599863,140.02785462499924,140.00461524999992,140.00466674999916,0.0,False,140.00509666599828,332031,001,2024-07-01_13h00.28.483,5-26,2024.1.4,None,2024-07-01 13h00.33.987594 +0900,
Images/Speaker1.jpg,Images/Speaker2.jpg,Images/Speaker3.jpg,Images/Speaker4.jpg,Audio/Speaker3_En/P3-10-En.wav,Speaker3,گوینده۳,,,,,,,,,0,39,39,49,140.02785462499924,,,,,,,,,,,,,,,,,,,,,,,,,,,,,,,,,,,,,,,,,,,,,140.00604274999932,140.02785462499924,140.02785462499924,140.02785462499924,140.02785462499924,140.03702141633272,140.02785462499924,140.02785462499924,140.07272012499925,Incorrect! The correct answer is Speaker3. نادرست! پاسخ صحیح گوینده۳ است,1,0.03644354100106284,None,0,40,140.07702729099947,140.0870502079997,142.0990369579995,142.07647979099966,142.07648895799866,0.0,False,142.0766415829985,332031,001,2024-07-01_13h00.28.483,5-26,2024.1.4,None,2024-07-01 13h00.33.987594 +0900,
Images/Speaker1.jpg,Images/Speaker2.jpg,Images/Speaker3.jpg,Images/Speaker4.jpg,Audio/Speaker2_En/P2-15-En.wav,Speaker2,گوینده۲,,,,,,,,,0,40,40,34,142.0990369579995,,,,,,,,,,,,,,,,,,,,,,,,,,,,,,,,,,,,,,,,,,,,,142.0768135829985,142.0990369579995,142.0990369579995,142.0990369579995,142.0990369579995,142.09289345766618,142.0990369579995,142.0990369579995,142.3056694579991,Incorrect! The correct answer is Speaker2. نادرست! پاسخ صحیح گوینده۲ است,1,0.20493966600042768,None,0,41,142.30941087499923,142.32433924999896,,144.31815804099824,144.31819774999894,0.0,False,144.31889458299884,332031,001,2024-07-01_13h00.28.483,5-26,2024.1.4,None,2024-07-01 13h00.33.987594 +0900,
Images/Speaker1.jpg,Images/Speaker2.jpg,Images/Speaker3.jpg,Images/Speaker4.jpg,Audio/Speaker1_En/P1-4-En.wav,Speaker1,گوینده ۱,,,,,,,,,0,41,41,3,144.3446046659992,,,,,,,,,,,,,,,,,,,,,,,,,,,,,,,,,,,,,,,,,,,,,144.31948191599986,144.3446046659992,144.3446046659992,144.3446046659992,144.3446046659992,144.35128220833263,144.3446046659992,144.3446046659992,144.41770333299974,Correct! صحیح است,1,0.0686545840017061,None,0,42,144.42192012499982,144.43303141599972,,146.4264427909984,146.42649170799996,0.0,False,146.427320666,332031,001,2024-07-01_13h00.28.483,5-26,2024.1.4,None,2024-07-01 13h00.33.987594 +0900,
Images/Speaker1.jpg,Images/Speaker2.jpg,Images/Speaker3.jpg,Images/Speaker4.jpg,Audio/Speaker1_En/P1-16-En.wav,Speaker1,گوینده ۱,,,,,,,,,0,42,42,15,146.45250195799963,,,,,,,,,,,,,,,,,,,,,,,,,,,,,,,,,,,,,,,,,,,,,146.42800166599955,146.45250195799963,146.45250195799963,146.45250195799963,146.45250195799963,146.45957958333253,146.45250195799963,146.45250195799963,146.87507820799874,Correct! صحیح است,1,0.41065400000115915,None,0,43,146.8788399999994,146.8872097909989,148.89597766599945,148.87190358299995,148.8719122909988,0.0,False,148.87207066599876,332031,001,2024-07-01_13h00.28.483,5-26,2024.1.4,None,2024-07-01 13h00.33.987594 +0900,
Images/Speaker1.jpg,Images/Speaker2.jpg,Images/Speaker3.jpg,Images/Speaker4.jpg,Audio/Speaker4_En/P4-1-En.wav,Speaker4,گوینده۴,,,,,,,,,0,43,43,60,148.89597766599945,,,,,,,,,,,,,,,,,,,,,,,,,,,,,,,,,,,,,,,,,,,,,148.87224441599938,148.89597766599945,148.89597766599945,148.89597766599945,148.89597766599945,148.90497937433298,148.89597766599945,148.89597766599945,149.0771360409999,Incorrect! The correct answer is Speaker4. نادرست! پاسخ صحیح گوینده۴ است,1,0.1783450829989306,None,0,44,149.08097704099964,149.09370095799932,,151.0820539159995,151.08206787499876,0.0,False,151.08228479099853,332031,001,2024-07-01_13h00.28.483,5-26,2024.1.4,None,2024-07-01 13h00.33.987594 +0900,
Images/Speaker1.jpg,Images/Speaker2.jpg,Images/Speaker3.jpg,Images/Speaker4.jpg,Audio/Speaker2_En/P2-6-En.wav,Speaker2,گوینده۲,,,,,,,,,0,44,44,25,151.10524420799993,,,,,,,,,,,,,,,,,,,,,,,,,,,,,,,,,,,,,,,,,,,,,151.0824834999985,151.10524420799993,151.10524420799993,151.10524420799993,151.10524420799993,151.09865570766513,151.10524420799993,151.10524420799993,151.3029389159983,Incorrect! The correct answer is Speaker2. نادرست! پاسخ صحیح گوینده۲ است,1,0.18904024999937974,None,0,45,151.30791924999903,151.3221704159987,153.3280007079993,153.3059677909987,153.30597749999833,0.0,False,153.30614720799895,332031,001,2024-07-01_13h00.28.483,5-26,2024.1.4,None,2024-07-01 13h00.33.987594 +0900,
Images/Speaker1.jpg,Images/Speaker2.jpg,Images/Speaker3.jpg,Images/Speaker4.jpg,Audio/Speaker2_En/P2-5-En.wav,Speaker2,گوینده۲,,,,,,,,,0,45,45,24,153.3280007079993,,,,,,,,,,,,,,,,,,,,,,,,,,,,,,,,,,,,,,,,,,,,,153.3063111249994,153.3280007079993,153.3280007079993,153.3280007079993,153.3280007079993,153.32231533266557,153.3280007079993,153.3280007079993,153.50022762499975,Incorrect! The correct answer is Speaker2. نادرست! پاسخ صحیح گوینده۲ است,1,0.1697413330002746,None,0,46,153.50448929099912,153.51774470799865,,155.50846612499845,155.50847437499942,0.0,False,155.50866445799875,332031,001,2024-07-01_13h00.28.483,5-26,2024.1.4,None,2024-07-01 13h00.33.987594 +0900,
Images/Speaker1.jpg,Images/Speaker2.jpg,Images/Speaker3.jpg,Images/Speaker4.jpg,Audio/Speaker2_En/P2-1-En.wav,Speaker2,گوینده۲,,,,,,,,,0,46,46,20,155.53078370799994,,,,,,,,,,,,,,,,,,,,,,,,,,,,,,,,,,,,,,,,,,,,,155.5088229159992,155.53078370799994,155.53078370799994,155.53078370799994,155.53078370799994,155.52509749966546,155.53078370799994,155.53078370799994,155.78388158300004,Incorrect! The correct answer is Speaker2. نادرست! پاسخ صحیح گوینده۲ است,1,0.2408335830004944,None,0,47,155.78763254099977,155.7980504999996,,157.7931038329989,157.79311874999985,0.0,False,157.79330033299993,332031,001,2024-07-01_13h00.28.483,5-26,2024.1.4,None,2024-07-01 13h00.33.987594 +0900,
Images/Speaker1.jpg,Images/Speaker2.jpg,Images/Speaker3.jpg,Images/Speaker4.jpg,Audio/Speaker1_En/P1-5-En.wav,Speaker1,گوینده ۱,,,,,,,,,0,47,47,4,157.81493324999974,,,,,,,,,,,,,,,,,,,,,,,,,,,,,,,,,,,,,,,,,,,,,157.79348483299873,157.81493324999974,157.81493324999974,157.81493324999974,157.81493324999974,157.80972741666508,157.81493324999974,157.81493324999974,157.9446364159994,Correct! صحیح است,1,0.11921479200100293,None,0,48,157.94853341599992,157.9592110829999,159.9651065829985,159.94192916599968,159.94193812499907,0.0,False,159.94210849999945,332031,001,2024-07-01_13h00.28.483,5-26,2024.1.4,None,2024-07-01 13h00.33.987594 +0900,
Images/Speaker1.jpg,Images/Speaker2.jpg,Images/Speaker3.jpg,Images/Speaker4.jpg,Audio/Speaker4_En/P4-16-En.wav,Speaker4,گوینده۴,,,,,,,,,0,48,48,75,159.9651065829985,,,,,,,,,,,,,,,,,,,,,,,,,,,,,,,,,,,,,,,,,,,,,159.9422859999995,159.9651065829985,159.9651065829985,159.9651065829985,159.9651065829985,159.97498383333237,159.9651065829985,159.9651065829985,159.97633120799946,Incorrect! The correct answer is Speaker4. نادرست! پاسخ صحیح گوینده۴ است,1,0.009813917000428773,None,0,49,159.9804081659986,159.99312283299878,161.99991633299942,161.97659287499846,161.97660287500003,0.0,False,161.9767619159993,332031,001,2024-07-01_13h00.28.483,5-26,2024.1.4,None,2024-07-01 13h00.33.987594 +0900,
Images/Speaker1.jpg,Images/Speaker2.jpg,Images/Speaker3.jpg,Images/Speaker4.jpg,Audio/Speaker1_En/P1-11-En.wav,Speaker1,گوینده ۱,,,,,,,,,0,49,49,10,161.99991633299942,,,,,,,,,,,,,,,,,,,,,,,,,,,,,,,,,,,,,,,,,,,,,161.97695962499893,161.99991633299942,161.99991633299942,161.99991633299942,161.99991633299942,162.0096140413321,161.99991633299942,161.99991633299942,162.2209412909997,Correct! صحیح است,1,0.21098337500006892,None,0,50,162.22519466599988,162.23380833299962,,164.22582124999826,164.22585216599873,0.0,False,164.22675104099835,332031,001,2024-07-01_13h00.28.483,5-26,2024.1.4,None,2024-07-01 13h00.33.987594 +0900,
Images/Speaker1.jpg,Images/Speaker2.jpg,Images/Speaker3.jpg,Images/Speaker4.jpg,Audio/Speaker3_En/P3-18-En.wav,Speaker3,گوینده۳,,,,,,,,,0,50,50,57,164.25247574999958,,,,,,,,,,,,,,,,,,,,,,,,,,,,,,,,,,,,,,,,,,,,,164.22731208299956,164.25247574999958,164.25247574999958,164.25247574999958,164.25247574999958,164.25898554133215,164.25247574999958,164.25247574999958,164.4135254999983,Incorrect! The correct answer is Speaker3. نادرست! پاسخ صحیح گوینده۳ است,1,0.155663249999634,None,0,51,164.41755720799847,164.43073558299875,166.4372844999998,166.41423374999977,166.4142431249984,0.0,False,166.41440062499896,332031,001,2024-07-01_13h00.28.483,5-26,2024.1.4,None,2024-07-01 13h00.33.987594 +0900,
Images/Speaker1.jpg,Images/Speaker2.jpg,Images/Speaker3.jpg,Images/Speaker4.jpg,Audio/Speaker4_En/P4-10-En.wav,Speaker4,گوینده۴,,,,,,,,,0,51,51,69,166.4372844999998,,,,,,,,,,,,,,,,,,,,,,,,,,,,,,,,,,,,,,,,,,,,,166.41457770799934,166.4372844999998,166.4372844999998,166.4372844999998,166.4372844999998,166.44734008333268,166.4372844999998,166.4372844999998,166.61777537499984,Incorrect! The correct answer is Speaker4. نادرست! پاسخ صحیح گوینده۴ است,1,0.1707133750005596,None,0,52,166.62170862499988,166.63409829099874,168.64387824999903,168.61987549999867,168.61990695799977,0.0,False,168.62031779099925,332031,001,2024-07-01_13h00.28.483,5-26,2024.1.4,None,2024-07-01 13h00.33.987594 +0900,
Images/Speaker1.jpg,Images/Speaker2.jpg,Images/Speaker3.jpg,Images/Speaker4.jpg,Audio/Speaker2_En/P2-13-En.wav,Speaker2,گوینده۲,,,,,,,,,0,52,52,32,168.64387824999903,,,,,,,,,,,,,,,,,,,,,,,,,,,,,,,,,,,,,,,,,,,,,168.6213012499993,168.64387824999903,168.64387824999903,168.64387824999903,168.64387824999903,168.65220591633312,168.64387824999903,168.64387824999903,168.84197341599975,Incorrect! The correct answer is Speaker2. نادرست! پاسخ صحیح گوینده۲ است,1,0.19207112499861978,None,0,53,168.8460966249986,168.85872016599933,,170.8518444579986,170.85190174999843,0.0,False,170.85256483299963,332031,001,2024-07-01_13h00.28.483,5-26,2024.1.4,None,2024-07-01 13h00.33.987594 +0900,
Images/Speaker1.jpg,Images/Speaker2.jpg,Images/Speaker3.jpg,Images/Speaker4.jpg,Audio/Speaker3_En/P3-8-En.wav,Speaker3,گوینده۳,,,,,,,,,0,53,53,47,170.8768810829988,,,,,,,,,,,,,,,,,,,,,,,,,,,,,,,,,,,,,,,,,,,,,170.8533699999989,170.8768810829988,170.8768810829988,170.8768810829988,170.8768810829988,170.8850099993329,170.8768810829988,170.8768810829988,171.038047,Incorrect! The correct answer is Speaker3. نادرست! پاسخ صحیح گوینده۳ است,1,0.15667587500138325,None,0,54,171.04234137499952,171.0549110409993,173.0641370409994,173.04089341599865,173.04090158299914,0.0,False,173.04105595799956,332031,001,2024-07-01_13h00.28.483,5-26,2024.1.4,None,2024-07-01 13h00.33.987594 +0900,
Images/Speaker1.jpg,Images/Speaker2.jpg,Images/Speaker3.jpg,Images/Speaker4.jpg,Audio/Speaker4_En/P4-13-En.wav,Speaker4,گوینده۴,,,,,,,,,0,54,54,72,173.0641370409994,,,,,,,,,,,,,,,,,,,,,,,,,,,,,,,,,,,,,,,,,,,,,173.04126474999975,173.0641370409994,173.0641370409994,173.0641370409994,173.0641370409994,173.07398058333325,173.0641370409994,173.0641370409994,173.25855566599967,Incorrect! The correct answer is Speaker4. نادرست! پاسخ صحیح گوینده۴ است,1,0.1884055000009539,None,0,55,173.26236179099942,173.27488208299837,175.2850629579989,175.25965154099868,175.25968816599925,0.0,False,175.2600383329991,332031,001,2024-07-01_13h00.28.483,5-26,2024.1.4,None,2024-07-01 13h00.33.987594 +0900,
Images/Speaker1.jpg,Images/Speaker2.jpg,Images/Speaker3.jpg,Images/Speaker4.jpg,Audio/Speaker2_En/P2-16-En.wav,Speaker2,گوینده۲,,,,,,,,,0,55,55,35,175.2850629579989,,,,,,,,,,,,,,,,,,,,,,,,,,,,,,,,,,,,,,,,,,,,,175.2605562079989,175.2850629579989,175.2850629579989,175.2850629579989,175.2850629579989,175.29193466633166,175.2850629579989,175.2850629579989,175.47515974999988,Incorrect! The correct answer is Speaker2. نادرست! پاسخ صحیح گوینده۲ است,1,0.18469979200017406,None,0,56,175.479293082999,175.4921206659983,177.50282383299964,177.47817450000002,177.47821341599956,0.0,False,177.47861045799982,332031,001,2024-07-01_13h00.28.483,5-26,2024.1.4,None,2024-07-01 13h00.33.987594 +0900,
Images/Speaker1.jpg,Images/Speaker2.jpg,Images/Speaker3.jpg,Images/Speaker4.jpg,Audio/Speaker4_En/P4-17-En.wav,Speaker4,گوینده۴,,,,,,,,,0,56,56,76,177.50282383299964,,,,,,,,,,,,,,,,,,,,,,,,,,,,,,,,,,,,,,,,,,,,,177.47955287499826,177.50282383299964,177.50282383299964,177.50282383299964,177.50282383299964,177.5104822083327,177.50282383299964,177.50282383299964,177.77425420799955,Incorrect! The correct answer is Speaker4. نادرست! پاسخ صحیح گوینده۴ است,1,0.2691798750001908,None,0,57,177.77831737499946,177.79114008299985,,179.78395829099827,179.78398629099866,0.0,False,179.78471974999957,332031,001,2024-07-01_13h00.28.483,5-26,2024.1.4,None,2024-07-01 13h00.33.987594 +0900,
Images/Speaker1.jpg,Images/Speaker2.jpg,Images/Speaker3.jpg,Images/Speaker4.jpg,Audio/Speaker4_En/P4-19-En.wav,Speaker4,گوینده۴,,,,,,,,,0,57,57,78,179.8107247909993,,,,,,,,,,,,,,,,,,,,,,,,,,,,,,,,,,,,,,,,,,,,,179.78524837499936,179.8107247909993,179.8107247909993,179.8107247909993,179.8107247909993,179.8171299993324,179.8107247909993,179.8107247909993,180.06673604099888,Incorrect! The correct answer is Speaker4. نادرست! پاسخ صحیح گوینده۴ است,1,0.2491032500001893,None,0,58,180.0708765829986,180.08378654099943,,182.0753237079989,182.07535562499834,0.0,False,182.07608079099919,332031,001,2024-07-01_13h00.28.483,5-26,2024.1.4,None,2024-07-01 13h00.33.987594 +0900,
Images/Speaker1.jpg,Images/Speaker2.jpg,Images/Speaker3.jpg,Images/Speaker4.jpg,Audio/Speaker4_En/P4-20-En.wav,Speaker4,گوینده۴,,,,,,,,,0,58,58,79,182.10020204099965,,,,,,,,,,,,,,,,,,,,,,,,,,,,,,,,,,,,,,,,,,,,,182.07669433299998,182.10020204099965,182.10020204099965,182.10020204099965,182.10020204099965,182.1085005833325,182.10020204099965,182.10020204099965,182.30556120799884,Incorrect! The correct answer is Speaker4. نادرست! پاسخ صحیح گوینده۴ است,1,0.20085779200053366,None,0,59,182.3096211659995,182.3226936659994,184.3311041249999,184.30824908299837,184.30825837499833,0.0,False,184.308411041,332031,001,2024-07-01_13h00.28.483,5-26,2024.1.4,None,2024-07-01 13h00.33.987594 +0900,
Images/Speaker1.jpg,Images/Speaker2.jpg,Images/Speaker3.jpg,Images/Speaker4.jpg,Audio/Speaker1_En/P1-7-En.wav,Speaker1,گوینده ۱,,,,,,,,,0,59,59,6,184.3311041249999,,,,,,,,,,,,,,,,,,,,,,,,,,,,,,,,,,,,,,,,,,,,,184.30860483299875,184.3311041249999,184.3311041249999,184.3311041249999,184.3311041249999,184.32468483266555,184.3311041249999,184.3311041249999,184.36786774999928,Correct! صحیح است,1,0.03081029100030719,None,0,60,184.37178741599928,184.38249812499998,186.38999370799866,186.3676879579998,186.3676958749984,0.0,False,186.3678554579983,332031,001,2024-07-01_13h00.28.483,5-26,2024.1.4,None,2024-07-01 13h00.33.987594 +0900,
Images/Speaker1.jpg,Images/Speaker2.jpg,Images/Speaker3.jpg,Images/Speaker4.jpg,Audio/Speaker1_En/P1-10-En.wav,Speaker1,گوینده ۱,,,,,,,,,0,60,60,9,186.38999370799866,,,,,,,,,,,,,,,,,,,,,,,,,,,,,,,,,,,,,,,,,,,,,186.36804508299974,186.38999370799866,186.38999370799866,186.38999370799866,186.38999370799866,186.3841388746662,186.38999370799866,186.38999370799866,186.62698466599977,Correct! صحیح است,1,0.23385529200095334,None,0,61,186.63089441599914,186.64233883299858,,188.63795379099975,188.6379879999986,0.0,False,188.63874537499942,332031,001,2024-07-01_13h00.28.483,5-26,2024.1.4,None,2024-07-01 13h00.33.987594 +0900,
Images/Speaker1.jpg,Images/Speaker2.jpg,Images/Speaker3.jpg,Images/Speaker4.jpg,Audio/Speaker4_En/P4-15-En.wav,Speaker4,گوینده۴,,,,,,,,,0,61,61,74,188.6672012909985,,,,,,,,,,,,,,,,,,,,,,,,,,,,,,,,,,,,,,,,,,,,,188.63969191599972,188.6672012909985,188.6672012909985,188.6672012909985,188.6672012909985,188.67111633333167,188.6672012909985,188.6672012909985,188.8231897909991,Incorrect! The correct answer is Speaker4. نادرست! پاسخ صحیح گوینده۴ است,1,0.15322804199968232,None,0,62,188.8274244159984,188.83966662499915,,190.8318667909989,190.83190283299882,0.0,False,190.83312479099914,332031,001,2024-07-01_13h00.28.483,5-26,2024.1.4,None,2024-07-01 13h00.33.987594 +0900,
Images/Speaker1.jpg,Images/Speaker2.jpg,Images/Speaker3.jpg,Images/Speaker4.jpg,Audio/Speaker3_En/P3-15-En.wav,Speaker3,گوینده۳,,,,,,,,,0,62,62,54,190.8601090409993,,,,,,,,,,,,,,,,,,,,,,,,,,,,,,,,,,,,,,,,,,,,,190.8341162079996,190.8601090409993,190.8601090409993,190.8601090409993,190.8601090409993,190.86499449933268,190.8601090409993,190.8601090409993,190.88738374999957,Incorrect! The correct answer is Speaker3. نادرست! پاسخ صحیح گوینده۳ است,1,0.02271337499951187,None,0,63,190.89152999999897,190.90437341599863,,192.89892841599976,192.89897008299886,0.0,False,192.89996533299927,332031,001,2024-07-01_13h00.28.483,5-26,2024.1.4,None,2024-07-01 13h00.33.987594 +0900,
Images/Speaker1.jpg,Images/Speaker2.jpg,Images/Speaker3.jpg,Images/Speaker4.jpg,Audio/Speaker3_En/P3-6-En.wav,Speaker3,گوینده۳,,,,,,,,,0,63,63,45,192.92494133299988,,,,,,,,,,,,,,,,,,,,,,,,,,,,,,,,,,,,,,,,,,,,,192.90090833299837,192.92494133299988,192.92494133299988,192.92494133299988,192.92494133299988,192.93210720833173,192.92494133299988,192.92494133299988,193.04773879099957,Incorrect! The correct answer is Speaker3. نادرست! پاسخ صحیح گوینده۳ است,1,0.11123008300091897,None,0,64,193.05151708299854,193.06518587499886,,195.05705787499937,195.05709362499874,0.0,False,195.0581884159983,332031,001,2024-07-01_13h00.28.483,5-26,2024.1.4,None,2024-07-01 13h00.33.987594 +0900,
Images/Speaker1.jpg,Images/Speaker2.jpg,Images/Speaker3.jpg,Images/Speaker4.jpg,Audio/Speaker3_En/P3-5-En.wav,Speaker3,گوینده۳,,,,,,,,,0,64,64,44,195.08494904099825,,,,,,,,,,,,,,,,,,,,,,,,,,,,,,,,,,,,,,,,,,,,,195.05915099999947,195.08494904099825,195.08494904099825,195.08494904099825,195.08494904099825,195.09023874933206,195.08494904099825,195.08494904099825,195.2482262909998,Incorrect! The correct answer is Speaker3. نادرست! پاسخ صحیح گوینده۳ است,1,0.1548242080007185,None,0,65,195.2521550829988,195.26493820799988,,197.25601687499875,197.25604216599822,0.0,False,197.25672608299828,332031,001,2024-07-01_13h00.28.483,5-26,2024.1.4,None,2024-07-01 13h00.33.987594 +0900,
Images/Speaker1.jpg,Images/Speaker2.jpg,Images/Speaker3.jpg,Images/Speaker4.jpg,Audio/Speaker1_En/P1-9-En.wav,Speaker1,گوینده ۱,,,,,,,,,0,65,65,8,197.28264620799928,,,,,,,,,,,,,,,,,,,,,,,,,,,,,,,,,,,,,,,,,,,,,197.25749149999865,197.28264620799928,197.28264620799928,197.28264620799928,197.28264620799928,197.28919299933165,197.28264620799928,197.28264620799928,197.388661125,Correct! صحیح است,1,0.10497687500173924,None,0,66,197.3927864999987,197.40415499999835,,199.3985902079985,199.39862924999943,0.0,False,199.39944233299866,332031,001,2024-07-01_13h00.28.483,5-26,2024.1.4,None,2024-07-01 13h00.33.987594 +0900,
Images/Speaker1.jpg,Images/Speaker2.jpg,Images/Speaker3.jpg,Images/Speaker4.jpg,Audio/Speaker3_En/P3-1-En.wav,Speaker3,گوینده۳,,,,,,,,,0,66,66,40,199.4243922079986,,,,,,,,,,,,,,,,,,,,,,,,,,,,,,,,,,,,,,,,,,,,,199.40042391599854,199.4243922079986,199.4243922079986,199.4243922079986,199.4243922079986,199.43176716633258,199.4243922079986,199.4243922079986,199.56861487499918,Incorrect! The correct answer is Speaker3. نادرست! پاسخ صحیح گوینده۳ است,1,0.1404562910011009,None,0,67,199.57250854099948,199.58504020799955,201.59393637499852,201.57162004099882,201.5716295409984,0.0,False,201.57180433299982,332031,001,2024-07-01_13h00.28.483,5-26,2024.1.4,None,2024-07-01 13h00.33.987594 +0900,
Images/Speaker1.jpg,Images/Speaker2.jpg,Images/Speaker3.jpg,Images/Speaker4.jpg,Audio/Speaker3_En/P3-16-En.wav,Speaker3,گوینده۳,,,,,,,,,0,67,67,55,201.59393637499852,,,,,,,,,,,,,,,,,,,,,,,,,,,,,,,,,,,,,,,,,,,,,201.5720038749987,201.59393637499852,201.59393637499852,201.59393637499852,201.59393637499852,201.5880057916659,201.59393637499852,201.59393637499852,201.59459620799862,Incorrect! The correct answer is Speaker3. نادرست! پاسخ صحیح گوینده۳ است,1,2.1348179159995198,None,0,68,201.59841495799992,201.6082317499986,203.61597129099937,203.59155395799826,203.59156291599902,0.0,False,203.5917209579984,332031,001,2024-07-01_13h00.28.483,5-26,2024.1.4,None,2024-07-01 13h00.33.987594 +0900,
Images/Speaker1.jpg,Images/Speaker2.jpg,Images/Speaker3.jpg,Images/Speaker4.jpg,Audio/Speaker1_En/P1-15-En.wav,Speaker1,گوینده ۱,,,,,,,,,0,68,68,14,203.61597129099937,,,,,,,,,,,,,,,,,,,,,,,,,,,,,,,,,,,,,,,,,,,,,203.5918942499993,203.61597129099937,203.61597129099937,203.61597129099937,203.61597129099937,203.62469220833242,203.61597129099937,203.61597129099937,203.85310062499957,Correct! صحیح است,1,0.23332287500124949,None,0,69,203.85687945799873,203.86791045799873,205.87933066599908,205.85634970799947,205.85637512499852,0.0,False,205.85657824999907,332031,001,2024-07-01_13h00.28.483,5-26,2024.1.4,None,2024-07-01 13h00.33.987594 +0900,
Images/Speaker1.jpg,Images/Speaker2.jpg,Images/Speaker3.jpg,Images/Speaker4.jpg,Audio/Speaker3_En/P3-7-En.wav,Speaker3,گوینده۳,,,,,,,,,0,69,69,46,205.87933066599908,,,,,,,,,,,,,,,,,,,,,,,,,,,,,,,,,,,,,,,,,,,,,205.85678212499988,205.87933066599908,205.87933066599908,205.87933066599908,205.87933066599908,205.8893467083331,205.87933066599908,205.87933066599908,206.03447920799954,Incorrect! The correct answer is Speaker3. نادرست! پاسخ صحیح گوینده۳ است,1,0.15273045799949614,None,0,70,206.03848091599866,206.0512614579984,,208.04069399999935,208.04071699999986,0.0,False,208.04154079099862,332031,001,2024-07-01_13h00.28.483,5-26,2024.1.4,None,2024-07-01 13h00.33.987594 +0900,
Images/Speaker1.jpg,Images/Speaker2.jpg,Images/Speaker3.jpg,Images/Speaker4.jpg,Audio/Speaker4_En/P4-3-En.wav,Speaker4,گوینده۴,,,,,,,,,0,70,70,62,208.06537712499994,,,,,,,,,,,,,,,,,,,,,,,,,,,,,,,,,,,,,,,,,,,,,208.04254070799834,208.06537712499994,208.06537712499994,208.06537712499994,208.06537712499994,208.073845249332,208.06537712499994,208.06537712499994,208.28095445799954,Incorrect! The correct answer is Speaker4. نادرست! پاسخ صحیح گوینده۴ است,1,0.21416691599915794,None,0,71,208.28505666599995,208.29976658299893,,210.28792370799965,210.28793183299967,0.0,False,210.28813629099932,332031,001,2024-07-01_13h00.28.483,5-26,2024.1.4,None,2024-07-01 13h00.33.987594 +0900,
Images/Speaker1.jpg,Images/Speaker2.jpg,Images/Speaker3.jpg,Images/Speaker4.jpg,Audio/Speaker3_En/P3-13-En.wav,Speaker3,گوینده۳,,,,,,,,,0,71,71,52,210.31133574999876,,,,,,,,,,,,,,,,,,,,,,,,,,,,,,,,,,,,,,,,,,,,,210.28834229099994,210.31133574999876,210.31133574999876,210.31133574999876,210.31133574999876,210.32121312433316,210.31133574999876,210.31133574999876,210.42109704099857,Incorrect! The correct answer is Speaker3. نادرست! پاسخ صحیح گوینده۳ است,1,0.10321750000002794,None,0,72,210.4253739579999,210.4373641659986,,212.43027770799927,212.4303242499991,0.0,False,212.43109758299943,332031,001,2024-07-01_13h00.28.483,5-26,2024.1.4,None,2024-07-01 13h00.33.987594 +0900,
Images/Speaker1.jpg,Images/Speaker2.jpg,Images/Speaker3.jpg,Images/Speaker4.jpg,Audio/Speaker2_En/P2-4-En.wav,Speaker2,گوینده۲,,,,,,,,,0,72,72,23,212.45767112499925,,,,,,,,,,,,,,,,,,,,,,,,,,,,,,,,,,,,,,,,,,,,,212.43170129099963,212.45767112499925,212.45767112499925,212.45767112499925,212.45767112499925,212.46343191633292,212.45767112499925,212.45767112499925,212.5626772079995,Incorrect! The correct answer is Speaker2. نادرست! پاسخ صحیح گوینده۲ است,1,0.09304891600004339,None,0,73,212.56694495800002,212.576844833,214.59096699999827,214.56525845799843,214.5652944579997,0.0,False,214.56566958299845,332031,001,2024-07-01_13h00.28.483,5-26,2024.1.4,None,2024-07-01 13h00.33.987594 +0900,
Images/Speaker1.jpg,Images/Speaker2.jpg,Images/Speaker3.jpg,Images/Speaker4.jpg,Audio/Speaker4_En/P4-14-En.wav,Speaker4,گوینده۴,,,,,,,,,0,73,73,73,214.59096699999827,,,,,,,,,,,,,,,,,,,,,,,,,,,,,,,,,,,,,,,,,,,,,214.56660466599897,214.59096699999827,214.59096699999827,214.59096699999827,214.59096699999827,214.59768645833225,214.59096699999827,214.59096699999827,214.61167795799884,Incorrect! The correct answer is Speaker4. نادرست! پاسخ صحیح گوینده۴ است,1,0.017834041000241996,None,0,74,214.61542104099863,214.62789212499956,216.6353557909988,216.61189408299833,216.61190329099918,0.0,False,216.61205804099882,332031,001,2024-07-01_13h00.28.483,5-26,2024.1.4,None,2024-07-01 13h00.33.987594 +0900,
Images/Speaker1.jpg,Images/Speaker2.jpg,Images/Speaker3.jpg,Images/Speaker4.jpg,Audio/Speaker3_En/P3-11-En.wav,Speaker3,گوینده۳,,,,,,,,,0,74,74,50,216.6353557909988,,,,,,,,,,,,,,,,,,,,,,,,,,,,,,,,,,,,,,,,,,,,,216.61222537499998,216.6353557909988,216.6353557909988,216.6353557909988,216.6353557909988,216.64496929133253,216.6353557909988,216.6353557909988,216.84779424999942,Incorrect! The correct answer is Speaker3. نادرست! پاسخ صحیح گوینده۳ است,1,0.20158016599998518,None,0,75,216.8516487909983,216.8639793329985,,218.8576079579998,218.85764299999937,0.0,False,218.85846195799968,332031,001,2024-07-01_13h00.28.483,5-26,2024.1.4,None,2024-07-01 13h00.33.987594 +0900,
Images/Speaker1.jpg,Images/Speaker2.jpg,Images/Speaker3.jpg,Images/Speaker4.jpg,Audio/Speaker2_En/P2-7-En.wav,Speaker2,گوینده۲,,,,,,,,,0,75,75,26,218.88180824999836,,,,,,,,,,,,,,,,,,,,,,,,,,,,,,,,,,,,,,,,,,,,,218.8594347499984,218.88180824999836,218.88180824999836,218.88180824999836,218.88180824999836,218.89076329133292,218.88180824999836,218.88180824999836,219.0222891249996,Incorrect! The correct answer is Speaker2. نادرست! پاسخ صحیح گوینده۲ است,1,0.13605658300002688,None,0,76,219.02694299999894,219.04133883299983,,221.02704070799882,221.0270539159992,0.0,False,221.0272700409987,332031,001,2024-07-01_13h00.28.483,5-26,2024.1.4,None,2024-07-01 13h00.33.987594 +0900,
Images/Speaker1.jpg,Images/Speaker2.jpg,Images/Speaker3.jpg,Images/Speaker4.jpg,Audio/Speaker1_En/P1-20-En.wav,Speaker1,گوینده ۱,,,,,,,,,0,76,76,19,221.04992912499984,,,,,,,,,,,,,,,,,,,,,,,,,,,,,,,,,,,,,,,,,,,,,221.02745229099855,221.04992912499984,221.04992912499984,221.04992912499984,221.04992912499984,221.04367183266575,221.04992912499984,221.04992912499984,221.05050308299906,Correct! صحیح است,1,2.0845729170014238,None,0,77,221.05446295799993,221.06246524999915,223.07081387499966,223.04770049999934,223.04771295799947,0.0,False,223.0478941659985,332031,001,2024-07-01_13h00.28.483,5-26,2024.1.4,None,2024-07-01 13h00.33.987594 +0900,
Images/Speaker1.jpg,Images/Speaker2.jpg,Images/Speaker3.jpg,Images/Speaker4.jpg,Audio/Speaker2_En/P2-20-En.wav,Speaker2,گوینده۲,,,,,,,,,0,77,77,39,223.07081387499966,,,,,,,,,,,,,,,,,,,,,,,,,,,,,,,,,,,,,,,,,,,,,223.04806924999866,223.07081387499966,223.07081387499966,223.07081387499966,223.07081387499966,223.08080391633172,223.07081387499966,223.07081387499966,223.07142137499977,Incorrect! The correct answer is Speaker2. نادرست! پاسخ صحیح گوینده۲ است,1,1.9781170839996776,None,0,78,223.07194674999846,223.08174983299978,225.0928812079983,225.06929654099986,225.069304749999,0.0,False,225.06948574999842,332031,001,2024-07-01_13h00.28.483,5-26,2024.1.4,None,2024-07-01 13h00.33.987594 +0900,
Images/Speaker1.jpg,Images/Speaker2.jpg,Images/Speaker3.jpg,Images/Speaker4.jpg,Audio/Speaker1_En/P1-18-En.wav,Speaker1,گوینده ۱,,,,,,,,,0,78,78,17,225.0928812079983,,,,,,,,,,,,,,,,,,,,,,,,,,,,,,,,,,,,,,,,,,,,,225.06970704099876,225.0928812079983,225.0928812079983,225.0928812079983,225.0928812079983,225.1023279163333,225.0928812079983,225.0928812079983,225.31391079099922,Correct! صحیح است,1,0.219574749999083,None,0,79,225.31764349999867,225.32913891599856,227.33934995799973,227.3162527079985,227.31627474999914,0.0,False,227.3166954999997,332031,001,2024-07-01_13h00.28.483,5-26,2024.1.4,None,2024-07-01 13h00.33.987594 +0900,
Images/Speaker1.jpg,Images/Speaker2.jpg,Images/Speaker3.jpg,Images/Speaker4.jpg,Audio/Speaker1_En/P1-19-En.wav,Speaker1,گوینده ۱,,,,,,,,,0,79,79,18,227.33934995799973,,,,,,,,,,,,,,,,,,,,,,,,,,,,,,,,,,,,,,,,,,,,,227.3176613329997,227.33934995799973,227.33934995799973,227.33934995799973,227.33934995799973,227.34875458333278,227.33934995799973,227.33934995799973,229.06780674999936,Correct! صحیح است,1,1.7266166250010428,None,0,80,229.07203479099917,229.08354066599895,231.09352291599862,231.07165420799902,231.07166333299938,0.0,False,231.07182274999832,332031,001,2024-07-01_13h00.28.483,5-26,2024.1.4,None,2024-07-01 13h00.33.987594 +0900,
Images/Speaker1.jpg,Images/Speaker2.jpg,Images/Speaker3.jpg,Images/Speaker4.jpg,Audio/Speaker3_En/P3-20-En.wav,Speaker3,گوینده۳,,,,,,,,,1,0,80,59,231.09352291599862,,,,,,,,,,,,,,,,,,,,,,,,,,,,,,,,,,,,,,,,,,,,,231.07202462499845,231.09352291599862,231.09352291599862,231.09352291599862,231.09352291599862,231.08809016666626,231.09352291599862,231.09352291599862,1476.6553352909996,Incorrect! The correct answer is Speaker3. نادرست! پاسخ صحیح گوینده۳ است,1,1245.5591145000017,None,0,81,1476.6556255829983,1476.6689458329984,,1478.6652457499986,1478.6652782909987,0.0,False,1478.666119915999,332031,001,2024-07-01_13h00.28.483,5-26,2024.1.4,None,2024-07-01 13h00.33.987594 +0900,
Images/Speaker1.jpg,Images/Speaker2.jpg,Images/Speaker3.jpg,Images/Speaker4.jpg,Audio/Speaker4_En/P4-19-En.wav,Speaker4,گوینده۴,,,,,,,,,1,1,81,78,1478.692358458,,,,,,,,,,,,,,,,,,,,,,,,,,,,,,,,,,,,,,,,,,,,,1478.6667846249984,1478.692358458,1478.692358458,1478.692358458,1478.692358458,1478.698396583332,1478.692358458,1478.692358458,1485.1400943749995,Correct! صحیح است,4,6.433681042000899,None,0,82,1485.1403235409998,1485.1492117499984,1487.1549499579996,1487.1320109999997,1487.1320212499995,0.0,False,1487.1322069999987,332031,001,2024-07-01_13h00.28.483,5-26,2024.1.4,None,2024-07-01 13h00.33.987594 +0900,
Images/Speaker1.jpg,Images/Speaker2.jpg,Images/Speaker3.jpg,Images/Speaker4.jpg,Audio/Speaker1_En/P1-16-En.wav,Speaker1,گوینده ۱,,,,,,,,,1,2,82,15,1487.1549499579996,,,,,,,,,,,,,,,,,,,,,,,,,,,,,,,,,,,,,,,,,,,,,1487.1323820829984,1487.1549499579996,1487.1549499579996,1487.1549499579996,1487.1549499579996,1487.165034874332,1487.1549499579996,1487.1549499579996,1488.7439482499994,Correct! صحیح است,1,1.5866728750006587,None,0,83,1488.7477530409997,1488.7591169579991,1490.7662340409988,1490.7423145409994,1490.7423242079985,0.0,False,1490.742543458,332031,001,2024-07-01_13h00.28.483,5-26,2024.1.4,None,2024-07-01 13h00.33.987594 +0900,
Images/Speaker1.jpg,Images/Speaker2.jpg,Images/Speaker3.jpg,Images/Speaker4.jpg,Audio/Speaker2_En/P2-13-En.wav,Speaker2,گوینده۲,,,,,,,,,1,3,83,32,1490.7662340409988,,,,,,,,,,,,,,,,,,,,,,,,,,,,,,,,,,,,,,,,,,,,,1490.7427236249987,1490.7662340409988,1490.7662340409988,1490.7662340409988,1490.7662340409988,1490.7754295833333,1490.7662340409988,1490.7662340409988,1492.3904567499994,Correct! صحیح است,2,1.6207865420001326,None,0,84,1492.3943342499988,1492.4057363329994,1494.4123921249993,1494.3898549999994,1494.3898649159983,0.0,False,1494.3900437079992,332031,001,2024-07-01_13h00.28.483,5-26,2024.1.4,None,2024-07-01 13h00.33.987594 +0900,
Images/Speaker1.jpg,Images/Speaker2.jpg,Images/Speaker3.jpg,Images/Speaker4.jpg,Audio/Speaker1_En/P1-18-En.wav,Speaker1,گوینده ۱,,,,,,,,,1,4,84,17,1494.4123921249993,,,,,,,,,,,,,,,,,,,,,,,,,,,,,,,,,,,,,,,,,,,,,1494.3902248749982,1494.4123921249993,1494.4123921249993,1494.4123921249993,1494.4123921249993,1494.406222916665,1494.4123921249993,1494.4123921249993,1495.6558250829985,Correct! صحیح است,1,1.2320871250012715,None,0,85,1495.6609742499986,1495.6732048329995,1497.6864139159989,1497.6576169159998,1497.6576447909993,0.0,False,1497.6579951249987,332031,001,2024-07-01_13h00.28.483,5-26,2024.1.4,None,2024-07-01 13h00.33.987594 +0900,
Images/Speaker1.jpg,Images/Speaker2.jpg,Images/Speaker3.jpg,Images/Speaker4.jpg,Audio/Speaker2_En/P2-11-En.wav,Speaker2,گوینده۲,,,,,,,,,1,5,85,30,1497.6864139159989,,,,,,,,,,,,,,,,,,,,,,,,,,,,,,,,,,,,,,,,,,,,,1497.6589514159987,1497.6864139159989,1497.6864139159989,1497.6864139159989,1497.6864139159989,1497.6899303333325,1497.6864139159989,1497.6864139159989,1499.0547497499992,Correct! صحیح است,2,1.3602367080002296,None,0,86,1499.0587989999985,1499.0678535409988,1501.0758865829994,1501.052413083,1501.0524224579985,0.0,False,1501.0526023329985,332031,001,2024-07-01_13h00.28.483,5-26,2024.1.4,None,2024-07-01 13h00.33.987594 +0900,
Images/Speaker1.jpg,Images/Speaker2.jpg,Images/Speaker3.jpg,Images/Speaker4.jpg,Audio/Speaker1_En/P1-13-En.wav,Speaker1,گوینده ۱,,,,,,,,,1,6,86,12,1501.0758865829994,,,,,,,,,,,,,,,,,,,,,,,,,,,,,,,,,,,,,,,,,,,,,1501.0527870409987,1501.0758865829994,1501.0758865829994,1501.0758865829994,1501.0758865829994,1501.085470708333,1501.0758865829994,1501.0758865829994,1502.7520579579996,Correct! صحیح است,1,1.6751697909985523,None,0,87,1502.756283290999,1502.767998207999,1504.7818132079992,1504.7561046659994,1504.7561396659985,0.0,False,1504.7565878749992,332031,001,2024-07-01_13h00.28.483,5-26,2024.1.4,None,2024-07-01 13h00.33.987594 +0900,
Images/Speaker1.jpg,Images/Speaker2.jpg,Images/Speaker3.jpg,Images/Speaker4.jpg,Audio/Speaker4_En/P4-20-En.wav,Speaker4,گوینده۴,,,,,,,,,1,7,87,79,1504.7818132079992,,,,,,,,,,,,,,,,,,,,,,,,,,,,,,,,,,,,,,,,,,,,,1504.7571043749995,1504.7818132079992,1504.7818132079992,1504.7818132079992,1504.7818132079992,1504.788584749333,1504.7818132079992,1504.7818132079992,1506.2626173749995,Correct! صحیح است,4,1.476491540999632,None,0,88,1506.266669540999,1506.27727375,1508.2934362079995,1508.2659341659983,1508.2659675409996,0.0,False,1508.2663223329982,332031,001,2024-07-01_13h00.28.483,5-26,2024.1.4,None,2024-07-01 13h00.33.987594 +0900,
Images/Speaker1.jpg,Images/Speaker2.jpg,Images/Speaker3.jpg,Images/Speaker4.jpg,Audio/Speaker4_En/P4-7-En.wav,Speaker4,گوینده۴,,,,,,,,,1,8,88,66,1508.2934362079995,,,,,,,,,,,,,,,,,,,,,,,,,,,,,,,,,,,,,,,,,,,,,1508.2672425409983,1508.2934362079995,1508.2934362079995,1508.2934362079995,1508.2934362079995,1508.2981874993316,1508.2934362079995,1508.2934362079995,1509.9492008749985,Correct! صحیح است,4,1.6476734999996552,None,0,89,1509.9534897909998,1509.9650689579994,1511.9713067499997,1511.9480271659995,1511.9480353749987,0.0,False,1511.9482085829986,332031,001,2024-07-01_13h00.28.483,5-26,2024.1.4,None,2024-07-01 13h00.33.987594 +0900,
Images/Speaker1.jpg,Images/Speaker2.jpg,Images/Speaker3.jpg,Images/Speaker4.jpg,Audio/Speaker2_En/P2-15-En.wav,Speaker2,گوینده۲,,,,,,,,,1,9,89,34,1511.9713067499997,,,,,,,,,,,,,,,,,,,,,,,,,,,,,,,,,,,,,,,,,,,,,1511.9484042079985,1511.9713067499997,1511.9713067499997,1511.9713067499997,1511.9713067499997,1511.981060249333,1511.9713067499997,1511.9713067499997,1513.1776345829985,Correct! صحیح است,2,1.2035934159994213,None,0,90,1513.1816116249993,1513.1927919579994,1515.1993549999988,1515.1776550409995,1515.1776631249995,0.0,False,1515.177823,332031,001,2024-07-01_13h00.28.483,5-26,2024.1.4,None,2024-07-01 13h00.33.987594 +0900,
Images/Speaker1.jpg,Images/Speaker2.jpg,Images/Speaker3.jpg,Images/Speaker4.jpg,Audio/Speaker2_En/P2-8-En.wav,Speaker2,گوینده۲,,,,,,,,,1,10,90,27,1515.1993549999988,,,,,,,,,,,,,,,,,,,,,,,,,,,,,,,,,,,,,,,,,,,,,1515.1780302079987,1515.1993549999988,1515.1993549999988,1515.1993549999988,1515.1993549999988,1515.194060791666,1515.1993549999988,1515.1993549999988,1516.4863999999998,Correct! صحیح است,2,1.2858707499999582,None,0,91,1516.490408665999,1516.5023036659986,1518.5118296249984,1518.4887669579985,1518.4887761249993,0.0,False,1518.4889390829994,332031,001,2024-07-01_13h00.28.483,5-26,2024.1.4,None,2024-07-01 13h00.33.987594 +0900,
Images/Speaker1.jpg,Images/Speaker2.jpg,Images/Speaker3.jpg,Images/Speaker4.jpg,Audio/Speaker1_En/P1-6-En.wav,Speaker1,گوینده ۱,,,,,,,,,1,11,91,5,1518.5118296249984,,,,,,,,,,,,,,,,,,,,,,,,,,,,,,,,,,,,,,,,,,,,,1518.4891074579991,1518.5118296249984,1518.5118296249984,1518.5118296249984,1518.5118296249984,1518.5218894163322,1518.5118296249984,1518.5118296249984,1519.707901165999,Correct! صحیح است,1,1.1877229159999843,None,0,92,1519.7116632499983,1519.7201402909996,1521.7377337079997,1521.7100551249987,1521.7100832079996,0.0,False,1521.7104652499984,332031,001,2024-07-01_13h00.28.483,5-26,2024.1.4,None,2024-07-01 13h00.33.987594 +0900,
Images/Speaker1.jpg,Images/Speaker2.jpg,Images/Speaker3.jpg,Images/Speaker4.jpg,Audio/Speaker1_En/P1-11-En.wav,Speaker1,گوینده ۱,,,,,,,,,1,12,92,10,1521.7377337079997,,,,,,,,,,,,,,,,,,,,,,,,,,,,,,,,,,,,,,,,,,,,,1521.7112674579985,1521.7377337079997,1521.7377337079997,1521.7377337079997,1521.7377337079997,1521.7425393333328,1521.7377337079997,1521.7377337079997,1522.8098838329988,Correct! صحیح است,1,1.065217458000916,None,0,93,1522.8138533749989,1522.8246318329984,1524.8381125409996,1524.8145983329996,1524.8146348749997,0.0,False,1524.8151087499991,332031,001,2024-07-01_13h00.28.483,5-26,2024.1.4,None,2024-07-01 13h00.33.987594 +0900,
Images/Speaker1.jpg,Images/Speaker2.jpg,Images/Speaker3.jpg,Images/Speaker4.jpg,Audio/Speaker2_En/P2-9-En.wav,Speaker2,گوینده۲,,,,,,,,,1,13,93,28,1524.8381125409996,,,,,,,,,,,,,,,,,,,,,,,,,,,,,,,,,,,,,,,,,,,,,1524.8156559159997,1524.8381125409996,1524.8381125409996,1524.8381125409996,1524.8381125409996,1524.8468618333322,1524.8381125409996,1524.8381125409996,1525.9518354579996,Correct! صحیح است,2,1.1125988749990938,None,0,94,1525.9557744999984,1525.9667994579995,1527.9786689999983,1527.9535444159992,1527.9535687499992,0.0,False,1527.9538855409992,332031,001,2024-07-01_13h00.28.483,5-26,2024.1.4,None,2024-07-01 13h00.33.987594 +0900,
Images/Speaker1.jpg,Images/Speaker2.jpg,Images/Speaker3.jpg,Images/Speaker4.jpg,Audio/Speaker1_En/P1-9-En.wav,Speaker1,گوینده ۱,,,,,,,,,1,14,94,8,1527.9786689999983,,,,,,,,,,,,,,,,,,,,,,,,,,,,,,,,,,,,,,,,,,,,,1527.9547204579994,1527.9786689999983,1527.9786689999983,1527.9786689999983,1527.9786689999983,1527.9858508743332,1527.9786689999983,1527.9786689999983,1530.0014422079985,Correct! صحیح است,1,2.0134515000008832,None,0,95,1530.0057556249994,1530.0167860829988,,1532.009699708,1532.0097085409998,0.0,False,1532.0099082499983,332031,001,2024-07-01_13h00.28.483,5-26,2024.1.4,None,2024-07-01 13h00.33.987594 +0900,
Images/Speaker1.jpg,Images/Speaker2.jpg,Images/Speaker3.jpg,Images/Speaker4.jpg,Audio/Speaker3_En/P3-17-En.wav,Speaker3,گوینده۳,,,,,,,,,1,15,95,56,1532.0311874579984,,,,,,,,,,,,,,,,,,,,,,,,,,,,,,,,,,,,,,,,,,,,,1532.0100731659986,1532.0311874579984,1532.0311874579984,1532.0311874579984,1532.0311874579984,1532.0263292076654,1532.0311874579984,1532.0311874579984,1533.4512507909985,Correct! صحیح است,3,1.4175269170009415,None,0,96,1533.4554976659983,1533.4672313329993,,1535.4557934159984,1535.4558182499986,0.0,False,1535.4565694999983,332031,001,2024-07-01_13h00.28.483,5-26,2024.1.4,None,2024-07-01 13h00.33.987594 +0900,
Images/Speaker1.jpg,Images/Speaker2.jpg,Images/Speaker3.jpg,Images/Speaker4.jpg,Audio/Speaker4_En/P4-9-En.wav,Speaker4,گوینده۴,,,,,,,,,1,16,96,68,1535.480277540999,,,,,,,,,,,,,,,,,,,,,,,,,,,,,,,,,,,,,,,,,,,,,1535.457404249999,1535.480277540999,1535.480277540999,1535.480277540999,1535.480277540999,1535.4889619163318,1535.480277540999,1535.480277540999,1537.5565521249991,Correct! صحیح است,4,2.0740932499993505,None,0,97,1537.5603844579982,1537.5712195829983,,1539.560636958,1539.5606775829983,0.0,False,1539.5614584159994,332031,001,2024-07-01_13h00.28.483,5-26,2024.1.4,None,2024-07-01 13h00.33.987594 +0900,
Images/Speaker1.jpg,Images/Speaker2.jpg,Images/Speaker3.jpg,Images/Speaker4.jpg,Audio/Speaker2_En/P2-6-En.wav,Speaker2,گوینده۲,,,,,,,,,1,17,97,25,1539.5887305409997,,,,,,,,,,,,,,,,,,,,,,,,,,,,,,,,,,,,,,,,,,,,,1539.5619887909997,1539.5887305409997,1539.5887305409997,1539.5887305409997,1539.5887305409997,1539.5938195413332,1539.5887305409997,1539.5887305409997,1542.1120170409995,Correct! صحیح است,2,2.5204007079992152,None,0,98,1542.115855832999,1542.1273091249986,,1544.1202932079996,1544.1203015829997,0.0,False,1544.120577624999,332031,001,2024-07-01_13h00.28.483,5-26,2024.1.4,None,2024-07-01 13h00.33.987594 +0900,
Images/Speaker1.jpg,Images/Speaker2.jpg,Images/Speaker3.jpg,Images/Speaker4.jpg,Audio/Speaker1_En/P1-12-En.wav,Speaker1,گوینده ۱,,,,,,,,,1,18,98,11,1544.1428827909986,,,,,,,,,,,,,,,,,,,,,,,,,,,,,,,,,,,,,,,,,,,,,1544.1207636249983,1544.1428827909986,1544.1428827909986,1544.1428827909986,1544.1428827909986,1544.1369077496659,1544.1428827909986,1544.1428827909986,1545.2569132079989,Correct! صحیح است,1,1.1124630000012985,None,0,99,1545.2608711659996,1545.272311666,1547.2805694999988,1547.257184958,1547.2571939159989,0.0,False,1547.2573614999983,332031,001,2024-07-01_13h00.28.483,5-26,2024.1.4,None,2024-07-01 13h00.33.987594 +0900,
Images/Speaker1.jpg,Images/Speaker2.jpg,Images/Speaker3.jpg,Images/Speaker4.jpg,Audio/Speaker1_En/P1-19-En.wav,Speaker1,گوینده ۱,,,,,,,,,1,19,99,18,1547.2805694999988,,,,,,,,,,,,,,,,,,,,,,,,,,,,,,,,,,,,,,,,,,,,,1547.2575762499982,1547.2805694999988,1547.2805694999988,1547.2805694999988,1547.2805694999988,1547.290191249333,1547.2805694999988,1547.2805694999988,1548.3548676249993,Correct! صحیح است,1,1.0666629580009612,None,0,100,1548.359334499999,1548.371016707999,,1550.362058749999,1550.362084208,0.0,False,1550.3627430829983,332031,001,2024-07-01_13h00.28.483,5-26,2024.1.4,None,2024-07-01 13h00.33.987594 +0900,
Images/Speaker1.jpg,Images/Speaker2.jpg,Images/Speaker3.jpg,Images/Speaker4.jpg,Audio/Speaker2_En/P2-17-En.wav,Speaker2,گوینده۲,,,,,,,,,1,20,100,36,1550.387191374999,,,,,,,,,,,,,,,,,,,,,,,,,,,,,,,,,,,,,,,,,,,,,1550.363582041,1550.387191374999,1550.387191374999,1550.387191374999,1550.387191374999,1550.3952503743317,1550.387191374999,1550.387191374999,1551.425090540999,Correct! صحیح است,2,1.0272529579997354,None,0,101,1551.4292408329984,1551.4409451249994,1553.4512319999994,1553.428284874999,1553.428295791,0.0,False,1553.4284939579993,332031,001,2024-07-01_13h00.28.483,5-26,2024.1.4,None,2024-07-01 13h00.33.987594 +0900,
Images/Speaker1.jpg,Images/Speaker2.jpg,Images/Speaker3.jpg,Images/Speaker4.jpg,Audio/Speaker1_En/P1-1-En.wav,Speaker1,گوینده ۱,,,,,,,,,1,21,101,0,1553.4512319999994,,,,,,,,,,,,,,,,,,,,,,,,,,,,,,,,,,,,,,,,,,,,,1553.428690749999,1553.4512319999994,1553.4512319999994,1553.4512319999994,1553.4512319999994,1553.4612538333317,1553.4512319999994,1553.4512319999994,1554.7063254159984,Correct! صحیح است,1,1.2508214579993364,None,0,102,1554.7102287079997,1554.7213749579987,1556.7285284159989,1556.7057273749997,1556.705736374999,0.0,False,1556.7059310409986,332031,001,2024-07-01_13h00.28.483,5-26,2024.1.4,None,2024-07-01 13h00.33.987594 +0900,
Images/Speaker1.jpg,Images/Speaker2.jpg,Images/Speaker3.jpg,Images/Speaker4.jpg,Audio/Speaker4_En/P4-1-En.wav,Speaker4,گوینده۴,,,,,,,,,1,22,102,60,1556.7285284159989,,,,,,,,,,,,,,,,,,,,,,,,,,,,,,,,,,,,,,,,,,,,,1556.7060979579983,1556.7285284159989,1556.7285284159989,1556.7285284159989,1556.7285284159989,1556.7221038326663,1556.7285284159989,1556.7285284159989,1558.4897168749994,Incorrect! The correct answer is Speaker4. نادرست! پاسخ صحیح گوینده۴ است,3,1.7565177920005226,None,0,103,1558.4940664159985,1558.507228208,1560.5188036249983,1560.4945204159994,1560.4945447909995,0.0,False,1560.4948730409997,332031,001,2024-07-01_13h00.28.483,5-26,2024.1.4,None,2024-07-01 13h00.33.987594 +0900,
Images/Speaker1.jpg,Images/Speaker2.jpg,Images/Speaker3.jpg,Images/Speaker4.jpg,Audio/Speaker4_En/P4-11-En.wav,Speaker4,گوینده۴,,,,,,,,,1,23,103,70,1560.5188036249983,,,,,,,,,,,,,,,,,,,,,,,,,,,,,,,,,,,,,,,,,,,,,1560.4955199159995,1560.5188036249983,1560.5188036249983,1560.5188036249983,1560.5188036249983,1560.526890374333,1560.5188036249983,1560.5188036249983,1562.2100299159993,Correct! صحیح است,4,1.6898719590008113,None,0,104,1562.2143335829987,1562.2259451659993,,1564.2202300829995,1564.2202394999986,0.0,False,1564.2204548749996,332031,001,2024-07-01_13h00.28.483,5-26,2024.1.4,None,2024-07-01 13h00.33.987594 +0900,
Images/Speaker1.jpg,Images/Speaker2.jpg,Images/Speaker3.jpg,Images/Speaker4.jpg,Audio/Speaker4_En/P4-13-En.wav,Speaker4,گوینده۴,,,,,,,,,1,24,104,72,1564.2430215409986,,,,,,,,,,,,,,,,,,,,,,,,,,,,,,,,,,,,,,,,,,,,,1564.2206487499989,1564.2430215409986,1564.2430215409986,1564.2430215409986,1564.2430215409986,1564.2535158333326,1564.2430215409986,1564.2430215409986,1565.8807524999993,Correct! صحیح است,4,1.6289565000006405,None,0,105,1565.8849873749987,1565.8959699579991,1567.9062116249988,1567.8834237909996,1567.8834332499991,0.0,False,1567.8836135829988,332031,001,2024-07-01_13h00.28.483,5-26,2024.1.4,None,2024-07-01 13h00.33.987594 +0900,
Images/Speaker1.jpg,Images/Speaker2.jpg,Images/Speaker3.jpg,Images/Speaker4.jpg,Audio/Speaker3_En/P3-10-En.wav,Speaker3,گوینده۳,,,,,,,,,1,25,105,49,1567.9062116249988,,,,,,,,,,,,,,,,,,,,,,,,,,,,,,,,,,,,,,,,,,,,,1567.8837723329998,1567.9062116249988,1567.9062116249988,1567.9062116249988,1567.9062116249988,1567.899802291666,1567.9062116249988,1567.9062116249988,1569.4500449159987,Correct! صحیح است,3,1.5408926250001969,None,0,106,1569.454034082999,1569.4658421249987,,1571.4602762079994,1571.460303415999,0.0,False,1571.4612627499992,332031,001,2024-07-01_13h00.28.483,5-26,2024.1.4,None,2024-07-01 13h00.33.987594 +0900,
Images/Speaker1.jpg,Images/Speaker2.jpg,Images/Speaker3.jpg,Images/Speaker4.jpg,Audio/Speaker2_En/P2-16-En.wav,Speaker2,گوینده۲,,,,,,,,,1,26,106,35,1571.4852311659997,,,,,,,,,,,,,,,,,,,,,,,,,,,,,,,,,,,,,,,,,,,,,1571.4617749579993,1571.4852311659997,1571.4852311659997,1571.4852311659997,1571.4852311659997,1571.493439333332,1571.4852311659997,1571.4852311659997,1572.7355952909984,Correct! صحیح است,2,1.2456693340009224,None,0,107,1572.739710291,1572.7508624999991,1574.758102291,1574.7351676659982,1574.7351759579997,0.0,False,1574.7353309579994,332031,001,2024-07-01_13h00.28.483,5-26,2024.1.4,None,2024-07-01 13h00.33.987594 +0900,
Images/Speaker1.jpg,Images/Speaker2.jpg,Images/Speaker3.jpg,Images/Speaker4.jpg,Audio/Speaker2_En/P2-12-En.wav,Speaker2,گوینده۲,,,,,,,,,1,27,107,31,1574.758102291,,,,,,,,,,,,,,,,,,,,,,,,,,,,,,,,,,,,,,,,,,,,,1574.735544833,1574.758102291,1574.758102291,1574.758102291,1574.758102291,1574.7515729576664,1574.758102291,1574.758102291,1575.8476630829991,Correct! صحیح است,2,1.0849050000015268,None,0,108,1575.8516101659989,1575.8628577499985,1577.8736424159997,1577.8474335409992,1577.8474739999983,0.0,False,1577.8480131249999,332031,001,2024-07-01_13h00.28.483,5-26,2024.1.4,None,2024-07-01 13h00.33.987594 +0900,
Images/Speaker1.jpg,Images/Speaker2.jpg,Images/Speaker3.jpg,Images/Speaker4.jpg,Audio/Speaker2_En/P2-14-En.wav,Speaker2,گوینده۲,,,,,,,,,1,28,108,33,1577.8736424159997,,,,,,,,,,,,,,,,,,,,,,,,,,,,,,,,,,,,,,,,,,,,,1577.8489783329987,1577.8736424159997,1577.8736424159997,1577.8736424159997,1577.8736424159997,1577.8796071663332,1577.8736424159997,1577.8736424159997,1579.1229839999996,Correct! صحیح است,2,1.247102334000374,None,0,109,1579.1284167079993,1579.14083975,,1581.1354413749996,1581.1354499999998,0.0,False,1581.1356413329995,332031,001,2024-07-01_13h00.28.483,5-26,2024.1.4,None,2024-07-01 13h00.33.987594 +0900,
Images/Speaker1.jpg,Images/Speaker2.jpg,Images/Speaker3.jpg,Images/Speaker4.jpg,Audio/Speaker4_En/P4-2-En.wav,Speaker4,گوینده۴,,,,,,,,,1,29,109,61,1581.1583732079998,,,,,,,,,,,,,,,,,,,,,,,,,,,,,,,,,,,,,,,,,,,,,1581.1358414999995,1581.1583732079998,1581.1583732079998,1581.1583732079998,1581.1583732079998,1581.1520727496666,1581.1583732079998,1581.1583732079998,1582.5511265409987,Correct! صحیح است,4,1.3818677500003105,None,0,110,1582.555125290999,1582.5666639579995,1584.5803618749997,1584.555052541,1584.5550917909986,0.0,False,1584.5555419159991,332031,001,2024-07-01_13h00.28.483,5-26,2024.1.4,None,2024-07-01 13h00.33.987594 +0900,
Images/Speaker1.jpg,Images/Speaker2.jpg,Images/Speaker3.jpg,Images/Speaker4.jpg,Audio/Speaker3_En/P3-14-En.wav,Speaker3,گوینده۳,,,,,,,,,1,30,110,53,1584.5803618749997,,,,,,,,,,,,,,,,,,,,,,,,,,,,,,,,,,,,,,,,,,,,,1584.5564975409998,1584.5803618749997,1584.5803618749997,1584.5803618749997,1584.5803618749997,1584.5872293743328,1584.5803618749997,1584.5803618749997,1586.891352790999,Correct! صحیح است,3,2.3082689170005324,None,0,111,1586.8956899159984,1586.9082059579996,1588.9202787909999,1588.8958317499983,1588.8958569999995,0.0,False,1588.8962877499998,332031,001,2024-07-01_13h00.28.483,5-26,2024.1.4,None,2024-07-01 13h00.33.987594 +0900,
Images/Speaker1.jpg,Images/Speaker2.jpg,Images/Speaker3.jpg,Images/Speaker4.jpg,Audio/Speaker3_En/P3-6-En.wav,Speaker3,گوینده۳,,,,,,,,,1,31,111,45,1588.9202787909999,,,,,,,,,,,,,,,,,,,,,,,,,,,,,,,,,,,,,,,,,,,,,1588.8965947909983,1588.9202787909999,1588.9202787909999,1588.9202787909999,1588.9202787909999,1588.9283377493325,1588.9202787909999,1588.9202787909999,1590.303173332999,Correct! صحیح است,3,1.3803823750004085,None,0,112,1590.30824425,1590.319934707999,1592.3294924579986,1592.3054613749991,1592.3054697079988,0.0,False,1592.3056744999994,332031,001,2024-07-01_13h00.28.483,5-26,2024.1.4,None,2024-07-01 13h00.33.987594 +0900,
Images/Speaker1.jpg,Images/Speaker2.jpg,Images/Speaker3.jpg,Images/Speaker4.jpg,Audio/Speaker1_En/P1-3-En.wav,Speaker1,گوینده ۱,,,,,,,,,1,32,112,2,1592.3294924579986,,,,,,,,,,,,,,,,,,,,,,,,,,,,,,,,,,,,,,,,,,,,,1592.305878957999,1592.3294924579986,1592.3294924579986,1592.3294924579986,1592.3294924579986,1592.338554333332,1592.3294924579986,1592.3294924579986,1593.5395649999991,Correct! صحیح است,1,1.2084069169995928,None,0,113,1593.543725083,1593.556422874999,,1595.5530653749993,1595.5530742499996,0.0,False,1595.5532730409996,332031,001,2024-07-01_13h00.28.483,5-26,2024.1.4,None,2024-07-01 13h00.33.987594 +0900,
Images/Speaker1.jpg,Images/Speaker2.jpg,Images/Speaker3.jpg,Images/Speaker4.jpg,Audio/Speaker4_En/P4-17-En.wav,Speaker4,گوینده۴,,,,,,,,,1,33,113,76,1595.5753484999987,,,,,,,,,,,,,,,,,,,,,,,,,,,,,,,,,,,,,,,,,,,,,1595.5534638329991,1595.5753484999987,1595.5753484999987,1595.5753484999987,1595.5753484999987,1595.569696832665,1595.5753484999987,1595.5753484999987,1597.2400121249993,Correct! صحیح است,4,1.6634482919998845,None,0,114,1597.2438897079992,1597.2548987499995,1599.2674832079992,1599.2429903749999,1599.2429992079997,0.0,False,1599.2431580409993,332031,001,2024-07-01_13h00.28.483,5-26,2024.1.4,None,2024-07-01 13h00.33.987594 +0900,
Images/Speaker1.jpg,Images/Speaker2.jpg,Images/Speaker3.jpg,Images/Speaker4.jpg,Audio/Speaker3_En/P3-2-En.wav,Speaker3,گوینده۳,,,,,,,,,1,34,114,41,1599.2674832079992,,,,,,,,,,,,,,,,,,,,,,,,,,,,,,,,,,,,,,,,,,,,,1599.2433382079998,1599.2674832079992,1599.2674832079992,1599.2674832079992,1599.2674832079992,1599.2761055413325,1599.2674832079992,1599.2674832079992,1600.600840707999,Correct! صحیح است,3,1.3299612089995207,None,0,115,1600.605753374999,1600.6174602909996,,1602.6092829999998,1602.609294374999,0.0,False,1602.6094809999995,332031,001,2024-07-01_13h00.28.483,5-26,2024.1.4,None,2024-07-01 13h00.33.987594 +0900,
Images/Speaker1.jpg,Images/Speaker2.jpg,Images/Speaker3.jpg,Images/Speaker4.jpg,Audio/Speaker3_En/P3-13-En.wav,Speaker3,گوینده۳,,,,,,,,,1,35,115,52,1602.6327577909997,,,,,,,,,,,,,,,,,,,,,,,,,,,,,,,,,,,,,,,,,,,,,1602.609651749999,1602.6327577909997,1602.6327577909997,1602.6327577909997,1602.6327577909997,1602.6425850833316,1602.6327577909997,1602.6327577909997,1604.0346345829985,Correct! صحیح است,3,1.3959042500009673,None,0,116,1604.0385953749992,1604.0501705409988,1606.0616160829995,1606.0379512499985,1606.037984875,0.0,False,1606.0383372909982,332031,001,2024-07-01_13h00.28.483,5-26,2024.1.4,None,2024-07-01 13h00.33.987594 +0900,
Images/Speaker1.jpg,Images/Speaker2.jpg,Images/Speaker3.jpg,Images/Speaker4.jpg,Audio/Speaker4_En/P4-18-En.wav,Speaker4,گوینده۴,,,,,,,,,1,36,116,77,1606.0616160829995,,,,,,,,,,,,,,,,,,,,,,,,,,,,,,,,,,,,,,,,,,,,,1606.0392364999989,1606.0616160829995,1606.0616160829995,1606.0616160829995,1606.0616160829995,1606.0703311243328,1606.0616160829995,1606.0616160829995,1607.5985207499998,Correct! صحیح است,4,1.5333187079995696,None,0,117,1607.6024159579993,1607.613264915999,,1609.602569749999,1609.6026119999988,0.0,False,1609.6033511249989,332031,001,2024-07-01_13h00.28.483,5-26,2024.1.4,None,2024-07-01 13h00.33.987594 +0900,
Images/Speaker1.jpg,Images/Speaker2.jpg,Images/Speaker3.jpg,Images/Speaker4.jpg,Audio/Speaker4_En/P4-12-En.wav,Speaker4,گوینده۴,,,,,,,,,1,37,117,71,1609.6289643749988,,,,,,,,,,,,,,,,,,,,,,,,,,,,,,,,,,,,,,,,,,,,,1609.603949458,1609.6289643749988,1609.6289643749988,1609.6289643749988,1609.6289643749988,1609.6356964993324,1609.6289643749988,1609.6289643749988,1611.2730199579983,Correct! صحیح است,4,1.6422312909999164,None,0,118,1611.2770625829999,1611.2882694159998,1613.2991731659986,1613.2745544579993,1613.2745634159983,0.0,False,1613.274759,332031,001,2024-07-01_13h00.28.483,5-26,2024.1.4,None,2024-07-01 13h00.33.987594 +0900,
Images/Speaker1.jpg,Images/Speaker2.jpg,Images/Speaker3.jpg,Images/Speaker4.jpg,Audio/Speaker3_En/P3-3-En.wav,Speaker3,گوینده۳,,,,,,,,,1,38,118,42,1613.2991731659986,,,,,,,,,,,,,,,,,,,,,,,,,,,,,,,,,,,,,,,,,,,,,1613.2749371249993,1613.2991731659986,1613.2991731659986,1613.2991731659986,1613.2991731659986,1613.307650958332,1613.2991731659986,1613.2991731659986,1615.0522086659985,Correct! صحیح است,3,1.7398933749991556,None,0,119,1615.0564573749998,1615.0649893329992,1617.0725659579984,1617.0493230409993,1617.0493314999985,0.0,False,1617.049522457999,332031,001,2024-07-01_13h00.28.483,5-26,2024.1.4,None,2024-07-01 13h00.33.987594 +0900,
Images/Speaker1.jpg,Images/Speaker2.jpg,Images/Speaker3.jpg,Images/Speaker4.jpg,Audio/Speaker4_En/P4-8-En.wav,Speaker4,گوینده۴,,,,,,,,,1,39,119,67,1617.0725659579984,,,,,,,,,,,,,,,,,,,,,,,,,,,,,,,,,,,,,,,,,,,,,1617.0497096249983,1617.0725659579984,1617.0725659579984,1617.0725659579984,1617.0725659579984,1617.0823985833326,1617.0725659579984,1617.0725659579984,1618.218618166,Correct! صحیح است,4,1.1368309999998019,None,0,120,1618.2227358749988,1618.2339349579997,,1620.229102207999,1620.2291298749988,0.0,False,1620.230000665999,332031,001,2024-07-01_13h00.28.483,5-26,2024.1.4,None,2024-07-01 13h00.33.987594 +0900,
Images/Speaker1.jpg,Images/Speaker2.jpg,Images/Speaker3.jpg,Images/Speaker4.jpg,Audio/Speaker1_En/P1-5-En.wav,Speaker1,گوینده ۱,,,,,,,,,1,40,120,4,1620.2542119579994,,,,,,,,,,,,,,,,,,,,,,,,,,,,,,,,,,,,,,,,,,,,,1620.2309901249992,1620.2542119579994,1620.2542119579994,1620.2542119579994,1620.2542119579994,1620.2622765833316,1620.2542119579994,1620.2542119579994,1621.552387791,Correct! صحیح است,1,1.2859634579999693,None,0,121,1621.5564949579984,1621.568345624999,1623.5769882079985,1623.5529631249992,1623.5529924159982,0.0,False,1623.5533609999984,332031,001,2024-07-01_13h00.28.483,5-26,2024.1.4,None,2024-07-01 13h00.33.987594 +0900,
Images/Speaker1.jpg,Images/Speaker2.jpg,Images/Speaker3.jpg,Images/Speaker4.jpg,Audio/Speaker3_En/P3-18-En.wav,Speaker3,گوینده۳,,,,,,,,,1,41,121,57,1623.5769882079985,,,,,,,,,,,,,,,,,,,,,,,,,,,,,,,,,,,,,,,,,,,,,1623.5541657499998,1623.5769882079985,1623.5769882079985,1623.5769882079985,1623.5769882079985,1623.585305041332,1623.5769882079985,1623.5769882079985,1625.9433870409994,Correct! صحیح است,3,2.361258834000182,None,0,122,1625.9471437079992,1625.9581222909983,1627.9644730829987,1627.9423520829987,1627.9423607499994,0.0,False,1627.9425555829985,332031,001,2024-07-01_13h00.28.483,5-26,2024.1.4,None,2024-07-01 13h00.33.987594 +0900,
Images/Speaker1.jpg,Images/Speaker2.jpg,Images/Speaker3.jpg,Images/Speaker4.jpg,Audio/Speaker3_En/P3-7-En.wav,Speaker3,گوینده۳,,,,,,,,,1,42,122,46,1627.9644730829987,,,,,,,,,,,,,,,,,,,,,,,,,,,,,,,,,,,,,,,,,,,,,1627.942722374999,1627.9644730829987,1627.9644730829987,1627.9644730829987,1627.9644730829987,1627.9587823746663,1627.9644730829987,1627.9644730829987,1629.6856978329997,Correct! صحیح است,3,1.7096705410003779,None,0,123,1629.6905105829992,1629.7020524579984,1631.7132066659997,1631.6895159999985,1631.689525124999,0.0,False,1631.689706833,332031,001,2024-07-01_13h00.28.483,5-26,2024.1.4,None,2024-07-01 13h00.33.987594 +0900,
Images/Speaker1.jpg,Images/Speaker2.jpg,Images/Speaker3.jpg,Images/Speaker4.jpg,Audio/Speaker3_En/P3-12-En.wav,Speaker3,گوینده۳,,,,,,,,,1,43,123,51,1631.7132066659997,,,,,,,,,,,,,,,,,,,,,,,,,,,,,,,,,,,,,,,,,,,,,1631.689909290999,1631.7132066659997,1631.7132066659997,1631.7132066659997,1631.7132066659997,1631.7224783333318,1631.7132066659997,1631.7132066659997,1632.9543917499996,Correct! صحیح است,3,1.2288224999992963,None,0,124,1632.9588004999987,1632.9702160409997,,1634.9603553749985,1634.9603794579998,0.0,False,1634.9611643749995,332031,001,2024-07-01_13h00.28.483,5-26,2024.1.4,None,2024-07-01 13h00.33.987594 +0900,
Images/Speaker1.jpg,Images/Speaker2.jpg,Images/Speaker3.jpg,Images/Speaker4.jpg,Audio/Speaker1_En/P1-15-En.wav,Speaker1,گوینده ۱,,,,,,,,,1,44,124,14,1634.9882124999986,,,,,,,,,,,,,,,,,,,,,,,,,,,,,,,,,,,,,,,,,,,,,1634.9617166659991,1634.9882124999986,1634.9882124999986,1634.9882124999986,1634.9882124999986,1634.9935402083324,1634.9882124999986,1634.9882124999986,1636.4935943329983,Correct! صحیح است,1,1.4941156659988337,None,0,125,1636.497504957999,1636.5084584159995,1638.5221635829985,1638.497180458,1638.4972240829993,0.0,False,1638.497853125,332031,001,2024-07-01_13h00.28.483,5-26,2024.1.4,None,2024-07-01 13h00.33.987594 +0900,
Images/Speaker1.jpg,Images/Speaker2.jpg,Images/Speaker3.jpg,Images/Speaker4.jpg,Audio/Speaker1_En/P1-10-En.wav,Speaker1,گوینده ۱,,,,,,,,,1,45,125,9,1638.5221635829985,,,,,,,,,,,,,,,,,,,,,,,,,,,,,,,,,,,,,,,,,,,,,1638.4987770829994,1638.5221635829985,1638.5221635829985,1638.5221635829985,1638.5221635829985,1638.5295476243323,1638.5221635829985,1638.5221635829985,1639.7445011659984,Correct! صحیح است,1,1.2147243330000492,None,0,126,1639.7487762909986,1639.7602193329985,1641.7704976249988,1641.7457755829982,1641.7458011659983,0.0,False,1641.7462074159994,332031,001,2024-07-01_13h00.28.483,5-26,2024.1.4,None,2024-07-01 13h00.33.987594 +0900,
Images/Speaker1.jpg,Images/Speaker2.jpg,Images/Speaker3.jpg,Images/Speaker4.jpg,Audio/Speaker2_En/P2-4-En.wav,Speaker2,گوینده۲,,,,,,,,,1,46,126,23,1641.7704976249988,,,,,,,,,,,,,,,,,,,,,,,,,,,,,,,,,,,,,,,,,,,,,1641.7469780829997,1641.7704976249988,1641.7704976249988,1641.7704976249988,1641.7704976249988,1641.7781854583322,1641.7704976249988,1641.7704976249988,1642.9882323329985,Correct! صحیح است,2,1.205713667000964,None,0,127,1642.9927986249986,1643.0034336659992,1645.0115527079997,1644.988648999999,1644.9886569579994,0.0,False,1644.9888320829996,332031,001,2024-07-01_13h00.28.483,5-26,2024.1.4,None,2024-07-01 13h00.33.987594 +0900,
Images/Speaker1.jpg,Images/Speaker2.jpg,Images/Speaker3.jpg,Images/Speaker4.jpg,Audio/Speaker3_En/P3-8-En.wav,Speaker3,گوینده۳,,,,,,,,,1,47,127,47,1645.0115527079997,,,,,,,,,,,,,,,,,,,,,,,,,,,,,,,,,,,,,,,,,,,,,1644.9890248329993,1645.0115527079997,1645.0115527079997,1645.0115527079997,1645.0115527079997,1645.0050665416659,1645.0115527079997,1645.0115527079997,1646.5416338749983,Correct! صحیح است,3,1.52305937500023,None,0,128,1646.546336333,1646.5594733749986,1648.5685191659995,1648.544988874999,1648.5450021249999,0.0,False,1648.5451912079989,332031,001,2024-07-01_13h00.28.483,5-26,2024.1.4,None,2024-07-01 13h00.33.987594 +0900,
Images/Speaker1.jpg,Images/Speaker2.jpg,Images/Speaker3.jpg,Images/Speaker4.jpg,Audio/Speaker2_En/P2-10-En.wav,Speaker2,گوینده۲,,,,,,,,,1,48,128,29,1648.5685191659995,,,,,,,,,,,,,,,,,,,,,,,,,,,,,,,,,,,,,,,,,,,,,1648.545369207999,1648.5685191659995,1648.5685191659995,1648.5685191659995,1648.5685191659995,1648.577987958332,1648.5685191659995,1648.5685191659995,1650.1503927909998,Correct! صحیح است,2,1.5767224169994734,None,0,129,1650.1554929999984,1650.167549291,1652.1757264159987,1652.151738999999,1652.1517802909984,0.0,False,1652.1523198749983,332031,001,2024-07-01_13h00.28.483,5-26,2024.1.4,None,2024-07-01 13h00.33.987594 +0900,
Images/Speaker1.jpg,Images/Speaker2.jpg,Images/Speaker3.jpg,Images/Speaker4.jpg,Audio/Speaker1_En/P1-20-En.wav,Speaker1,گوینده ۱,,,,,,,,,1,49,129,19,1652.1757264159987,,,,,,,,,,,,,,,,,,,,,,,,,,,,,,,,,,,,,,,,,,,,,1652.1532036249992,1652.1757264159987,1652.1757264159987,1652.1757264159987,1652.1757264159987,1652.1841796663325,1652.1757264159987,1652.1757264159987,1653.661820333,Correct! صحیح است,1,1.4823943330011389,None,0,130,1653.6657396249993,1653.677086374999,1655.688034375,1655.6622005829995,1655.6622258749994,0.0,False,1655.662639958,332031,001,2024-07-01_13h00.28.483,5-26,2024.1.4,None,2024-07-01 13h00.33.987594 +0900,
Images/Speaker1.jpg,Images/Speaker2.jpg,Images/Speaker3.jpg,Images/Speaker4.jpg,Audio/Speaker3_En/P3-19-En.wav,Speaker3,گوینده۳,,,,,,,,,1,50,130,58,1655.688034375,,,,,,,,,,,,,,,,,,,,,,,,,,,,,,,,,,,,,,,,,,,,,1655.663557415999,1655.688034375,1655.688034375,1655.688034375,1655.688034375,1655.6945522913325,1655.688034375,1655.688034375,1657.4018788329995,Correct! صحیح است,3,1.7035517090007488,None,0,131,1657.406029624999,1657.4176151659995,,1659.4128595829989,1659.412867957999,0.0,False,1659.413087290999,332031,001,2024-07-01_13h00.28.483,5-26,2024.1.4,None,2024-07-01 13h00.33.987594 +0900,
Images/Speaker1.jpg,Images/Speaker2.jpg,Images/Speaker3.jpg,Images/Speaker4.jpg,Audio/Speaker4_En/P4-4-En.wav,Speaker4,گوینده۴,,,,,,,,,1,51,131,63,1659.4368167079992,,,,,,,,,,,,,,,,,,,,,,,,,,,,,,,,,,,,,,,,,,,,,1659.4132573749994,1659.4368167079992,1659.4368167079992,1659.4368167079992,1659.4368167079992,1659.4461579993317,1659.4368167079992,1659.4368167079992,1660.6252178749983,Correct! صحیح است,4,1.1843671249989711,None,0,132,1660.6294412079988,1660.6407622499992,1662.654052165999,1662.6275809999988,1662.6276159159988,0.0,False,1662.627990166,332031,001,2024-07-01_13h00.28.483,5-26,2024.1.4,None,2024-07-01 13h00.33.987594 +0900,
Images/Speaker1.jpg,Images/Speaker2.jpg,Images/Speaker3.jpg,Images/Speaker4.jpg,Audio/Speaker3_En/P3-9-En.wav,Speaker3,گوینده۳,,,,,,,,,1,52,132,48,1662.654052165999,,,,,,,,,,,,,,,,,,,,,,,,,,,,,,,,,,,,,,,,,,,,,1662.6285667499997,1662.654052165999,1662.654052165999,1662.654052165999,1662.654052165999,1662.6597526243318,1662.654052165999,1662.654052165999,1663.8561250409984,Correct! صحیح است,3,1.2006018749998475,None,0,133,1663.8601194579987,1663.8710032499985,1665.8814001659994,1665.8548347079995,1665.854875125,0.0,False,1665.8553034159995,332031,001,2024-07-01_13h00.28.483,5-26,2024.1.4,None,2024-07-01 13h00.33.987594 +0900,
Images/Speaker1.jpg,Images/Speaker2.jpg,Images/Speaker3.jpg,Images/Speaker4.jpg,Audio/Speaker1_En/P1-2-En.wav,Speaker1,گوینده ۱,,,,,,,,,1,53,133,1,1665.8814001659994,,,,,,,,,,,,,,,,,,,,,,,,,,,,,,,,,,,,,,,,,,,,,1665.856278457999,1665.8814001659994,1665.8814001659994,1665.8814001659994,1665.8814001659994,1665.887163791333,1665.8814001659994,1665.8814001659994,1666.7534597499998,Correct! صحیح است,1,0.862905416999638,None,0,134,1666.7576855829993,1666.7692622499999,1668.7811006659995,1668.7572204579992,1668.7572294579986,0.0,False,1668.757420041,332031,001,2024-07-01_13h00.28.483,5-26,2024.1.4,None,2024-07-01 13h00.33.987594 +0900,
Images/Speaker1.jpg,Images/Speaker2.jpg,Images/Speaker3.jpg,Images/Speaker4.jpg,Audio/Speaker3_En/P3-1-En.wav,Speaker3,گوینده۳,,,,,,,,,1,54,134,40,1668.7811006659995,,,,,,,,,,,,,,,,,,,,,,,,,,,,,,,,,,,,,,,,,,,,,1668.757604332999,1668.7811006659995,1668.7811006659995,1668.7811006659995,1668.7811006659995,1668.7902777493332,1668.7811006659995,1668.7811006659995,1671.4822317499984,Incorrect! The correct answer is Speaker3. نادرست! پاسخ صحیح گوینده۳ است,4,2.698917249999795,None,0,135,1671.4861214579996,1671.4990669999988,1673.5081646659983,1673.483380915999,1673.483388540999,0.0,False,1673.4835534579997,332031,001,2024-07-01_13h00.28.483,5-26,2024.1.4,None,2024-07-01 13h00.33.987594 +0900,
Images/Speaker1.jpg,Images/Speaker2.jpg,Images/Speaker3.jpg,Images/Speaker4.jpg,Audio/Speaker4_En/P4-14-En.wav,Speaker4,گوینده۴,,,,,,,,,1,55,135,73,1673.5081646659983,,,,,,,,,,,,,,,,,,,,,,,,,,,,,,,,,,,,,,,,,,,,,1673.4837680409983,1673.5081646659983,1673.5081646659983,1673.5081646659983,1673.5081646659983,1673.5163789993317,1673.5081646659983,1673.5081646659983,1674.981148416,Correct! صحیح است,4,1.4619459170007758,None,0,136,1674.9855195,1674.9951078329996,1677.0033893749987,1676.9802570409993,1676.9802713749996,0.0,False,1676.9804385409989,332031,001,2024-07-01_13h00.28.483,5-26,2024.1.4,None,2024-07-01 13h00.33.987594 +0900,
Images/Speaker1.jpg,Images/Speaker2.jpg,Images/Speaker3.jpg,Images/Speaker4.jpg,Audio/Speaker2_En/P2-19-En.wav,Speaker2,گوینده۲,,,,,,,,,1,56,136,38,1677.0033893749987,,,,,,,,,,,,,,,,,,,,,,,,,,,,,,,,,,,,,,,,,,,,,1676.9806494159984,1677.0033893749987,1677.0033893749987,1677.0033893749987,1677.0033893749987,1677.0132281243318,1677.0033893749987,1677.0033893749987,1678.800629333,Correct! صحیح است,2,1.7935307079987979,None,0,137,1678.8049050829995,1678.8163327909988,1680.8297434999986,1680.8059129999983,1680.8059539999995,0.0,False,1680.8065374999987,332031,001,2024-07-01_13h00.28.483,5-26,2024.1.4,None,2024-07-01 13h00.33.987594 +0900,
Images/Speaker1.jpg,Images/Speaker2.jpg,Images/Speaker3.jpg,Images/Speaker4.jpg,Audio/Speaker1_En/P1-17-En.wav,Speaker1,گوینده ۱,,,,,,,,,1,57,137,16,1680.8297434999986,,,,,,,,,,,,,,,,,,,,,,,,,,,,,,,,,,,,,,,,,,,,,1680.8074834159997,1680.8297434999986,1680.8297434999986,1680.8297434999986,1680.8297434999986,1680.8379975413322,1680.8297434999986,1680.8297434999986,1682.0978262499993,Correct! صحیح است,1,1.2668487920000189,None,0,138,1682.1020854159997,1682.1131262909985,,1684.1043764159986,1684.104412875,0.0,False,1684.1052157909999,332031,001,2024-07-01_13h00.28.483,5-26,2024.1.4,None,2024-07-01 13h00.33.987594 +0900,
Images/Speaker1.jpg,Images/Speaker2.jpg,Images/Speaker3.jpg,Images/Speaker4.jpg,Audio/Speaker1_En/P1-4-En.wav,Speaker1,گوینده ۱,,,,,,,,,1,58,138,3,1684.1331464579998,,,,,,,,,,,,,,,,,,,,,,,,,,,,,,,,,,,,,,,,,,,,,1684.1060882079983,1684.1331464579998,1684.1331464579998,1684.1331464579998,1684.1331464579998,1684.137550166332,1684.1331464579998,1684.1331464579998,1686.1399219579998,Correct! صحیح است,1,2.0046949999996286,None,0,139,1686.1436857909994,1686.1547406659993,,1688.1440551659998,1688.1440641249992,0.0,False,1688.1442861659998,332031,001,2024-07-01_13h00.28.483,5-26,2024.1.4,None,2024-07-01 13h00.33.987594 +0900,
Images/Speaker1.jpg,Images/Speaker2.jpg,Images/Speaker3.jpg,Images/Speaker4.jpg,Audio/Speaker4_En/P4-15-En.wav,Speaker4,گوینده۴,,,,,,,,,1,59,139,74,1688.1670730829992,,,,,,,,,,,,,,,,,,,,,,,,,,,,,,,,,,,,,,,,,,,,,1688.144489708,1688.1670730829992,1688.1670730829992,1688.1670730829992,1688.1670730829992,1688.1773535833331,1688.1670730829992,1688.1670730829992,1690.6116516249986,Correct! صحیح است,4,2.437945749999926,None,0,140,1690.6155757079996,1690.6282981249988,,1692.6198016659982,1692.6198509159985,0.0,False,1692.6206462909995,332031,001,2024-07-01_13h00.28.483,5-26,2024.1.4,None,2024-07-01 13h00.33.987594 +0900,
Images/Speaker1.jpg,Images/Speaker2.jpg,Images/Speaker3.jpg,Images/Speaker4.jpg,Audio/Speaker3_En/P3-5-En.wav,Speaker3,گوینده۳,,,,,,,,,1,60,140,44,1692.64763675,,,,,,,,,,,,,,,,,,,,,,,,,,,,,,,,,,,,,,,,,,,,,1692.6215623749995,1692.64763675,1692.64763675,1692.64763675,1692.64763675,1692.652955291333,1692.64763675,1692.64763675,1695.6061881249989,Correct! صحیح است,3,2.9571662500002276,None,0,141,1695.6102695829995,1695.6219605409988,1697.6333633329996,1697.6063653329984,1697.6064011249982,0.0,False,1697.6068138749997,332031,001,2024-07-01_13h00.28.483,5-26,2024.1.4,None,2024-07-01 13h00.33.987594 +0900,
Images/Speaker1.jpg,Images/Speaker2.jpg,Images/Speaker3.jpg,Images/Speaker4.jpg,Audio/Speaker4_En/P4-3-En.wav,Speaker4,گوینده۴,,,,,,,,,1,61,141,62,1697.6333633329996,,,,,,,,,,,,,,,,,,,,,,,,,,,,,,,,,,,,,,,,,,,,,1697.6076701659986,1697.6333633329996,1697.6333633329996,1697.6333633329996,1697.6333633329996,1697.638780916332,1697.6333633329996,1697.6333633329996,1699.6635534999987,Correct! صحیح است,4,2.0201960839985986,None,0,142,1699.667526457999,1699.6792775409995,1701.689743249999,1701.6632500829983,1701.663288415999,0.0,False,1701.66393325,332031,001,2024-07-01_13h00.28.483,5-26,2024.1.4,None,2024-07-01 13h00.33.987594 +0900,
Images/Speaker1.jpg,Images/Speaker2.jpg,Images/Speaker3.jpg,Images/Speaker4.jpg,Audio/Speaker1_En/P1-8-En.wav,Speaker1,گوینده ۱,,,,,,,,,1,62,142,7,1701.689743249999,,,,,,,,,,,,,,,,,,,,,,,,,,,,,,,,,,,,,,,,,,,,,1701.6649299579985,1701.689743249999,1701.689743249999,1701.689743249999,1701.689743249999,1701.6955528743333,1701.689743249999,1701.689743249999,1704.512674915999,Correct! صحیح است,1,2.8128655000000435,None,0,143,1704.516637499999,1704.5282563329984,1706.5384740829995,1706.5117128329985,1706.5117452079994,0.0,False,1706.5121360409994,332031,001,2024-07-01_13h00.28.483,5-26,2024.1.4,None,2024-07-01 13h00.33.987594 +0900,
Images/Speaker1.jpg,Images/Speaker2.jpg,Images/Speaker3.jpg,Images/Speaker4.jpg,Audio/Speaker3_En/P3-16-En.wav,Speaker3,گوینده۳,,,,,,,,,1,63,143,55,1706.5384740829995,,,,,,,,,,,,,,,,,,,,,,,,,,,,,,,,,,,,,,,,,,,,,1706.5129888749998,1706.5384740829995,1706.5384740829995,1706.5384740829995,1706.5384740829995,1706.5440873743323,1706.5384740829995,1706.5384740829995,1709.3728560829986,Correct! صحیح است,3,2.8292482090000703,None,0,144,1709.3731091249992,1709.3840834999992,,1711.3767704579986,1711.3767987909996,0.0,False,1711.3776128749996,332031,001,2024-07-01_13h00.28.483,5-26,2024.1.4,None,2024-07-01 13h00.33.987594 +0900,
Images/Speaker1.jpg,Images/Speaker2.jpg,Images/Speaker3.jpg,Images/Speaker4.jpg,Audio/Speaker2_En/P2-2-En.wav,Speaker2,گوینده۲,,,,,,,,,1,64,144,21,1711.4020323329987,,,,,,,,,,,,,,,,,,,,,,,,,,,,,,,,,,,,,,,,,,,,,1711.3781474579991,1711.4020323329987,1711.4020323329987,1711.4020323329987,1711.4020323329987,1711.409955374333,1711.4020323329987,1711.4020323329987,1713.2686022499984,Correct! صحیح است,2,1.8634492910005065,None,0,145,1713.2725559579994,1713.283901499999,,1715.2774446659987,1715.2774761249984,0.0,False,1715.2783038329999,332031,001,2024-07-01_13h00.28.483,5-26,2024.1.4,None,2024-07-01 13h00.33.987594 +0900,
Images/Speaker1.jpg,Images/Speaker2.jpg,Images/Speaker3.jpg,Images/Speaker4.jpg,Audio/Speaker2_En/P2-7-En.wav,Speaker2,گوینده۲,,,,,,,,,1,65,145,26,1715.303708207999,,,,,,,,,,,,,,,,,,,,,,,,,,,,,,,,,,,,,,,,,,,,,1715.2788902909997,1715.303708207999,1715.303708207999,1715.303708207999,1715.303708207999,1715.3106091243321,1715.303708207999,1715.303708207999,1717.5745696659997,Correct! صحیح است,2,2.2607424999987416,None,0,146,1717.578816583,1717.5876842079997,1719.5940432079988,1719.5709619579993,1719.5709696659997,0.0,False,1719.5711345829986,332031,001,2024-07-01_13h00.28.483,5-26,2024.1.4,None,2024-07-01 13h00.33.987594 +0900,
Images/Speaker1.jpg,Images/Speaker2.jpg,Images/Speaker3.jpg,Images/Speaker4.jpg,Audio/Speaker1_En/P1-7-En.wav,Speaker1,گوینده ۱,,,,,,,,,1,66,146,6,1719.5940432079988,,,,,,,,,,,,,,,,,,,,,,,,,,,,,,,,,,,,,,,,,,,,,1719.5713098329998,1719.5940432079988,1719.5940432079988,1719.5940432079988,1719.5940432079988,1719.6040623333324,1719.5940432079988,1719.5940432079988,1721.259540957999,Correct! صحیح است,1,1.6571285409991106,None,0,147,1721.263529291,1721.274264665999,1723.2811507079987,1723.2587174159999,1723.2587267909985,0.0,False,1723.258905749999,332031,001,2024-07-01_13h00.28.483,5-26,2024.1.4,None,2024-07-01 13h00.33.987594 +0900,
Images/Speaker1.jpg,Images/Speaker2.jpg,Images/Speaker3.jpg,Images/Speaker4.jpg,Audio/Speaker4_En/P4-16-En.wav,Speaker4,گوینده۴,,,,,,,,,1,67,147,75,1723.2811507079987,,,,,,,,,,,,,,,,,,,,,,,,,,,,,,,,,,,,,,,,,,,,,1723.2590948749985,1723.2811507079987,1723.2811507079987,1723.2811507079987,1723.2811507079987,1723.2750123746666,1723.2811507079987,1723.2811507079987,1725.242200916,Correct! صحیح است,4,1.9599651249991439,None,0,148,1725.246012874999,1725.2574032079992,1727.2733744999987,1727.2455769159988,1727.2456027499993,0.0,False,1727.2460423329994,332031,001,2024-07-01_13h00.28.483,5-26,2024.1.4,None,2024-07-01 13h00.33.987594 +0900,
