SpeakerImage1,SpeakerImage2,SpeakerImage3,SpeakerImage4,TrainingSound,EnglishCorrectAnswer,PersianCorrectAnswer,TrainingLoopGroup1.thisRepN,TrainingLoopGroup1.thisTrialN,TrainingLoopGroup1.thisN,TrainingLoopGroup1.thisIndex,TrainingLoopGroup2.thisRepN,TrainingLoopGroup2.thisTrialN,TrainingLoopGroup2.thisN,TrainingLoopGroup2.thisIndex,TrainingLoopGroup3.thisRepN,TrainingLoopGroup3.thisTrialN,TrainingLoopGroup3.thisN,TrainingLoopGroup3.thisIndex,thisRow.t,notes,trial.started,trial.stopped,GroupSelection.started,GroupInstructions.started,key_resp.started,GroupSelection.stopped,key_resp.keys,key_resp.rt,key_resp.duration,Introduction.started,text_2.started,image.started,sound_7.started,text_4.started,text_2.stopped,sound_8.started,image.stopped,text_4.stopped,image_7.started,sound_9.started,text_5.started,sound_10.started,image_7.stopped,text_5.stopped,image_8.started,sound_11.started,text_6.started,sound_12.started,image_8.stopped,text_6.stopped,image_9.started,sound_13.started,text_7.started,sound_14.started,image_9.stopped,text_7.stopped,Introduction.stopped,Instructions.started,InstructionText.started,InstructionText.stopped,Instructions.stopped,InitializeExperiment.started,InitializeExperiment.stopped,TrainingGroup3.started,SpeakerPicture3.started,image_15.started,image_16.started,image_17.started,Sound3.started,Instruction3.started,Response3.started,TrainingGroup3.stopped,feedbackText,Response3.keys,Response3.rt,Response3.duration,correct_responses_group3,total_trials_group3,FeedbackRoutine3.started,FeedbackText3.started,FeedbackText3.stopped,FeedbackRoutine3.stopped,CheckAccuracy3.started,CheckAccuracy3.stopped,participant,session,date,expName,psychopyVersion,frameRate,expStart,
,,,,,,,,,,,,,,,,,,,,,0.009238292000190995,0.009532084000056784,,,,,,,,,,,,,,,,,,,,,,,,,,,,,,,,,,,,,,,,,,,,,,,,,,,,,,,,,,,,,,,332514,001,2024-07-01_16h47.59.378,5-26,2024.1.4,None,2024-07-01 16h48.04.117606 +0900,
,,,,,,,,,,,,,,,,,,,,,,,0.009548584000185656,0.014264542000091751,0.014264542000091751,2.484881792000124,3,2.437283791000027,None,,,,,,,,,,,,,,,,,,,,,,,,,,,,,,,,,,,,,,,,,,,,,,,,,,,,,,,,332514,001,2024-07-01_16h47.59.378,5-26,2024.1.4,None,2024-07-01 16h48.04.117606 +0900,
,,,,,,,,,,,,,,,,,,,,,,,,,,,,,,2.4849176669999906,2.5352145840001867,7.483982875000038,7.49135287566675,7.483982875000038,7.529871834000005,12.484282666666575,17.483390792000137,17.483390792000137,17.483390792000137,17.491962416666652,17.483390792000137,22.489069875666488,27.481569084000057,27.481569084000057,27.481569084000057,27.483913416666624,27.481569084000057,32.4872979586669,37.47007258400026,37.47007258400026,37.482512999999926,37.48673925066693,37.482512999999926,42.488424875666865,47.468769584000256,47.468769584000256,47.46665145899988,,,,,,,,,,,,,,,,,,,,,,,,,,,,332514,001,2024-07-01_16h47.59.378,5-26,2024.1.4,None,2024-07-01 16h48.04.117606 +0900,
,,,,,,,,,,,,,,,,,,,,,,,,,,,,,,,,,,,,,,,,,,,,,,,,,,,,,,,,,,47.466676459000155,47.48415679200025,48.556418167000174,48.47345420900001,,,,,,,,,,,,,,,,,,,,,,,,332514,001,2024-07-01_16h47.59.378,5-26,2024.1.4,None,2024-07-01 16h48.04.117606 +0900,
,,,,,,,,,,,,,,,,,,,,,,,,,,,,,,,,,,,,,,,,,,,,,,,,,,,,,,,,,,,,,,48.473488292000184,48.47378679199983,,,,,,,,,,,,,,,,,,,,,,332514,001,2024-07-01_16h47.59.378,5-26,2024.1.4,None,2024-07-01 16h48.04.117606 +0900,
Images/Speaker1.jpg,Images/Speaker2.jpg,Images/Speaker3.jpg,Images/Speaker4.jpg,Audio/Speaker2_En/P2-8-En.wav,Speaker2,گوینده۲,,,,,,,,,0,0,0,27,48.556418167000174,,,,,,,,,,,,,,,,,,,,,,,,,,,,,,,,,,,,,,,,,,,,,48.5313088339999,48.556418167000174,48.556418167000174,48.556418167000174,48.556418167000174,48.556029292333584,48.556418167000174,48.556418167000174,51.104496542000106,Incorrect! The correct answer is Speaker2. نادرست! پاسخ صحیح گوینده۲ است,1,2.5455549170001177,None,68,81,51.11203275000025,51.125799041999926,53.13367979199984,53.10970291700005,53.10971183399988,53.109852417000184,332514,001,2024-07-01_16h47.59.378,5-26,2024.1.4,None,2024-07-01 16h48.04.117606 +0900,
Images/Speaker1.jpg,Images/Speaker2.jpg,Images/Speaker3.jpg,Images/Speaker4.jpg,Audio/Speaker1_En/P1-1-En.wav,Speaker1,گوینده ۱,,,,,,,,,0,1,1,0,53.13367979199984,,,,,,,,,,,,,,,,,,,,,,,,,,,,,,,,,,,,,,,,,,,,,53.1102034999999,53.13367979199984,53.13367979199984,53.13367979199984,53.13367979199984,53.14282350033321,53.13367979199984,53.13367979199984,55.92690183400009,Correct! صحیح است,1,2.7906748340001286,None,68,82,55.93142737500011,55.94853266700011,,57.93314375,57.93316970900014,57.93378995900002,332514,001,2024-07-01_16h47.59.378,5-26,2024.1.4,None,2024-07-01 16h48.04.117606 +0900,
Images/Speaker1.jpg,Images/Speaker2.jpg,Images/Speaker3.jpg,Images/Speaker4.jpg,Audio/Speaker4_En/P4-17-En.wav,Speaker4,گوینده۴,,,,,,,,,0,2,2,76,57.95833166700004,,,,,,,,,,,,,,,,,,,,,,,,,,,,,,,,,,,,,,,,,,,,,57.93488129200023,57.95833166700004,57.95833166700004,57.95833166700004,57.95833166700004,57.966312500333544,57.95833166700004,57.95833166700004,58.204654417000256,Incorrect! The correct answer is Speaker4. نادرست! پاسخ صحیح گوینده۴ است,1,0.24152829200011183,None,68,83,58.20968083400021,58.22319170899982,60.23251791700022,60.20832733399993,60.208351541999946,60.20861112500006,332514,001,2024-07-01_16h47.59.378,5-26,2024.1.4,None,2024-07-01 16h48.04.117606 +0900,
Images/Speaker1.jpg,Images/Speaker2.jpg,Images/Speaker3.jpg,Images/Speaker4.jpg,Audio/Speaker3_En/P3-15-En.wav,Speaker3,گوینده۳,,,,,,,,,0,3,3,54,60.23251791700022,,,,,,,,,,,,,,,,,,,,,,,,,,,,,,,,,,,,,,,,,,,,,60.20963583399998,60.23251791700022,60.23251791700022,60.23251791700022,60.23251791700022,60.240890083333426,60.23251791700022,60.23251791700022,60.434913958999914,Incorrect! The correct answer is Speaker3. نادرست! پاسخ صحیح گوینده۳ است,1,0.1868070830000761,None,68,84,60.438985499999944,60.451678709000134,62.45568987500019,62.43472433399984,62.43473412499998,62.43487408400006,332514,001,2024-07-01_16h47.59.378,5-26,2024.1.4,None,2024-07-01 16h48.04.117606 +0900,
Images/Speaker1.jpg,Images/Speaker2.jpg,Images/Speaker3.jpg,Images/Speaker4.jpg,Audio/Speaker2_En/P2-18-En.wav,Speaker2,گوینده۲,,,,,,,,,0,4,4,37,62.45568987500019,,,,,,,,,,,,,,,,,,,,,,,,,,,,,,,,,,,,,,,,,,,,,62.435173333999956,62.45568987500019,62.45568987500019,62.45568987500019,62.45568987500019,62.45117833366682,62.45568987500019,62.45568987500019,62.66115508400026,Incorrect! The correct answer is Speaker2. نادرست! پاسخ صحیح گوینده۲ است,1,0.19570275000023685,None,68,85,62.6666835420001,62.680548542,64.6862456670001,64.66525283400006,64.66526358400006,64.6653966670001,332514,001,2024-07-01_16h47.59.378,5-26,2024.1.4,None,2024-07-01 16h48.04.117606 +0900,
Images/Speaker1.jpg,Images/Speaker2.jpg,Images/Speaker3.jpg,Images/Speaker4.jpg,Audio/Speaker3_En/P3-12-En.wav,Speaker3,گوینده۳,,,,,,,,,0,5,5,51,64.6862456670001,,,,,,,,,,,,,,,,,,,,,,,,,,,,,,,,,,,,,,,,,,,,,64.665717417,64.6862456670001,64.6862456670001,64.6862456670001,64.6862456670001,64.68169762566664,64.6862456670001,64.6862456670001,64.93141479199994,Incorrect! The correct answer is Speaker3. نادرست! پاسخ صحیح گوینده۳ است,1,0.24093124999990323,None,68,86,64.93551370900013,64.94999216699989,,66.94154475000005,66.94155354199984,66.94171879199985,332514,001,2024-07-01_16h47.59.378,5-26,2024.1.4,None,2024-07-01 16h48.04.117606 +0900,
Images/Speaker1.jpg,Images/Speaker2.jpg,Images/Speaker3.jpg,Images/Speaker4.jpg,Audio/Speaker3_En/P3-13-En.wav,Speaker3,گوینده۳,,,,,,,,,0,6,6,52,66.96360104199994,,,,,,,,,,,,,,,,,,,,,,,,,,,,,,,,,,,,,,,,,,,,,66.94199470900003,66.96360104199994,66.96360104199994,66.96360104199994,66.96360104199994,66.95816558366666,66.96360104199994,66.96360104199994,67.1548656670002,Incorrect! The correct answer is Speaker3. نادرست! پاسخ صحیح گوینده۳ است,1,0.1843365839999933,None,68,87,67.15930637500014,67.171779625,69.18205325000008,69.15900033400021,69.15903645900016,69.15936349999993,332514,001,2024-07-01_16h47.59.378,5-26,2024.1.4,None,2024-07-01 16h48.04.117606 +0900,
Images/Speaker1.jpg,Images/Speaker2.jpg,Images/Speaker3.jpg,Images/Speaker4.jpg,Audio/Speaker4_En/P4-20-En.wav,Speaker4,گوینده۴,,,,,,,,,0,7,7,79,69.18205325000008,,,,,,,,,,,,,,,,,,,,,,,,,,,,,,,,,,,,,,,,,,,,,69.160598209,69.18205325000008,69.18205325000008,69.18205325000008,69.18205325000008,69.19152275033323,69.18205325000008,69.18205325000008,69.34517483399986,Incorrect! The correct answer is Speaker4. نادرست! پاسخ صحیح گوینده۴ است,1,0.16161408300013136,None,68,88,69.34964287499997,69.3625723340001,,71.35880962500005,71.35884908400021,71.35960033399988,332514,001,2024-07-01_16h47.59.378,5-26,2024.1.4,None,2024-07-01 16h48.04.117606 +0900,
Images/Speaker1.jpg,Images/Speaker2.jpg,Images/Speaker3.jpg,Images/Speaker4.jpg,Audio/Speaker4_En/P4-4-En.wav,Speaker4,گوینده۴,,,,,,,,,0,8,8,63,71.38774195899987,,,,,,,,,,,,,,,,,,,,,,,,,,,,,,,,,,,,,,,,,,,,,71.36100045900002,71.38774195899987,71.38774195899987,71.38774195899987,71.38774195899987,71.39195591733326,71.38774195899987,71.38774195899987,71.40690720900011,Incorrect! The correct answer is Speaker4. نادرست! پاسخ صحیح گوینده۴ است,1,0.011385457999949722,None,68,89,71.41085645900012,71.42127866700002,73.4284777920002,73.40623466700026,73.40626554200026,73.40665766700022,332514,001,2024-07-01_16h47.59.378,5-26,2024.1.4,None,2024-07-01 16h48.04.117606 +0900,
Images/Speaker1.jpg,Images/Speaker2.jpg,Images/Speaker3.jpg,Images/Speaker4.jpg,Audio/Speaker1_En/P1-2-En.wav,Speaker1,گوینده ۱,,,,,,,,,0,9,9,1,73.4284777920002,,,,,,,,,,,,,,,,,,,,,,,,,,,,,,,,,,,,,,,,,,,,,73.40737920899983,73.4284777920002,73.4284777920002,73.4284777920002,73.4284777920002,73.4221411256665,73.4284777920002,73.4284777920002,73.53887287499992,Correct! صحیح است,1,0.10613687499972002,None,68,90,73.54301650000025,73.55409224999994,,75.54378241699987,75.54382850000002,75.54456945899983,332514,001,2024-07-01_16h47.59.378,5-26,2024.1.4,None,2024-07-01 16h48.04.117606 +0900,
Images/Speaker1.jpg,Images/Speaker2.jpg,Images/Speaker3.jpg,Images/Speaker4.jpg,Audio/Speaker1_En/P1-18-En.wav,Speaker1,گوینده ۱,,,,,,,,,0,10,10,17,75.57228295899995,,,,,,,,,,,,,,,,,,,,,,,,,,,,,,,,,,,,,,,,,,,,,75.54591537499982,75.57228295899995,75.57228295899995,75.57228295899995,75.57228295899995,75.57693179233323,75.57228295899995,75.57228295899995,75.8917893339999,Correct! صحیح است,1,0.31815045800021835,None,68,91,75.89615291700011,75.90786204200003,77.91405629200017,77.89175454199994,77.89176287500004,77.89192062500024,332514,001,2024-07-01_16h47.59.378,5-26,2024.1.4,None,2024-07-01 16h48.04.117606 +0900,
Images/Speaker1.jpg,Images/Speaker2.jpg,Images/Speaker3.jpg,Images/Speaker4.jpg,Audio/Speaker3_En/P3-11-En.wav,Speaker3,گوینده۳,,,,,,,,,0,11,11,50,77.91405629200017,,,,,,,,,,,,,,,,,,,,,,,,,,,,,,,,,,,,,,,,,,,,,77.89225212500014,77.91405629200017,77.91405629200017,77.91405629200017,77.91405629200017,77.90814141666694,77.91405629200017,77.91405629200017,77.95666458400001,Incorrect! The correct answer is Speaker3. نادرست! پاسخ صحیح گوینده۳ است,1,0.0376620830002139,None,68,92,77.96053945899985,77.97228837500006,79.9768905840001,79.95536004199994,79.95536895900023,79.95553937500017,332514,001,2024-07-01_16h47.59.378,5-26,2024.1.4,None,2024-07-01 16h48.04.117606 +0900,
Images/Speaker1.jpg,Images/Speaker2.jpg,Images/Speaker3.jpg,Images/Speaker4.jpg,Audio/Speaker2_En/P2-12-En.wav,Speaker2,گوینده۲,,,,,,,,,0,12,12,31,79.9768905840001,,,,,,,,,,,,,,,,,,,,,,,,,,,,,,,,,,,,,,,,,,,,,79.95583129199986,79.9768905840001,79.9768905840001,79.9768905840001,79.9768905840001,79.97174283366691,79.9768905840001,79.9768905840001,79.97748858400018,Incorrect! The correct answer is Speaker2. نادرست! پاسخ صحیح گوینده۲ است,1,2.0269824580000204,None,68,93,79.98149324999986,79.99156187500012,,81.98489779200008,81.98493608399986,81.98566929200024,332514,001,2024-07-01_16h47.59.378,5-26,2024.1.4,None,2024-07-01 16h48.04.117606 +0900,
Images/Speaker1.jpg,Images/Speaker2.jpg,Images/Speaker3.jpg,Images/Speaker4.jpg,Audio/Speaker1_En/P1-7-En.wav,Speaker1,گوینده ۱,,,,,,,,,0,13,13,6,82.01025149999987,,,,,,,,,,,,,,,,,,,,,,,,,,,,,,,,,,,,,,,,,,,,,81.98685970899987,82.01025149999987,82.01025149999987,82.01025149999987,82.01025149999987,82.01808025033327,82.01025149999987,82.01025149999987,82.18931299999986,Correct! صحیح است,1,0.16864812500034532,None,68,94,82.1934040000001,82.20241616700014,84.21553237499984,84.1881023750002,84.18813420900005,84.18844795899986,332514,001,2024-07-01_16h47.59.378,5-26,2024.1.4,None,2024-07-01 16h48.04.117606 +0900,
Images/Speaker1.jpg,Images/Speaker2.jpg,Images/Speaker3.jpg,Images/Speaker4.jpg,Audio/Speaker3_En/P3-4-En.wav,Speaker3,گوینده۳,,,,,,,,,0,14,14,43,84.21553237499984,,,,,,,,,,,,,,,,,,,,,,,,,,,,,,,,,,,,,,,,,,,,,84.18962908399999,84.21553237499984,84.21553237499984,84.21553237499984,84.21553237499984,84.22064316733352,84.21553237499984,84.21553237499984,84.27340054200022,Incorrect! The correct answer is Speaker3. نادرست! پاسخ صحیح گوینده۳ است,1,0.05623370800003613,None,68,95,84.27771991700001,84.29047025,,86.28513758400004,86.28514666699994,86.28534241700027,332514,001,2024-07-01_16h47.59.378,5-26,2024.1.4,None,2024-07-01 16h48.04.117606 +0900,
Images/Speaker1.jpg,Images/Speaker2.jpg,Images/Speaker3.jpg,Images/Speaker4.jpg,Audio/Speaker4_En/P4-11-En.wav,Speaker4,گوینده۴,,,,,,,,,0,15,15,70,86.30607679200011,,,,,,,,,,,,,,,,,,,,,,,,,,,,,,,,,,,,,,,,,,,,,86.2856229590002,86.30607679200011,86.30607679200011,86.30607679200011,86.30607679200011,86.30176300066684,86.30607679200011,86.30607679200011,86.44471558399982,Incorrect! The correct answer is Speaker4. نادرست! پاسخ صحیح گوینده۴ است,1,0.12795004200006588,None,68,96,86.44903704199987,86.46204008399991,88.46784891700008,88.44630545900009,88.44631404200027,88.44651408400023,332514,001,2024-07-01_16h47.59.378,5-26,2024.1.4,None,2024-07-01 16h48.04.117606 +0900,
Images/Speaker1.jpg,Images/Speaker2.jpg,Images/Speaker3.jpg,Images/Speaker4.jpg,Audio/Speaker2_En/P2-9-En.wav,Speaker2,گوینده۲,,,,,,,,,0,16,16,28,88.46784891700008,,,,,,,,,,,,,,,,,,,,,,,,,,,,,,,,,,,,,,,,,,,,,88.44680370900005,88.46784891700008,88.46784891700008,88.46784891700008,88.46784891700008,88.46274862566658,88.46784891700008,88.46784891700008,88.66901054200025,Incorrect! The correct answer is Speaker2. نادرست! پاسخ صحیح گوینده۲ است,1,0.18935812500012617,None,68,97,88.67343279199986,88.68601370900024,90.69677329200022,90.67139466700019,90.67142216699995,90.67170045900002,332514,001,2024-07-01_16h47.59.378,5-26,2024.1.4,None,2024-07-01 16h48.04.117606 +0900,
Images/Speaker1.jpg,Images/Speaker2.jpg,Images/Speaker3.jpg,Images/Speaker4.jpg,Audio/Speaker4_En/P4-19-En.wav,Speaker4,گوینده۴,,,,,,,,,0,17,17,78,90.69677329200022,,,,,,,,,,,,,,,,,,,,,,,,,,,,,,,,,,,,,,,,,,,,,90.67291133400022,90.69677329200022,90.69677329200022,90.69677329200022,90.69677329200022,90.70393291733356,90.69677329200022,90.69677329200022,90.91868279200025,Incorrect! The correct answer is Speaker4. نادرست! پاسخ صحیح گوینده۴ است,1,0.2157170419995964,None,68,98,90.92285920899985,90.93570012500004,92.94707970900026,92.92240929199988,92.92244270899982,92.92276233400025,332514,001,2024-07-01_16h47.59.378,5-26,2024.1.4,None,2024-07-01 16h48.04.117606 +0900,
Images/Speaker1.jpg,Images/Speaker2.jpg,Images/Speaker3.jpg,Images/Speaker4.jpg,Audio/Speaker3_En/P3-2-En.wav,Speaker3,گوینده۳,,,,,,,,,0,18,18,41,92.94707970900026,,,,,,,,,,,,,,,,,,,,,,,,,,,,,,,,,,,,,,,,,,,,,92.92386416699992,92.94707970900026,92.94707970900026,92.94707970900026,92.94707970900026,92.95489437533345,92.94707970900026,92.94707970900026,93.06842912499997,Incorrect! The correct answer is Speaker3. نادرست! پاسخ صحیح گوینده۳ است,1,0.11197733399967547,None,68,99,93.07250508400011,93.08521199999996,,95.07985129200006,95.07989462500018,95.08058075000008,332514,001,2024-07-01_16h47.59.378,5-26,2024.1.4,None,2024-07-01 16h48.04.117606 +0900,
Images/Speaker1.jpg,Images/Speaker2.jpg,Images/Speaker3.jpg,Images/Speaker4.jpg,Audio/Speaker2_En/P2-19-En.wav,Speaker2,گوینده۲,,,,,,,,,0,19,19,38,95.10267466699997,,,,,,,,,,,,,,,,,,,,,,,,,,,,,,,,,,,,,,,,,,,,,95.08164091700019,95.10267466699997,95.10267466699997,95.10267466699997,95.10267466699997,95.09632841666668,95.10267466699997,95.10267466699997,95.20264537499997,Incorrect! The correct answer is Speaker2. نادرست! پاسخ صحیح گوینده۲ است,1,0.09801083399997879,None,68,100,95.20645599999989,95.21896779200006,97.2255314590002,97.20296716700022,97.20297666700026,97.20314912499998,332514,001,2024-07-01_16h47.59.378,5-26,2024.1.4,None,2024-07-01 16h48.04.117606 +0900,
Images/Speaker1.jpg,Images/Speaker2.jpg,Images/Speaker3.jpg,Images/Speaker4.jpg,Audio/Speaker3_En/P3-8-En.wav,Speaker3,گوینده۳,,,,,,,,,0,20,20,47,97.2255314590002,,,,,,,,,,,,,,,,,,,,,,,,,,,,,,,,,,,,,,,,,,,,,97.2034597920001,97.2255314590002,97.2255314590002,97.2255314590002,97.2255314590002,97.21941904166694,97.2255314590002,97.2255314590002,97.415947125,Incorrect! The correct answer is Speaker3. نادرست! پاسخ صحیح گوینده۳ است,1,0.18165700000008655,None,68,101,97.4203630840002,97.43104904200027,,99.42823770899986,99.42827366700021,99.42898537500014,332514,001,2024-07-01_16h47.59.378,5-26,2024.1.4,None,2024-07-01 16h48.04.117606 +0900,
Images/Speaker1.jpg,Images/Speaker2.jpg,Images/Speaker3.jpg,Images/Speaker4.jpg,Audio/Speaker1_En/P1-3-En.wav,Speaker1,گوینده ۱,,,,,,,,,0,21,21,2,99.45514037500016,,,,,,,,,,,,,,,,,,,,,,,,,,,,,,,,,,,,,,,,,,,,,99.42994054200017,99.45514037500016,99.45514037500016,99.45514037500016,99.45514037500016,99.4613805833333,99.45514037500016,99.45514037500016,99.45572466700014,Correct! صحیح است,1,2.204895082999883,None,68,102,99.45630420899988,99.46498737499996,101.47106658400025,101.45006766699998,101.45007629200018,101.4502133750002,332514,001,2024-07-01_16h47.59.378,5-26,2024.1.4,None,2024-07-01 16h48.04.117606 +0900,
Images/Speaker1.jpg,Images/Speaker2.jpg,Images/Speaker3.jpg,Images/Speaker4.jpg,Audio/Speaker3_En/P3-16-En.wav,Speaker3,گوینده۳,,,,,,,,,0,22,22,55,101.47106658400025,,,,,,,,,,,,,,,,,,,,,,,,,,,,,,,,,,,,,,,,,,,,,101.45049379200009,101.47106658400025,101.47106658400025,101.47106658400025,101.47106658400025,101.46652266666685,101.47106658400025,101.47106658400025,101.64360862500007,Incorrect! The correct answer is Speaker3. نادرست! پاسخ صحیح گوینده۳ است,1,0.17056916699993963,None,68,103,101.64756329200009,101.6604219589999,103.66534608400025,103.6435463339999,103.64355491700007,103.64369183400004,332514,001,2024-07-01_16h47.59.378,5-26,2024.1.4,None,2024-07-01 16h48.04.117606 +0900,
Images/Speaker1.jpg,Images/Speaker2.jpg,Images/Speaker3.jpg,Images/Speaker4.jpg,Audio/Speaker4_En/P4-10-En.wav,Speaker4,گوینده۴,,,,,,,,,0,23,23,69,103.66534608400025,,,,,,,,,,,,,,,,,,,,,,,,,,,,,,,,,,,,,,,,,,,,,103.64399725000021,103.66534608400025,103.66534608400025,103.66534608400025,103.66534608400025,103.65993391666667,103.66534608400025,103.66534608400025,103.82114366699989,Incorrect! The correct answer is Speaker4. نادرست! پاسخ صحیح گوینده۴ است,1,0.1547589589999916,None,68,104,103.82507870900008,103.83785441700002,105.84511570899986,105.8217525,105.82176141699983,105.82210454200003,332514,001,2024-07-01_16h47.59.378,5-26,2024.1.4,None,2024-07-01 16h48.04.117606 +0900,
Images/Speaker1.jpg,Images/Speaker2.jpg,Images/Speaker3.jpg,Images/Speaker4.jpg,Audio/Speaker2_En/P2-1-En.wav,Speaker2,گوینده۲,,,,,,,,,0,24,24,20,105.84511570899986,,,,,,,,,,,,,,,,,,,,,,,,,,,,,,,,,,,,,,,,,,,,,105.82309316700002,105.84511570899986,105.84511570899986,105.84511570899986,105.84511570899986,105.85486412533331,105.84511570899986,105.84511570899986,105.93317100000013,Incorrect! The correct answer is Speaker2. نادرست! پاسخ صحیح گوینده۲ است,1,0.08650941599989892,None,68,105,105.937631625,105.95066883400023,,107.94458441699999,107.944597875,107.94477883399986,332514,001,2024-07-01_16h47.59.378,5-26,2024.1.4,None,2024-07-01 16h48.04.117606 +0900,
Images/Speaker1.jpg,Images/Speaker2.jpg,Images/Speaker3.jpg,Images/Speaker4.jpg,Audio/Speaker2_En/P2-16-En.wav,Speaker2,گوینده۲,,,,,,,,,0,25,25,35,107.96891770899992,,,,,,,,,,,,,,,,,,,,,,,,,,,,,,,,,,,,,,,,,,,,,107.9451113340001,107.96891770899992,107.96891770899992,107.96891770899992,107.96891770899992,107.96119862566663,107.96891770899992,107.96891770899992,107.96954945900006,Incorrect! The correct answer is Speaker2. نادرست! پاسخ صحیح گوینده۲ است,1,2.112469916000009,None,68,106,107.97381358400025,107.98451116700016,,109.97391625,109.9739334169999,109.9741035420002,332514,001,2024-07-01_16h47.59.378,5-26,2024.1.4,None,2024-07-01 16h48.04.117606 +0900,
Images/Speaker1.jpg,Images/Speaker2.jpg,Images/Speaker3.jpg,Images/Speaker4.jpg,Audio/Speaker1_En/P1-6-En.wav,Speaker1,گوینده ۱,,,,,,,,,0,26,26,5,109.9955298750001,,,,,,,,,,,,,,,,,,,,,,,,,,,,,,,,,,,,,,,,,,,,,109.97439137499987,109.9955298750001,109.9955298750001,109.9955298750001,109.9955298750001,109.99053425066656,109.9955298750001,109.9955298750001,110.14791541700015,Correct! صحیح است,1,0.15140816700022697,None,68,107,110.15195975000006,110.16291541700002,112.16795620899984,112.14587308399996,112.14588179200018,112.14604358399993,332514,001,2024-07-01_16h47.59.378,5-26,2024.1.4,None,2024-07-01 16h48.04.117606 +0900,
Images/Speaker1.jpg,Images/Speaker2.jpg,Images/Speaker3.jpg,Images/Speaker4.jpg,Audio/Speaker4_En/P4-13-En.wav,Speaker4,گوینده۴,,,,,,,,,0,27,27,72,112.16795620899984,,,,,,,,,,,,,,,,,,,,,,,,,,,,,,,,,,,,,,,,,,,,,112.14637895900023,112.16795620899984,112.16795620899984,112.16795620899984,112.16795620899984,112.16228562566654,112.16795620899984,112.16795620899984,112.29383283400011,Incorrect! The correct answer is Speaker4. نادرست! پاسخ صحیح گوینده۴ است,1,0.12464908399988417,None,68,108,112.29789958399988,112.30999616700001,,114.29988733400023,114.29991762500003,114.30060683400006,332514,001,2024-07-01_16h47.59.378,5-26,2024.1.4,None,2024-07-01 16h48.04.117606 +0900,
Images/Speaker1.jpg,Images/Speaker2.jpg,Images/Speaker3.jpg,Images/Speaker4.jpg,Audio/Speaker2_En/P2-15-En.wav,Speaker2,گوینده۲,,,,,,,,,0,28,28,34,114.32706233399995,,,,,,,,,,,,,,,,,,,,,,,,,,,,,,,,,,,,,,,,,,,,,114.30184420900014,114.32706233399995,114.32706233399995,114.32706233399995,114.32706233399995,114.33304550033338,114.32706233399995,114.32706233399995,114.50051779200021,Incorrect! The correct answer is Speaker2. نادرست! پاسخ صحیح گوینده۲ است,1,0.17029025000010733,None,68,109,114.50479366699983,114.51681329199982,,116.50592029200016,116.50594979200014,116.50662495899996,332514,001,2024-07-01_16h47.59.378,5-26,2024.1.4,None,2024-07-01 16h48.04.117606 +0900,
Images/Speaker1.jpg,Images/Speaker2.jpg,Images/Speaker3.jpg,Images/Speaker4.jpg,Audio/Speaker2_En/P2-10-En.wav,Speaker2,گوینده۲,,,,,,,,,0,29,29,29,116.53138929199986,,,,,,,,,,,,,,,,,,,,,,,,,,,,,,,,,,,,,,,,,,,,,116.50785187500014,116.53138929199986,116.53138929199986,116.53138929199986,116.53138929199986,116.53905091733353,116.53138929199986,116.53138929199986,116.83300608399986,Incorrect! The correct answer is Speaker2. نادرست! پاسخ صحیح گوینده۲ است,1,0.29371229099979246,None,68,110,116.8370091669999,116.849968042,118.85674900000004,118.83488320900005,118.83489537500009,118.83506775000023,332514,001,2024-07-01_16h47.59.378,5-26,2024.1.4,None,2024-07-01 16h48.04.117606 +0900,
Images/Speaker1.jpg,Images/Speaker2.jpg,Images/Speaker3.jpg,Images/Speaker4.jpg,Audio/Speaker3_En/P3-7-En.wav,Speaker3,گوینده۳,,,,,,,,,0,30,30,46,118.85674900000004,,,,,,,,,,,,,,,,,,,,,,,,,,,,,,,,,,,,,,,,,,,,,118.83537054199996,118.85674900000004,118.85674900000004,118.85674900000004,118.85674900000004,118.85128320866649,118.85674900000004,118.85674900000004,118.94471654200015,Incorrect! The correct answer is Speaker3. نادرست! پاسخ صحیح گوینده۳ است,1,0.08442624999997861,None,68,111,118.94918129200005,118.96218987500015,120.97006170900022,120.94766370900015,120.94767224999987,120.94782995900005,332514,001,2024-07-01_16h47.59.378,5-26,2024.1.4,None,2024-07-01 16h48.04.117606 +0900,
Images/Speaker1.jpg,Images/Speaker2.jpg,Images/Speaker3.jpg,Images/Speaker4.jpg,Audio/Speaker3_En/P3-14-En.wav,Speaker3,گوینده۳,,,,,,,,,0,31,31,53,120.97006170900022,,,,,,,,,,,,,,,,,,,,,,,,,,,,,,,,,,,,,,,,,,,,,120.94812050000019,120.97006170900022,120.97006170900022,120.97006170900022,120.97006170900022,120.96410304166672,120.97006170900022,120.97006170900022,121.08103358400012,Incorrect! The correct answer is Speaker3. نادرست! پاسخ صحیح گوینده۳ است,1,0.10166312499995911,None,68,112,121.08546187499996,121.09821887499993,123.10540729200011,123.08274900000015,123.08277504199987,123.08306029200003,332514,001,2024-07-01_16h47.59.378,5-26,2024.1.4,None,2024-07-01 16h48.04.117606 +0900,
Images/Speaker1.jpg,Images/Speaker2.jpg,Images/Speaker3.jpg,Images/Speaker4.jpg,Audio/Speaker4_En/P4-1-En.wav,Speaker4,گوینده۴,,,,,,,,,0,32,32,60,123.10540729200011,,,,,,,,,,,,,,,,,,,,,,,,,,,,,,,,,,,,,,,,,,,,,123.08412124999995,123.10540729200011,123.10540729200011,123.10540729200011,123.10540729200011,123.11510162533344,123.10540729200011,123.10540729200011,123.27760254199984,Incorrect! The correct answer is Speaker4. نادرست! پاسخ صحیح گوینده۴ است,1,0.17005420900022727,None,68,113,123.28202654200004,123.29479008399994,125.30268520900017,125.28084995900008,125.28085800000008,125.28099066699997,332514,001,2024-07-01_16h47.59.378,5-26,2024.1.4,None,2024-07-01 16h48.04.117606 +0900,
Images/Speaker1.jpg,Images/Speaker2.jpg,Images/Speaker3.jpg,Images/Speaker4.jpg,Audio/Speaker2_En/P2-6-En.wav,Speaker2,گوینده۲,,,,,,,,,0,33,33,25,125.30268520900017,,,,,,,,,,,,,,,,,,,,,,,,,,,,,,,,,,,,,,,,,,,,,125.28128029200025,125.30268520900017,125.30268520900017,125.30268520900017,125.30268520900017,125.29727254166689,125.30268520900017,125.30268520900017,125.46904720900011,Incorrect! The correct answer is Speaker2. نادرست! پاسخ صحیح گوینده۲ است,1,0.16285316699986652,None,68,114,125.47298166700011,125.485520834,127.49360745900003,127.47128225000006,127.47129266699994,127.47146808400021,332514,001,2024-07-01_16h47.59.378,5-26,2024.1.4,None,2024-07-01 16h48.04.117606 +0900,
Images/Speaker1.jpg,Images/Speaker2.jpg,Images/Speaker3.jpg,Images/Speaker4.jpg,Audio/Speaker3_En/P3-19-En.wav,Speaker3,گوینده۳,,,,,,,,,0,34,34,58,127.49360745900003,,,,,,,,,,,,,,,,,,,,,,,,,,,,,,,,,,,,,,,,,,,,,127.47178633400017,127.49360745900003,127.49360745900003,127.49360745900003,127.49360745900003,127.48770316666675,127.49360745900003,127.49360745900003,127.74705504199983,Incorrect! The correct answer is Speaker3. نادرست! پاسخ صحیح گوینده۳ است,1,0.2525552920001246,None,68,115,127.75217754200003,127.766522334,,129.75332558399987,129.75333737500023,129.75358749999987,332514,001,2024-07-01_16h47.59.378,5-26,2024.1.4,None,2024-07-01 16h48.04.117606 +0900,
Images/Speaker1.jpg,Images/Speaker2.jpg,Images/Speaker3.jpg,Images/Speaker4.jpg,Audio/Speaker1_En/P1-15-En.wav,Speaker1,گوینده ۱,,,,,,,,,0,35,35,14,129.7755846250002,,,,,,,,,,,,,,,,,,,,,,,,,,,,,,,,,,,,,,,,,,,,,129.75387200000023,129.7755846250002,129.7755846250002,129.7755846250002,129.7755846250002,129.7699150836668,129.7755846250002,129.7755846250002,130.04007870900023,Correct! صحیح است,1,0.2592895409998164,None,68,116,130.0445696249999,130.05645516699997,,132.0482259999999,132.04826224999988,132.04932250000002,332514,001,2024-07-01_16h47.59.378,5-26,2024.1.4,None,2024-07-01 16h48.04.117606 +0900,
Images/Speaker1.jpg,Images/Speaker2.jpg,Images/Speaker3.jpg,Images/Speaker4.jpg,Audio/Speaker3_En/P3-10-En.wav,Speaker3,گوینده۳,,,,,,,,,0,36,36,49,132.07386924999992,,,,,,,,,,,,,,,,,,,,,,,,,,,,,,,,,,,,,,,,,,,,,132.05043475000002,132.07386924999992,132.07386924999992,132.07386924999992,132.07386924999992,132.08134195833333,132.07386924999992,132.07386924999992,132.26553454199984,Incorrect! The correct answer is Speaker3. نادرست! پاسخ صحیح گوینده۳ است,1,0.18633266599999843,None,68,117,132.2696065,132.28265950000014,134.28885233400024,134.26714462500013,134.267153667,134.2673140840002,332514,001,2024-07-01_16h47.59.378,5-26,2024.1.4,None,2024-07-01 16h48.04.117606 +0900,
Images/Speaker1.jpg,Images/Speaker2.jpg,Images/Speaker3.jpg,Images/Speaker4.jpg,Audio/Speaker1_En/P1-17-En.wav,Speaker1,گوینده ۱,,,,,,,,,0,37,37,16,134.28885233400024,,,,,,,,,,,,,,,,,,,,,,,,,,,,,,,,,,,,,,,,,,,,,134.26759341700017,134.28885233400024,134.28885233400024,134.28885233400024,134.28885233400024,134.28361283366692,134.28885233400024,134.28885233400024,134.5835394589999,Correct! صحیح است,1,0.28402454100023533,None,68,118,134.58798324999998,134.59928387499986,136.60401762499987,136.5826884170001,136.58269879199997,136.58286104199988,332514,001,2024-07-01_16h47.59.378,5-26,2024.1.4,None,2024-07-01 16h48.04.117606 +0900,
Images/Speaker1.jpg,Images/Speaker2.jpg,Images/Speaker3.jpg,Images/Speaker4.jpg,Audio/Speaker3_En/P3-20-En.wav,Speaker3,گوینده۳,,,,,,,,,0,38,38,59,136.60401762499987,,,,,,,,,,,,,,,,,,,,,,,,,,,,,,,,,,,,,,,,,,,,,136.5831532090001,136.60401762499987,136.60401762499987,136.60401762499987,136.60401762499987,136.59906320866665,136.60401762499987,136.60401762499987,136.77709300000015,Incorrect! The correct answer is Speaker3. نادرست! پاسخ صحیح گوینده۳ است,1,0.1705696250000983,None,68,119,136.78114870900026,136.79392150000012,138.80655291699986,138.7809044999999,138.78093362500022,138.78128008400017,332514,001,2024-07-01_16h47.59.378,5-26,2024.1.4,None,2024-07-01 16h48.04.117606 +0900,
Images/Speaker1.jpg,Images/Speaker2.jpg,Images/Speaker3.jpg,Images/Speaker4.jpg,Audio/Speaker4_En/P4-15-En.wav,Speaker4,گوینده۴,,,,,,,,,0,39,39,74,138.80655291699986,,,,,,,,,,,,,,,,,,,,,,,,,,,,,,,,,,,,,,,,,,,,,138.7824337500001,138.80655291699986,138.80655291699986,138.80655291699986,138.80655291699986,138.81345600033325,138.80655291699986,138.80655291699986,139.34464325,Incorrect! The correct answer is Speaker4. نادرست! پاسخ صحیح گوینده۴ است,1,0.5361592919998657,None,68,120,139.3489790839999,139.3622783750002,141.36748520899982,141.34617304199992,141.34618245899992,141.3463549170001,332514,001,2024-07-01_16h47.59.378,5-26,2024.1.4,None,2024-07-01 16h48.04.117606 +0900,
Images/Speaker1.jpg,Images/Speaker2.jpg,Images/Speaker3.jpg,Images/Speaker4.jpg,Audio/Speaker2_En/P2-17-En.wav,Speaker2,گوینده۲,,,,,,,,,0,40,40,36,141.36748520899982,,,,,,,,,,,,,,,,,,,,,,,,,,,,,,,,,,,,,,,,,,,,,141.34664212500002,141.36748520899982,141.36748520899982,141.36748520899982,141.36748520899982,141.36248083366652,141.36748520899982,141.36748520899982,141.5936817500001,Incorrect! The correct answer is Speaker2. نادرست! پاسخ صحیح گوینده۲ است,1,0.22353445800035843,None,68,121,141.59775183400006,141.61097941700018,143.62069120900014,143.59742545900008,143.5974383339999,143.59758945900012,332514,001,2024-07-01_16h47.59.378,5-26,2024.1.4,None,2024-07-01 16h48.04.117606 +0900,
Images/Speaker1.jpg,Images/Speaker2.jpg,Images/Speaker3.jpg,Images/Speaker4.jpg,Audio/Speaker1_En/P1-4-En.wav,Speaker1,گوینده ۱,,,,,,,,,0,41,41,13,143.62069120900014,,,,,,,,,,,,,,,,,,,,,,,,,,,,,,,,,,,,,,,,,,,,,143.5978762499999,143.62069120900014,143.62069120900014,143.62069120900014,143.62069120900014,143.63047670833345,143.62069120900014,143.62069120900014,143.73557016699988,Correct! صحیح است,1,0.11390029199992568,None,68,122,143.739918709,143.7510819590002,,145.74168445900023,145.74171579199992,145.74233295900012,332514,001,2024-07-01_16h47.59.378,5-26,2024.1.4,None,2024-07-01 16h48.04.117606 +0900,
Images/Speaker1.jpg,Images/Speaker2.jpg,Images/Speaker3.jpg,Images/Speaker4.jpg,Audio/Speaker1_En/P1-8-En.wav,Speaker1,گوینده ۱,,,,,,,,,0,42,42,7,145.7688505420001,,,,,,,,,,,,,,,,,,,,,,,,,,,,,,,,,,,,,,,,,,,,,145.74347716700004,145.7688505420001,145.7688505420001,145.7688505420001,145.7688505420001,145.77484608333322,145.7688505420001,145.7688505420001,145.7695544170001,Correct! صحیح است,1,2.128860166999857,None,68,123,145.77026941700024,145.77891795899995,,147.77220583400003,147.7722586670002,147.77293825000015,332514,001,2024-07-01_16h47.59.378,5-26,2024.1.4,None,2024-07-01 16h48.04.117606 +0900,
Images/Speaker1.jpg,Images/Speaker2.jpg,Images/Speaker3.jpg,Images/Speaker4.jpg,Audio/Speaker4_En/P4-12-En.wav,Speaker4,گوینده۴,,,,,,,,,0,43,43,71,147.7958766669999,,,,,,,,,,,,,,,,,,,,,,,,,,,,,,,,,,,,,,,,,,,,,147.77411145899987,147.7958766669999,147.7958766669999,147.7958766669999,147.7958766669999,147.80536162533332,147.7958766669999,147.7958766669999,147.79660329199987,Incorrect! The correct answer is Speaker4. نادرست! پاسخ صحیح گوینده۴ است,1,1.956063874999927,None,68,124,147.79710029199987,147.8073316670002,149.81452916700027,149.79294033399992,149.79294987499998,149.79311612499987,332514,001,2024-07-01_16h47.59.378,5-26,2024.1.4,None,2024-07-01 16h48.04.117606 +0900,
Images/Speaker1.jpg,Images/Speaker2.jpg,Images/Speaker3.jpg,Images/Speaker4.jpg,Audio/Speaker1_En/P1-12-En.wav,Speaker1,گوینده ۱,,,,,,,,,0,44,44,11,149.81452916700027,,,,,,,,,,,,,,,,,,,,,,,,,,,,,,,,,,,,,,,,,,,,,149.793404,149.81452916700027,149.81452916700027,149.81452916700027,149.81452916700027,149.8093815836667,149.81452916700027,149.81452916700027,149.93904525000016,Correct! صحیح است,1,0.12261833399998068,None,68,125,149.9431222090002,149.9540000840002,151.96037724999996,151.9378772089999,151.93788829200003,151.93807720899986,332514,001,2024-07-01_16h47.59.378,5-26,2024.1.4,None,2024-07-01 16h48.04.117606 +0900,
Images/Speaker1.jpg,Images/Speaker2.jpg,Images/Speaker3.jpg,Images/Speaker4.jpg,Audio/Speaker1_En/P1-19-En.wav,Speaker1,گوینده ۱,,,,,,,,,0,45,45,18,151.96037724999996,,,,,,,,,,,,,,,,,,,,,,,,,,,,,,,,,,,,,,,,,,,,,151.93839779200016,151.96037724999996,151.96037724999996,151.96037724999996,151.96037724999996,151.9542720836669,151.96037724999996,151.96037724999996,151.96096208400013,Correct! صحیح است,1,2.113809124999989,None,68,126,151.96496574999992,151.97331212500012,153.97881774999996,153.95742633400005,153.95743512499985,153.95758545900026,332514,001,2024-07-01_16h47.59.378,5-26,2024.1.4,None,2024-07-01 16h48.04.117606 +0900,
Images/Speaker1.jpg,Images/Speaker2.jpg,Images/Speaker3.jpg,Images/Speaker4.jpg,Audio/Speaker2_En/P2-13-En.wav,Speaker2,گوینده۲,,,,,,,,,0,46,46,32,153.97881774999996,,,,,,,,,,,,,,,,,,,,,,,,,,,,,,,,,,,,,,,,,,,,,153.95786950000002,153.97881774999996,153.97881774999996,153.97881774999996,153.97881774999996,153.97381670866687,153.97881774999996,153.97881774999996,154.12275854200016,Incorrect! The correct answer is Speaker2. نادرست! پاسخ صحیح گوینده۲ است,1,0.13675612499991985,None,68,127,154.12716512499992,154.13968154199983,,156.13320187499994,156.13324083399993,156.13396170900023,332514,001,2024-07-01_16h47.59.378,5-26,2024.1.4,None,2024-07-01 16h48.04.117606 +0900,
Images/Speaker1.jpg,Images/Speaker2.jpg,Images/Speaker3.jpg,Images/Speaker4.jpg,Audio/Speaker3_En/P3-18-En.wav,Speaker3,گوینده۳,,,,,,,,,0,47,47,57,156.1558634590001,,,,,,,,,,,,,,,,,,,,,,,,,,,,,,,,,,,,,,,,,,,,,156.1350944169999,156.1558634590001,156.1558634590001,156.1558634590001,156.1558634590001,156.14969937566664,156.1558634590001,156.1558634590001,156.371117917,Incorrect! The correct answer is Speaker3. نادرست! پاسخ صحیح گوینده۳ است,1,0.20733279199976096,None,68,128,156.37502587500012,156.3853798340001,158.39451341699987,158.3716125420001,158.37162116699983,158.3717872090001,332514,001,2024-07-01_16h47.59.378,5-26,2024.1.4,None,2024-07-01 16h48.04.117606 +0900,
Images/Speaker1.jpg,Images/Speaker2.jpg,Images/Speaker3.jpg,Images/Speaker4.jpg,Audio/Speaker1_En/P1-11-En.wav,Speaker1,گوینده ۱,,,,,,,,,0,48,48,10,158.39451341699987,,,,,,,,,,,,,,,,,,,,,,,,,,,,,,,,,,,,,,,,,,,,,158.37209229200016,158.39451341699987,158.39451341699987,158.39451341699987,158.39451341699987,158.38799437566675,158.39451341699987,158.39451341699987,159.05593687500004,Correct! صحیح است,1,0.6601908750003531,None,68,129,159.06036145899998,159.07153670900016,161.08584362500005,161.06116691700026,161.06119787499983,161.0616395840002,332514,001,2024-07-01_16h47.59.378,5-26,2024.1.4,None,2024-07-01 16h48.04.117606 +0900,
Images/Speaker1.jpg,Images/Speaker2.jpg,Images/Speaker3.jpg,Images/Speaker4.jpg,Audio/Speaker3_En/P3-17-En.wav,Speaker3,گوینده۳,,,,,,,,,0,49,49,56,161.08584362500005,,,,,,,,,,,,,,,,,,,,,,,,,,,,,,,,,,,,,,,,,,,,,161.0627662500001,161.08584362500005,161.08584362500005,161.08584362500005,161.08584362500005,161.09343862533348,161.08584362500005,161.08584362500005,161.22829920899994,Incorrect! The correct answer is Speaker3. نادرست! پاسخ صحیح گوینده۳ است,1,0.13694533299985778,None,68,130,161.23221316699983,161.24467504199993,163.25149287500017,163.23018000000002,163.23018787499996,163.23036083399984,332514,001,2024-07-01_16h47.59.378,5-26,2024.1.4,None,2024-07-01 16h48.04.117606 +0900,
Images/Speaker1.jpg,Images/Speaker2.jpg,Images/Speaker3.jpg,Images/Speaker4.jpg,Audio/Speaker1_En/P1-9-En.wav,Speaker1,گوینده ۱,,,,,,,,,0,50,50,8,163.25149287500017,,,,,,,,,,,,,,,,,,,,,,,,,,,,,,,,,,,,,,,,,,,,,163.23070179200022,163.25149287500017,163.25149287500017,163.25149287500017,163.25149287500017,163.24652512566652,163.25149287500017,163.25149287500017,163.39529070900016,Correct! صحیح است,1,0.14109670899961202,None,68,131,163.39942554200024,163.4104685000002,165.41987425000025,165.3989616670001,165.39897029199983,165.3991352500002,332514,001,2024-07-01_16h47.59.378,5-26,2024.1.4,None,2024-07-01 16h48.04.117606 +0900,
Images/Speaker1.jpg,Images/Speaker2.jpg,Images/Speaker3.jpg,Images/Speaker4.jpg,Audio/Speaker4_En/P4-9-En.wav,Speaker4,گوینده۴,,,,,,,,,0,51,51,68,165.41987425000025,,,,,,,,,,,,,,,,,,,,,,,,,,,,,,,,,,,,,,,,,,,,,165.39943754200021,165.41987425000025,165.41987425000025,165.41987425000025,165.41987425000025,165.41534187566666,165.41987425000025,165.41987425000025,165.5802752499999,Incorrect! The correct answer is Speaker4. نادرست! پاسخ صحیح گوینده۴ است,1,None,None,68,132,165.58566550000023,165.59618741700024,,167.59001274999991,167.59002558400016,167.59018933400012,332514,001,2024-07-01_16h47.59.378,5-26,2024.1.4,None,2024-07-01 16h48.04.117606 +0900,
Images/Speaker1.jpg,Images/Speaker2.jpg,Images/Speaker3.jpg,Images/Speaker4.jpg,Audio/Speaker4_En/P4-14-En.wav,Speaker4,گوینده۴,,,,,,,,,0,52,52,73,167.61603441700026,,,,,,,,,,,,,,,,,,,,,,,,,,,,,,,,,,,,,,,,,,,,,167.59051087499984,167.61603441700026,167.61603441700026,167.61603441700026,167.61603441700026,167.60664850066658,167.61603441700026,167.61603441700026,167.61673391700015,Incorrect! The correct answer is Speaker4. نادرست! پاسخ صحیح گوینده۴ است,1,2.177088165999976,None,68,133,167.62067116700018,167.63137883399986,169.64032183400013,169.6191358750002,169.61914449999995,169.61931725000022,332514,001,2024-07-01_16h47.59.378,5-26,2024.1.4,None,2024-07-01 16h48.04.117606 +0900,
Images/Speaker1.jpg,Images/Speaker2.jpg,Images/Speaker3.jpg,Images/Speaker4.jpg,Audio/Speaker4_En/P4-16-En.wav,Speaker4,گوینده۴,,,,,,,,,0,53,53,75,169.64032183400013,,,,,,,,,,,,,,,,,,,,,,,,,,,,,,,,,,,,,,,,,,,,,169.61961979199987,169.64032183400013,169.64032183400013,169.64032183400013,169.64032183400013,169.6355870416667,169.64032183400013,169.64032183400013,169.66481395900018,Incorrect! The correct answer is Speaker4. نادرست! پاسخ صحیح گوینده۴ است,1,0.023456540999632125,None,68,134,169.66908462499987,169.68120583400014,,171.67141654199986,171.67145608400006,171.67223083399995,332514,001,2024-07-01_16h47.59.378,5-26,2024.1.4,None,2024-07-01 16h48.04.117606 +0900,
Images/Speaker1.jpg,Images/Speaker2.jpg,Images/Speaker3.jpg,Images/Speaker4.jpg,Audio/Speaker2_En/P2-5-En.wav,Speaker2,گوینده۲,,,,,,,,,0,54,54,24,171.69470154200008,,,,,,,,,,,,,,,,,,,,,,,,,,,,,,,,,,,,,,,,,,,,,171.673488334,171.69470154200008,171.69470154200008,171.69470154200008,171.69470154200008,171.70457287533333,171.69470154200008,171.69470154200008,171.79513850000012,Incorrect! The correct answer is Speaker2. نادرست! پاسخ صحیح گوینده۲ است,1,0.09700108300012289,None,68,135,171.7991565000002,171.81165999999985,,173.79962591699996,173.79963479200023,173.79984408400014,332514,001,2024-07-01_16h47.59.378,5-26,2024.1.4,None,2024-07-01 16h48.04.117606 +0900,
Images/Speaker1.jpg,Images/Speaker2.jpg,Images/Speaker3.jpg,Images/Speaker4.jpg,Audio/Speaker3_En/P3-1-En.wav,Speaker3,گوینده۳,,,,,,,,,0,55,55,40,173.82214816700025,,,,,,,,,,,,,,,,,,,,,,,,,,,,,,,,,,,,,,,,,,,,,173.80017787499992,173.82214816700025,173.82214816700025,173.82214816700025,173.82214816700025,173.8162255836667,173.82214816700025,173.82214816700025,173.8547560840002,Incorrect! The correct answer is Speaker3. نادرست! پاسخ صحیح گوینده۳ است,1,0.028256708000299113,None,68,136,173.85911395899984,173.87183066700027,,175.85960829199985,175.85961750000024,175.85981108399983,332514,001,2024-07-01_16h47.59.378,5-26,2024.1.4,None,2024-07-01 16h48.04.117606 +0900,
Images/Speaker1.jpg,Images/Speaker2.jpg,Images/Speaker3.jpg,Images/Speaker4.jpg,Audio/Speaker2_En/P2-7-En.wav,Speaker2,گوینده۲,,,,,,,,,0,56,56,26,175.88148037500014,,,,,,,,,,,,,,,,,,,,,,,,,,,,,,,,,,,,,,,,,,,,,175.86011695900015,175.88148037500014,175.88148037500014,175.88148037500014,175.88148037500014,175.87623604166654,175.88148037500014,175.88148037500014,176.04946104200008,Incorrect! The correct answer is Speaker2. نادرست! پاسخ صحیح گوینده۲ است,1,0.16679995899994537,None,68,137,176.05456208399983,176.06765562500004,,178.062837167,178.06284570900016,178.06342399999994,332514,001,2024-07-01_16h47.59.378,5-26,2024.1.4,None,2024-07-01 16h48.04.117606 +0900,
Images/Speaker1.jpg,Images/Speaker2.jpg,Images/Speaker3.jpg,Images/Speaker4.jpg,Audio/Speaker3_En/P3-5-En.wav,Speaker3,گوینده۳,,,,,,,,,0,57,57,44,178.08789212500005,,,,,,,,,,,,,,,,,,,,,,,,,,,,,,,,,,,,,,,,,,,,,178.06379141700017,178.08789212500005,178.08789212500005,178.08789212500005,178.08789212500005,178.0794636256667,178.08789212500005,178.08789212500005,178.08847675000015,Incorrect! The correct answer is Speaker3. نادرست! پاسخ صحیح گوینده۳ است,1,2.1702138750001723,None,68,138,178.09288950000018,178.10289279200015,180.1124360419999,180.0907427090001,180.09075083400012,180.09092099999998,332514,001,2024-07-01_16h47.59.378,5-26,2024.1.4,None,2024-07-01 16h48.04.117606 +0900,
Images/Speaker1.jpg,Images/Speaker2.jpg,Images/Speaker3.jpg,Images/Speaker4.jpg,Audio/Speaker1_En/P1-4-En.wav,Speaker1,گوینده ۱,,,,,,,,,0,58,58,3,180.1124360419999,,,,,,,,,,,,,,,,,,,,,,,,,,,,,,,,,,,,,,,,,,,,,180.0912010420002,180.1124360419999,180.1124360419999,180.1124360419999,180.1124360419999,180.10709995866662,180.1124360419999,180.1124360419999,180.11299495899993,Correct! صحیح است,1,1.9916660829999273,None,68,139,180.11696949999987,180.12539408400016,182.14337187499996,182.1172875000002,182.11732537499984,182.11778645899994,332514,001,2024-07-01_16h47.59.378,5-26,2024.1.4,None,2024-07-01 16h48.04.117606 +0900,
Images/Speaker1.jpg,Images/Speaker2.jpg,Images/Speaker3.jpg,Images/Speaker4.jpg,Audio/Speaker2_En/P2-20-En.wav,Speaker2,گوینده۲,,,,,,,,,0,59,59,39,182.14337187499996,,,,,,,,,,,,,,,,,,,,,,,,,,,,,,,,,,,,,,,,,,,,,182.1190576250001,182.14337187499996,182.14337187499996,182.14337187499996,182.14337187499996,182.1496596673333,182.14337187499996,182.14337187499996,182.2228829589999,Incorrect! The correct answer is Speaker2. نادرست! پاسخ صحیح گوینده۲ است,1,0.07774866699992344,None,68,140,182.22697958400022,182.23984979199986,,184.23357137499988,184.2336015420001,184.23439183400023,332514,001,2024-07-01_16h47.59.378,5-26,2024.1.4,None,2024-07-01 16h48.04.117606 +0900,
Images/Speaker1.jpg,Images/Speaker2.jpg,Images/Speaker3.jpg,Images/Speaker4.jpg,Audio/Speaker4_En/P4-8-En.wav,Speaker4,گوینده۴,,,,,,,,,0,60,60,67,184.25822779200007,,,,,,,,,,,,,,,,,,,,,,,,,,,,,,,,,,,,,,,,,,,,,184.23557412499986,184.25822779200007,184.25822779200007,184.25822779200007,184.25822779200007,184.2667687083336,184.25822779200007,184.25822779200007,184.26735416700012,Incorrect! The correct answer is Speaker4. نادرست! پاسخ صحیح گوینده۴ است,1,0.001058791000104975,None,68,141,184.27165025000022,184.28213525,186.28961158399989,186.26788104200023,186.26788891700016,186.26803599999994,332514,001,2024-07-01_16h47.59.378,5-26,2024.1.4,None,2024-07-01 16h48.04.117606 +0900,
Images/Speaker1.jpg,Images/Speaker2.jpg,Images/Speaker3.jpg,Images/Speaker4.jpg,Audio/Speaker1_En/P1-16-En.wav,Speaker1,گوینده ۱,,,,,,,,,0,61,61,15,186.28961158399989,,,,,,,,,,,,,,,,,,,,,,,,,,,,,,,,,,,,,,,,,,,,,186.26835141699985,186.28961158399989,186.28961158399989,186.28961158399989,186.28961158399989,186.28433520866682,186.28961158399989,186.28961158399989,186.45762183399984,Correct! صحیح است,1,0.16015120800011573,None,68,142,186.46171349999986,186.47254362500007,188.48005279200015,188.45711937500027,188.45715291700026,188.4574661669999,332514,001,2024-07-01_16h47.59.378,5-26,2024.1.4,None,2024-07-01 16h48.04.117606 +0900,
Images/Speaker1.jpg,Images/Speaker2.jpg,Images/Speaker3.jpg,Images/Speaker4.jpg,Audio/Speaker2_En/P2-4-En.wav,Speaker2,گوینده۲,,,,,,,,,0,62,62,23,188.48005279200015,,,,,,,,,,,,,,,,,,,,,,,,,,,,,,,,,,,,,,,,,,,,,188.45834787500007,188.48005279200015,188.48005279200015,188.48005279200015,188.48005279200015,188.4895848753336,188.48005279200015,188.48005279200015,188.5585460000002,Incorrect! The correct answer is Speaker2. نادرست! پاسخ صحیح گوینده۲ است,1,0.07666983299986896,None,68,143,188.56268379199992,188.57566150000002,,190.5667235840001,190.56676054199988,190.56739741699994,332514,001,2024-07-01_16h47.59.378,5-26,2024.1.4,None,2024-07-01 16h48.04.117606 +0900,
Images/Speaker1.jpg,Images/Speaker2.jpg,Images/Speaker3.jpg,Images/Speaker4.jpg,Audio/Speaker2_En/P2-3-En.wav,Speaker2,گوینده۲,,,,,,,,,0,63,63,22,190.58961316700015,,,,,,,,,,,,,,,,,,,,,,,,,,,,,,,,,,,,,,,,,,,,,190.56857016699996,190.58961316700015,190.58961316700015,190.58961316700015,190.58961316700015,190.58322758366674,190.58961316700015,190.58961316700015,190.77999183400016,Incorrect! The correct answer is Speaker2. نادرست! پاسخ صحیح گوینده۲ است,1,0.18938395899976967,None,68,144,190.78400916700002,190.79660854199983,192.80139183400024,192.77984404200015,192.77985200000012,192.78003662499987,332514,001,2024-07-01_16h47.59.378,5-26,2024.1.4,None,2024-07-01 16h48.04.117606 +0900,
Images/Speaker1.jpg,Images/Speaker2.jpg,Images/Speaker3.jpg,Images/Speaker4.jpg,Audio/Speaker4_En/P4-5-En.wav,Speaker4,گوینده۴,,,,,,,,,0,64,64,64,192.80139183400024,,,,,,,,,,,,,,,,,,,,,,,,,,,,,,,,,,,,,,,,,,,,,192.78031979200023,192.80139183400024,192.80139183400024,192.80139183400024,192.80139183400024,192.79618654166669,192.80139183400024,192.80139183400024,193.05693654200013,Incorrect! The correct answer is Speaker4. نادرست! پاسخ صحیح گوینده۴ است,1,0.24261133300024085,None,68,145,193.06112591700003,193.07123624999986,,195.064247584,195.06428637499994,195.06544708399997,332514,001,2024-07-01_16h47.59.378,5-26,2024.1.4,None,2024-07-01 16h48.04.117606 +0900,
Images/Speaker1.jpg,Images/Speaker2.jpg,Images/Speaker3.jpg,Images/Speaker4.jpg,Audio/Speaker1_En/P1-13-En.wav,Speaker1,گوینده ۱,,,,,,,,,0,65,65,12,195.09059404200025,,,,,,,,,,,,,,,,,,,,,,,,,,,,,,,,,,,,,,,,,,,,,195.0664502499999,195.09059404200025,195.09059404200025,195.09059404200025,195.09059404200025,195.09742508333335,195.09059404200025,195.09059404200025,195.10208579200025,Correct! صحیح است,1,0.010404041999663605,None,68,146,195.10610870900018,195.1170131670001,,197.10983524999983,197.10988029200007,197.110616209,332514,001,2024-07-01_16h47.59.378,5-26,2024.1.4,None,2024-07-01 16h48.04.117606 +0900,
Images/Speaker1.jpg,Images/Speaker2.jpg,Images/Speaker3.jpg,Images/Speaker4.jpg,Audio/Speaker3_En/P3-9-En.wav,Speaker3,گوینده۳,,,,,,,,,0,66,66,48,197.13339187500014,,,,,,,,,,,,,,,,,,,,,,,,,,,,,,,,,,,,,,,,,,,,,197.111806334,197.13339187500014,197.13339187500014,197.13339187500014,197.13339187500014,197.14301745833342,197.13339187500014,197.13339187500014,197.3133532920001,Incorrect! The correct answer is Speaker3. نادرست! پاسخ صحیح گوینده۳ است,1,0.1768366659998719,None,68,147,197.31737550000025,197.33045245899984,199.33605804199988,199.3140330000001,199.31404558400027,199.3142661249999,332514,001,2024-07-01_16h47.59.378,5-26,2024.1.4,None,2024-07-01 16h48.04.117606 +0900,
Images/Speaker1.jpg,Images/Speaker2.jpg,Images/Speaker3.jpg,Images/Speaker4.jpg,Audio/Speaker1_En/P1-10-En.wav,Speaker1,گوینده ۱,,,,,,,,,0,67,67,9,199.33605804199988,,,,,,,,,,,,,,,,,,,,,,,,,,,,,,,,,,,,,,,,,,,,,199.31454054200003,199.33605804199988,199.33605804199988,199.33605804199988,199.33605804199988,199.33043254166685,199.33605804199988,199.33605804199988,199.51560841699984,Correct! صحیح است,1,0.17316229200014277,None,68,148,199.5198862090001,199.53178237500015,201.54065850000006,201.51504758400006,201.5150739589999,201.51547012499987,332514,001,2024-07-01_16h47.59.378,5-26,2024.1.4,None,2024-07-01 16h48.04.117606 +0900,
Images/Speaker1.jpg,Images/Speaker2.jpg,Images/Speaker3.jpg,Images/Speaker4.jpg,Audio/Speaker2_En/P2-11-En.wav,Speaker2,گوینده۲,,,,,,,,,0,68,68,30,201.54065850000006,,,,,,,,,,,,,,,,,,,,,,,,,,,,,,,,,,,,,,,,,,,,,201.516660625,201.54065850000006,201.54065850000006,201.54065850000006,201.54065850000006,201.54752587533363,201.54065850000006,201.54065850000006,201.68770383399988,Incorrect! The correct answer is Speaker2. نادرست! پاسخ صحیح گوینده۲ است,1,0.1433858750001491,None,68,149,201.69177200000013,201.70403575,,203.698809084,203.69882295900015,203.69902083399984,332514,001,2024-07-01_16h47.59.378,5-26,2024.1.4,None,2024-07-01 16h48.04.117606 +0900,
Images/Speaker1.jpg,Images/Speaker2.jpg,Images/Speaker3.jpg,Images/Speaker4.jpg,Audio/Speaker2_En/P2-14-En.wav,Speaker2,گوینده۲,,,,,,,,,0,69,69,33,203.72104583400005,,,,,,,,,,,,,,,,,,,,,,,,,,,,,,,,,,,,,,,,,,,,,203.69933904200025,203.72104583400005,203.72104583400005,203.72104583400005,203.72104583400005,203.71541866666692,203.72104583400005,203.72104583400005,203.8136172919999,Incorrect! The correct answer is Speaker2. نادرست! پاسخ صحیح گوینده۲ است,1,0.0894701659999555,None,68,150,203.81773604199998,203.82962329200018,205.83572866700024,205.81351158400003,205.81352049999987,205.81370404200015,332514,001,2024-07-01_16h47.59.378,5-26,2024.1.4,None,2024-07-01 16h48.04.117606 +0900,
Images/Speaker1.jpg,Images/Speaker2.jpg,Images/Speaker3.jpg,Images/Speaker4.jpg,Audio/Speaker4_En/P4-3-En.wav,Speaker4,گوینده۴,,,,,,,,,0,70,70,62,205.83572866700024,,,,,,,,,,,,,,,,,,,,,,,,,,,,,,,,,,,,,,,,,,,,,205.814005792,205.83572866700024,205.83572866700024,205.83572866700024,205.83572866700024,205.82988825066676,205.83572866700024,205.83572866700024,206.0477840839999,Incorrect! The correct answer is Speaker4. نادرست! پاسخ صحیح گوینده۴ است,1,0.20972449999999299,None,68,151,206.051842417,206.06518829200013,,208.05415591700012,208.05416474999993,208.0543621249999,332514,001,2024-07-01_16h47.59.378,5-26,2024.1.4,None,2024-07-01 16h48.04.117606 +0900,
Images/Speaker1.jpg,Images/Speaker2.jpg,Images/Speaker3.jpg,Images/Speaker4.jpg,Audio/Speaker4_En/P4-7-En.wav,Speaker4,گوینده۴,,,,,,,,,0,71,71,66,208.07648941700018,,,,,,,,,,,,,,,,,,,,,,,,,,,,,,,,,,,,,,,,,,,,,208.05465329200024,208.07648941700018,208.07648941700018,208.07648941700018,208.07648941700018,208.07078608366672,208.07648941700018,208.07648941700018,208.25325158399983,Incorrect! The correct answer is Speaker4. نادرست! پاسخ صحیح گوینده۴ است,1,0.17331687500018234,None,68,152,208.2574334169999,208.27037816700022,,210.2670733340001,210.26710512499994,210.26815254199983,332514,001,2024-07-01_16h47.59.378,5-26,2024.1.4,None,2024-07-01 16h48.04.117606 +0900,
Images/Speaker1.jpg,Images/Speaker2.jpg,Images/Speaker3.jpg,Images/Speaker4.jpg,Audio/Speaker2_En/P2-2-En.wav,Speaker2,گوینده۲,,,,,,,,,0,72,72,21,210.2904134999999,,,,,,,,,,,,,,,,,,,,,,,,,,,,,,,,,,,,,,,,,,,,,210.26920704199983,210.2904134999999,210.2904134999999,210.2904134999999,210.2904134999999,210.3002662083332,210.2904134999999,210.2904134999999,210.4857830840001,Incorrect! The correct answer is Speaker2. نادرست! پاسخ صحیح گوینده۲ است,1,0.19389116700040177,None,68,153,210.49023108400024,210.50268204199983,,212.49088641700018,212.49093091700024,212.49159337499987,332514,001,2024-07-01_16h47.59.378,5-26,2024.1.4,None,2024-07-01 16h48.04.117606 +0900,
Images/Speaker1.jpg,Images/Speaker2.jpg,Images/Speaker3.jpg,Images/Speaker4.jpg,Audio/Speaker4_En/P4-2-En.wav,Speaker4,گوینده۴,,,,,,,,,0,73,73,61,212.5154581249999,,,,,,,,,,,,,,,,,,,,,,,,,,,,,,,,,,,,,,,,,,,,,212.49262729200018,212.5154581249999,212.5154581249999,212.5154581249999,212.5154581249999,212.52401420833354,212.5154581249999,212.5154581249999,212.77363908400002,Incorrect! The correct answer is Speaker4. نادرست! پاسخ صحیح گوینده۴ است,1,0.24893016699979853,None,68,154,212.77809608400003,212.79125633400008,,214.78135662500017,214.78139316700026,214.78211691700017,332514,001,2024-07-01_16h47.59.378,5-26,2024.1.4,None,2024-07-01 16h48.04.117606 +0900,
Images/Speaker1.jpg,Images/Speaker2.jpg,Images/Speaker3.jpg,Images/Speaker4.jpg,Audio/Speaker4_En/P4-18-En.wav,Speaker4,گوینده۴,,,,,,,,,0,74,74,77,214.80443145900017,,,,,,,,,,,,,,,,,,,,,,,,,,,,,,,,,,,,,,,,,,,,,214.78291933399987,214.80443145900017,214.80443145900017,214.80443145900017,214.80443145900017,214.81454700033333,214.80443145900017,214.80443145900017,215.0658595,Incorrect! The correct answer is Speaker4. نادرست! پاسخ صحیح گوینده۴ است,1,0.2542643749998206,None,68,155,215.0713632500001,215.08595516700007,,217.076736042,217.07676479200018,217.07746491700027,332514,001,2024-07-01_16h47.59.378,5-26,2024.1.4,None,2024-07-01 16h48.04.117606 +0900,
Images/Speaker1.jpg,Images/Speaker2.jpg,Images/Speaker3.jpg,Images/Speaker4.jpg,Audio/Speaker3_En/P3-3-En.wav,Speaker3,گوینده۳,,,,,,,,,0,75,75,42,217.0999844590001,,,,,,,,,,,,,,,,,,,,,,,,,,,,,,,,,,,,,,,,,,,,,217.0785967920001,217.0999844590001,217.0999844590001,217.0999844590001,217.0999844590001,217.10989616733337,217.0999844590001,217.0999844590001,217.3402329999999,Incorrect! The correct answer is Speaker3. نادرست! پاسخ صحیح گوینده۳ است,1,0.2332485829997495,None,68,156,217.34437345900005,217.35496150000017,,219.351124625,219.3511517500001,219.35188795900012,332514,001,2024-07-01_16h47.59.378,5-26,2024.1.4,None,2024-07-01 16h48.04.117606 +0900,
Images/Speaker1.jpg,Images/Speaker2.jpg,Images/Speaker3.jpg,Images/Speaker4.jpg,Audio/Speaker1_En/P1-20-En.wav,Speaker1,گوینده ۱,,,,,,,,,0,76,76,19,219.37467558400022,,,,,,,,,,,,,,,,,,,,,,,,,,,,,,,,,,,,,,,,,,,,,219.35310079200008,219.37467558400022,219.37467558400022,219.37467558400022,219.37467558400022,219.3842840423336,219.37467558400022,219.37467558400022,219.64392020900004,Correct! صحیح است,1,0.26660649999985253,None,68,157,219.64843266700018,219.6597341249999,221.66546574999984,221.64366304199984,221.64367337500016,221.64382266700022,332514,001,2024-07-01_16h47.59.378,5-26,2024.1.4,None,2024-07-01 16h48.04.117606 +0900,
Images/Speaker1.jpg,Images/Speaker2.jpg,Images/Speaker3.jpg,Images/Speaker4.jpg,Audio/Speaker4_En/P4-6-En.wav,Speaker4,گوینده۴,,,,,,,,,0,77,77,65,221.66546574999984,,,,,,,,,,,,,,,,,,,,,,,,,,,,,,,,,,,,,,,,,,,,,221.644106792,221.66546574999984,221.66546574999984,221.66546574999984,221.66546574999984,221.66006550066666,221.66546574999984,221.66546574999984,221.9900630000002,Incorrect! The correct answer is Speaker4. نادرست! پاسخ صحیح گوینده۴ است,1,0.3161454999999478,None,68,158,221.9940807500002,222.00699154199992,224.01564895899992,223.99292445899982,223.99296162500013,223.99335929200015,332514,001,2024-07-01_16h47.59.378,5-26,2024.1.4,None,2024-07-01 16h48.04.117606 +0900,
Images/Speaker1.jpg,Images/Speaker2.jpg,Images/Speaker3.jpg,Images/Speaker4.jpg,Audio/Speaker3_En/P3-6-En.wav,Speaker3,گوینده۳,,,,,,,,,0,78,78,45,224.01564895899992,,,,,,,,,,,,,,,,,,,,,,,,,,,,,,,,,,,,,,,,,,,,,223.99457762500015,224.01564895899992,224.01564895899992,224.01564895899992,224.01564895899992,224.02527929233344,224.01564895899992,224.01564895899992,224.2777097090002,Incorrect! The correct answer is Speaker3. نادرست! پاسخ صحیح گوینده۳ است,1,0.2609230419998312,None,68,159,224.28219908400024,224.29514174999986,226.3025634999999,226.2808588339999,226.28087345899985,226.28103183400026,332514,001,2024-07-01_16h47.59.378,5-26,2024.1.4,None,2024-07-01 16h48.04.117606 +0900,
Images/Speaker1.jpg,Images/Speaker2.jpg,Images/Speaker3.jpg,Images/Speaker4.jpg,Audio/Speaker1_En/P1-5-En.wav,Speaker1,گوینده ۱,,,,,,,,,0,79,79,4,226.3025634999999,,,,,,,,,,,,,,,,,,,,,,,,,,,,,,,,,,,,,,,,,,,,,226.28135145900023,226.3025634999999,226.3025634999999,226.3025634999999,226.3025634999999,226.2973049586665,226.3025634999999,226.3025634999999,227.41691075000017,Correct! صحیح است,1,1.1057992910000394,None,68,160,227.42131629200003,227.43211125000016,229.43851912499986,229.41548083399994,229.41550687500012,229.41582104200006,332514,001,2024-07-01_16h47.59.378,5-26,2024.1.4,None,2024-07-01 16h48.04.117606 +0900,
Images/Speaker1.jpg,Images/Speaker2.jpg,Images/Speaker3.jpg,Images/Speaker4.jpg,Audio/Speaker4_En/P4-9-En.wav,Speaker4,گوینده۴,,,,,,,,,1,0,80,68,229.43851912499986,,,,,,,,,,,,,,,,,,,,,,,,,,,,,,,,,,,,,,,,,,,,,229.4167554999999,229.43851912499986,229.43851912499986,229.43851912499986,229.43851912499986,229.44791400033324,229.43851912499986,229.43851912499986,231.69179304199997,Incorrect! The correct answer is Speaker4. نادرست! پاسخ صحیح گوینده۴ است,1,2.2429291670000566,None,68,161,231.69569704200012,231.70636733399988,233.71362050000016,233.69210570899986,233.69211837500006,233.692275334,332514,001,2024-07-01_16h47.59.378,5-26,2024.1.4,None,2024-07-01 16h48.04.117606 +0900,
Images/Speaker1.jpg,Images/Speaker2.jpg,Images/Speaker3.jpg,Images/Speaker4.jpg,Audio/Speaker2_En/P2-3-En.wav,Speaker2,گوینده۲,,,,,,,,,1,1,81,22,233.71362050000016,,,,,,,,,,,,,,,,,,,,,,,,,,,,,,,,,,,,,,,,,,,,,233.6925620840002,233.71362050000016,233.71362050000016,233.71362050000016,233.71362050000016,233.7085592506667,233.71362050000016,233.71362050000016,236.38610037499984,Correct! صحیح است,2,2.670872832999976,None,68,162,236.38652033400012,236.39754766700025,238.40515458400023,238.38208262499984,238.38210741700004,238.38241495900002,332514,001,2024-07-01_16h47.59.378,5-26,2024.1.4,None,2024-07-01 16h48.04.117606 +0900,
Images/Speaker1.jpg,Images/Speaker2.jpg,Images/Speaker3.jpg,Images/Speaker4.jpg,Audio/Speaker1_En/P1-10-En.wav,Speaker1,گوینده ۱,,,,,,,,,1,2,82,9,238.40515458400023,,,,,,,,,,,,,,,,,,,,,,,,,,,,,,,,,,,,,,,,,,,,,238.38331287500023,238.40515458400023,238.40515458400023,238.40515458400023,238.40515458400023,238.41453437533352,238.40515458400023,238.40515458400023,240.39001695900015,Correct! صحیح است,1,1.9756670840001789,None,68,163,240.3941543750002,240.40631891700014,242.41600133400016,242.39249762500003,242.39251858399984,242.3928860420001,332514,001,2024-07-01_16h47.59.378,5-26,2024.1.4,None,2024-07-01 16h48.04.117606 +0900,
Images/Speaker1.jpg,Images/Speaker2.jpg,Images/Speaker3.jpg,Images/Speaker4.jpg,Audio/Speaker4_En/P4-7-En.wav,Speaker4,گوینده۴,,,,,,,,,1,3,83,66,242.41600133400016,,,,,,,,,,,,,,,,,,,,,,,,,,,,,,,,,,,,,,,,,,,,,242.3940756249999,242.41600133400016,242.41600133400016,242.41600133400016,242.41600133400016,242.4249852923336,242.41600133400016,242.41600133400016,243.85373583399996,Correct! صحیح است,4,1.4350498750000042,None,68,164,243.85792583400007,243.86936341699993,,245.86624441699996,245.86625400000003,245.866538667,332514,001,2024-07-01_16h47.59.378,5-26,2024.1.4,None,2024-07-01 16h48.04.117606 +0900,
Images/Speaker1.jpg,Images/Speaker2.jpg,Images/Speaker3.jpg,Images/Speaker4.jpg,Audio/Speaker4_En/P4-10-En.wav,Speaker4,گوینده۴,,,,,,,,,1,4,84,69,245.89465337499996,,,,,,,,,,,,,,,,,,,,,,,,,,,,,,,,,,,,,,,,,,,,,245.86685887500016,245.89465337499996,245.89465337499996,245.89465337499996,245.89465337499996,245.89952370833322,245.89465337499996,245.89465337499996,247.0549277089999,Correct! صحیح است,4,1.1514396249999663,None,68,165,247.05918595899993,247.07094620899989,249.081344834,249.05784237499984,249.05786116699983,249.05814425000017,332514,001,2024-07-01_16h47.59.378,5-26,2024.1.4,None,2024-07-01 16h48.04.117606 +0900,
Images/Speaker1.jpg,Images/Speaker2.jpg,Images/Speaker3.jpg,Images/Speaker4.jpg,Audio/Speaker4_En/P4-8-En.wav,Speaker4,گوینده۴,,,,,,,,,1,5,85,67,249.081344834,,,,,,,,,,,,,,,,,,,,,,,,,,,,,,,,,,,,,,,,,,,,,249.05916458399997,249.081344834,249.081344834,249.081344834,249.081344834,249.09031758333327,249.081344834,249.081344834,250.32213204200025,Correct! صحیح است,4,1.2340111250000518,None,68,166,250.3261137919999,250.3377555840002,252.35017300000027,252.32676637500026,252.32679404200007,252.32718379200014,332514,001,2024-07-01_16h47.59.378,5-26,2024.1.4,None,2024-07-01 16h48.04.117606 +0900,
Images/Speaker1.jpg,Images/Speaker2.jpg,Images/Speaker3.jpg,Images/Speaker4.jpg,Audio/Speaker2_En/P2-17-En.wav,Speaker2,گوینده۲,,,,,,,,,1,6,86,36,252.35017300000027,,,,,,,,,,,,,,,,,,,,,,,,,,,,,,,,,,,,,,,,,,,,,252.328362792,252.35017300000027,252.35017300000027,252.35017300000027,252.35017300000027,252.35916916733328,252.35017300000027,252.35017300000027,253.5642532920001,Correct! صحیح است,2,1.2059002910000345,None,68,167,253.56832358400015,253.57967450000024,255.58903895899994,255.565427,255.56545925,255.56585137499997,332514,001,2024-07-01_16h47.59.378,5-26,2024.1.4,None,2024-07-01 16h48.04.117606 +0900,
Images/Speaker1.jpg,Images/Speaker2.jpg,Images/Speaker3.jpg,Images/Speaker4.jpg,Audio/Speaker3_En/P3-2-En.wav,Speaker3,گوینده۳,,,,,,,,,1,7,87,41,255.58903895899994,,,,,,,,,,,,,,,,,,,,,,,,,,,,,,,,,,,,,,,,,,,,,255.56653474999985,255.58903895899994,255.58903895899994,255.58903895899994,255.58903895899994,255.5977895423335,255.58903895899994,255.58903895899994,257.8617884999999,Correct! صحیح است,3,2.270221750000019,None,68,168,257.86612316699984,257.87816758400004,259.88592362500003,259.86431870900014,259.86433133399987,259.86450079199994,332514,001,2024-07-01_16h47.59.378,5-26,2024.1.4,None,2024-07-01 16h48.04.117606 +0900,
Images/Speaker1.jpg,Images/Speaker2.jpg,Images/Speaker3.jpg,Images/Speaker4.jpg,Audio/Speaker3_En/P3-19-En.wav,Speaker3,گوینده۳,,,,,,,,,1,8,88,58,259.88592362500003,,,,,,,,,,,,,,,,,,,,,,,,,,,,,,,,,,,,,,,,,,,,,259.86479604199985,259.88592362500003,259.88592362500003,259.88592362500003,259.88592362500003,259.8806942916665,259.88592362500003,259.88592362500003,261.262002209,Correct! صحیح است,3,1.3733162500002436,None,68,169,261.2662058750002,261.27785112499987,263.2869635420002,263.2651340000002,263.265142709,263.26529412499985,332514,001,2024-07-01_16h47.59.378,5-26,2024.1.4,None,2024-07-01 16h48.04.117606 +0900,
Images/Speaker1.jpg,Images/Speaker2.jpg,Images/Speaker3.jpg,Images/Speaker4.jpg,Audio/Speaker1_En/P1-4-En.wav,Speaker1,گوینده ۱,,,,,,,,,1,9,89,3,263.2869635420002,,,,,,,,,,,,,,,,,,,,,,,,,,,,,,,,,,,,,,,,,,,,,263.26561033400003,263.2869635420002,263.2869635420002,263.2869635420002,263.2869635420002,263.28152604166667,263.2869635420002,263.2869635420002,264.66440958400017,Correct! صحیح است,1,1.3688703329999043,None,68,170,264.66865341699986,264.6800517500001,266.687367,266.6664860000001,266.66649612499987,266.66665583400027,332514,001,2024-07-01_16h47.59.378,5-26,2024.1.4,None,2024-07-01 16h48.04.117606 +0900,
Images/Speaker1.jpg,Images/Speaker2.jpg,Images/Speaker3.jpg,Images/Speaker4.jpg,Audio/Speaker3_En/P3-20-En.wav,Speaker3,گوینده۳,,,,,,,,,1,10,90,59,266.687367,,,,,,,,,,,,,,,,,,,,,,,,,,,,,,,,,,,,,,,,,,,,,266.666937209,266.687367,266.687367,266.687367,266.687367,266.68278166666664,266.687367,266.687367,267.9798074999999,Correct! صحیح است,3,1.2841800000001058,None,68,171,267.98396604200025,267.995035209,270.0071709590002,269.9827892500002,269.98282154200024,269.98314633400014,332514,001,2024-07-01_16h47.59.378,5-26,2024.1.4,None,2024-07-01 16h48.04.117606 +0900,
Images/Speaker1.jpg,Images/Speaker2.jpg,Images/Speaker3.jpg,Images/Speaker4.jpg,Audio/Speaker4_En/P4-2-En.wav,Speaker4,گوینده۴,,,,,,,,,1,11,91,61,270.0071709590002,,,,,,,,,,,,,,,,,,,,,,,,,,,,,,,,,,,,,,,,,,,,,269.98436245899984,270.0071709590002,270.0071709590002,270.0071709590002,270.0071709590002,270.0151496253334,270.0071709590002,270.0071709590002,271.30303675000005,Correct! صحیح است,4,1.292952041999797,None,68,172,271.3070245839999,271.31848237500026,273.3242055420001,273.30195654199997,273.301966042,273.3021478750002,332514,001,2024-07-01_16h47.59.378,5-26,2024.1.4,None,2024-07-01 16h48.04.117606 +0900,
Images/Speaker1.jpg,Images/Speaker2.jpg,Images/Speaker3.jpg,Images/Speaker4.jpg,Audio/Speaker3_En/P3-5-En.wav,Speaker3,گوینده۳,,,,,,,,,1,12,92,44,273.3242055420001,,,,,,,,,,,,,,,,,,,,,,,,,,,,,,,,,,,,,,,,,,,,,273.3024578750001,273.3242055420001,273.3242055420001,273.3242055420001,273.3242055420001,273.3182789166665,273.3242055420001,273.3242055420001,274.805686875,Correct! صحیح است,3,1.4700497920002817,None,68,173,274.8096759169998,274.82171158400024,,276.81376354199983,276.81377462499995,276.8139580000002,332514,001,2024-07-01_16h47.59.378,5-26,2024.1.4,None,2024-07-01 16h48.04.117606 +0900,
Images/Speaker1.jpg,Images/Speaker2.jpg,Images/Speaker3.jpg,Images/Speaker4.jpg,Audio/Speaker3_En/P3-3-En.wav,Speaker3,گوینده۳,,,,,,,,,1,13,93,42,276.8355550000001,,,,,,,,,,,,,,,,,,,,,,,,,,,,,,,,,,,,,,,,,,,,,276.814258292,276.8355550000001,276.8355550000001,276.8355550000001,276.8355550000001,276.8303956256666,276.8355550000001,276.8355550000001,278.52867320899986,Correct! صحیح است,3,1.6857848750000812,None,68,174,278.53280300000006,278.54430654199996,280.5516069999999,280.5292936670003,280.5293052920001,280.5294838340001,332514,001,2024-07-01_16h47.59.378,5-26,2024.1.4,None,2024-07-01 16h48.04.117606 +0900,
Images/Speaker1.jpg,Images/Speaker2.jpg,Images/Speaker3.jpg,Images/Speaker4.jpg,Audio/Speaker1_En/P1-4-En.wav,Speaker1,گوینده ۱,,,,,,,,,1,14,94,13,280.5516069999999,,,,,,,,,,,,,,,,,,,,,,,,,,,,,,,,,,,,,,,,,,,,,280.5297707499999,280.5516069999999,280.5516069999999,280.5516069999999,280.5516069999999,280.5457109166666,280.5516069999999,280.5516069999999,281.83635104199993,Correct! صحیح است,1,1.2819760000002134,None,68,175,281.841363084,281.85389462500007,283.868212417,283.8414509590002,283.8414762090001,283.841858667,332514,001,2024-07-01_16h47.59.378,5-26,2024.1.4,None,2024-07-01 16h48.04.117606 +0900,
Images/Speaker1.jpg,Images/Speaker2.jpg,Images/Speaker3.jpg,Images/Speaker4.jpg,Audio/Speaker1_En/P1-15-En.wav,Speaker1,گوینده ۱,,,,,,,,,1,15,95,14,283.868212417,,,,,,,,,,,,,,,,,,,,,,,,,,,,,,,,,,,,,,,,,,,,,283.8430611670001,283.868212417,283.868212417,283.868212417,283.868212417,283.87376591733346,283.868212417,283.868212417,285.48788995899986,Correct! صحیح است,1,1.6127568749998318,None,68,176,285.4921697919999,285.5039878749999,287.5118124169999,287.4899780420001,287.48998637500017,287.49013541700015,332514,001,2024-07-01_16h47.59.378,5-26,2024.1.4,None,2024-07-01 16h48.04.117606 +0900,
Images/Speaker1.jpg,Images/Speaker2.jpg,Images/Speaker3.jpg,Images/Speaker4.jpg,Audio/Speaker2_En/P2-2-En.wav,Speaker2,گوینده۲,,,,,,,,,1,16,96,21,287.5118124169999,,,,,,,,,,,,,,,,,,,,,,,,,,,,,,,,,,,,,,,,,,,,,287.4904182089999,287.5118124169999,287.5118124169999,287.5118124169999,287.5118124169999,287.50637416666655,287.5118124169999,287.5118124169999,289.0512047090001,Correct! صحیح است,2,1.5310770410001169,None,68,177,289.05572004199985,289.0674815000002,291.072389167,291.05053562500007,291.05054391700014,291.0507130420001,332514,001,2024-07-01_16h47.59.378,5-26,2024.1.4,None,2024-07-01 16h48.04.117606 +0900,
Images/Speaker1.jpg,Images/Speaker2.jpg,Images/Speaker3.jpg,Images/Speaker4.jpg,Audio/Speaker4_En/P4-19-En.wav,Speaker4,گوینده۴,,,,,,,,,1,17,97,78,291.072389167,,,,,,,,,,,,,,,,,,,,,,,,,,,,,,,,,,,,,,,,,,,,,291.05100812499995,291.072389167,291.072389167,291.072389167,291.072389167,291.0669809586668,291.072389167,291.072389167,293.8720800420001,Correct! صحیح است,4,2.7918244170000435,None,68,178,293.8763248340001,293.88857504199996,295.8999978749998,295.8763653750002,295.87640195899985,295.87680554200006,332514,001,2024-07-01_16h47.59.378,5-26,2024.1.4,None,2024-07-01 16h48.04.117606 +0900,
Images/Speaker1.jpg,Images/Speaker2.jpg,Images/Speaker3.jpg,Images/Speaker4.jpg,Audio/Speaker4_En/P4-13-En.wav,Speaker4,گوینده۴,,,,,,,,,1,18,98,72,295.8999978749998,,,,,,,,,,,,,,,,,,,,,,,,,,,,,,,,,,,,,,,,,,,,,295.87812029199995,295.8999978749998,295.8999978749998,295.8999978749998,295.8999978749998,295.90869941733354,295.8999978749998,295.8999978749998,297.94719350000014,Correct! صحیح است,4,2.037536833000104,None,68,179,297.95168087499997,297.96095433400023,299.9686617090001,299.947253584,299.94726633400023,299.94741858399993,332514,001,2024-07-01_16h47.59.378,5-26,2024.1.4,None,2024-07-01 16h48.04.117606 +0900,
Images/Speaker1.jpg,Images/Speaker2.jpg,Images/Speaker3.jpg,Images/Speaker4.jpg,Audio/Speaker1_En/P1-12-En.wav,Speaker1,گوینده ۱,,,,,,,,,1,19,99,11,299.9686617090001,,,,,,,,,,,,,,,,,,,,,,,,,,,,,,,,,,,,,,,,,,,,,299.94770666700015,299.9686617090001,299.9686617090001,299.9686617090001,299.9686617090001,299.9636815006668,299.9686617090001,299.9686617090001,301.2495703750001,Correct! صحیح است,1,1.2789512499998636,None,68,180,301.2538501670001,301.2652777090002,303.27480775000004,303.2487504169999,303.24877616699996,303.24910395899997,332514,001,2024-07-01_16h47.59.378,5-26,2024.1.4,None,2024-07-01 16h48.04.117606 +0900,
Images/Speaker1.jpg,Images/Speaker2.jpg,Images/Speaker3.jpg,Images/Speaker4.jpg,Audio/Speaker4_En/P4-4-En.wav,Speaker4,گوینده۴,,,,,,,,,1,20,100,63,303.27480775000004,,,,,,,,,,,,,,,,,,,,,,,,,,,,,,,,,,,,,,,,,,,,,303.2499701249999,303.27480775000004,303.27480775000004,303.27480775000004,303.27480775000004,303.28115741733336,303.27480775000004,303.27480775000004,304.74874258399996,Correct! صحیح است,4,1.4716232079999827,None,68,181,304.75326195900016,304.7644395000002,,306.7584373750001,306.75846387499996,306.7591855840001,332514,001,2024-07-01_16h47.59.378,5-26,2024.1.4,None,2024-07-01 16h48.04.117606 +0900,
Images/Speaker1.jpg,Images/Speaker2.jpg,Images/Speaker3.jpg,Images/Speaker4.jpg,Audio/Speaker4_En/P4-14-En.wav,Speaker4,گوینده۴,,,,,,,,,1,21,101,73,306.7858000420001,,,,,,,,,,,,,,,,,,,,,,,,,,,,,,,,,,,,,,,,,,,,,306.76042162500016,306.7858000420001,306.7858000420001,306.7858000420001,306.7858000420001,306.7915991253335,306.7858000420001,306.7858000420001,308.06364600000006,Correct! صحیح است,4,1.272426459000144,None,68,182,308.06793291700023,308.0789342090002,310.0862416670002,310.064641209,310.06464941700006,310.06481520900024,332514,001,2024-07-01_16h47.59.378,5-26,2024.1.4,None,2024-07-01 16h48.04.117606 +0900,
Images/Speaker1.jpg,Images/Speaker2.jpg,Images/Speaker3.jpg,Images/Speaker4.jpg,Audio/Speaker1_En/P1-8-En.wav,Speaker1,گوینده ۱,,,,,,,,,1,22,102,7,310.0862416670002,,,,,,,,,,,,,,,,,,,,,,,,,,,,,,,,,,,,,,,,,,,,,310.0651210840001,310.0862416670002,310.0862416670002,310.0862416670002,310.0862416670002,310.0811062086666,310.0862416670002,310.0862416670002,311.6069400000001,Correct! صحیح است,1,1.508082000000286,None,68,183,311.61250441699985,311.6258390419998,313.63223425000024,313.60954608400016,313.60955483399994,313.60974970899997,332514,001,2024-07-01_16h47.59.378,5-26,2024.1.4,None,2024-07-01 16h48.04.117606 +0900,
Images/Speaker1.jpg,Images/Speaker2.jpg,Images/Speaker3.jpg,Images/Speaker4.jpg,Audio/Speaker3_En/P3-15-En.wav,Speaker3,گوینده۳,,,,,,,,,1,23,103,54,313.63223425000024,,,,,,,,,,,,,,,,,,,,,,,,,,,,,,,,,,,,,,,,,,,,,313.6100298340002,313.63223425000024,313.63223425000024,313.63223425000024,313.63223425000024,313.62597958366655,313.63223425000024,313.63223425000024,315.51726366699995,Correct! صحیح است,3,1.8802855419999105,None,68,184,315.5217737920002,315.533459625,,317.52333904199986,317.5233736250002,317.52429812499986,332514,001,2024-07-01_16h47.59.378,5-26,2024.1.4,None,2024-07-01 16h48.04.117606 +0900,
Images/Speaker1.jpg,Images/Speaker2.jpg,Images/Speaker3.jpg,Images/Speaker4.jpg,Audio/Speaker2_En/P2-18-En.wav,Speaker2,گوینده۲,,,,,,,,,1,24,104,37,317.5473193749999,,,,,,,,,,,,,,,,,,,,,,,,,,,,,,,,,,,,,,,,,,,,,317.5252795000001,317.5473193749999,317.5473193749999,317.5473193749999,317.5473193749999,317.55651975033334,317.5473193749999,317.5473193749999,318.709265167,Correct! صحیح است,2,1.1506045419996553,None,68,185,318.7133436670001,318.72491375000027,,320.71582108400025,320.71586679200027,320.7166215420002,332514,001,2024-07-01_16h47.59.378,5-26,2024.1.4,None,2024-07-01 16h48.04.117606 +0900,
Images/Speaker1.jpg,Images/Speaker2.jpg,Images/Speaker3.jpg,Images/Speaker4.jpg,Audio/Speaker3_En/P3-18-En.wav,Speaker3,گوینده۳,,,,,,,,,1,25,105,57,320.741538709,,,,,,,,,,,,,,,,,,,,,,,,,,,,,,,,,,,,,,,,,,,,,320.71762158399997,320.741538709,320.741538709,320.741538709,320.741538709,320.7489592503334,320.741538709,320.741538709,323.1863897500002,Correct! صحیح است,3,2.436936209000123,None,68,186,323.1905124590003,323.1995515419999,325.20732295900007,325.18434445899993,325.184378292,325.18482162500004,332514,001,2024-07-01_16h47.59.378,5-26,2024.1.4,None,2024-07-01 16h48.04.117606 +0900,
Images/Speaker1.jpg,Images/Speaker2.jpg,Images/Speaker3.jpg,Images/Speaker4.jpg,Audio/Speaker1_En/P1-5-En.wav,Speaker1,گوینده ۱,,,,,,,,,1,26,106,4,325.20732295900007,,,,,,,,,,,,,,,,,,,,,,,,,,,,,,,,,,,,,,,,,,,,,325.18598733399995,325.20732295900007,325.20732295900007,325.20732295900007,325.20732295900007,325.2167447503334,325.20732295900007,325.20732295900007,326.676948584,Correct! صحیح است,1,1.4609304169998723,None,68,187,326.6811680420001,326.6927572499999,,328.6818607089999,328.68187395899986,328.68211687500025,332514,001,2024-07-01_16h47.59.378,5-26,2024.1.4,None,2024-07-01 16h48.04.117606 +0900,
Images/Speaker1.jpg,Images/Speaker2.jpg,Images/Speaker3.jpg,Images/Speaker4.jpg,Audio/Speaker2_En/P2-1-En.wav,Speaker2,گوینده۲,,,,,,,,,1,27,107,20,328.7034635,,,,,,,,,,,,,,,,,,,,,,,,,,,,,,,,,,,,,,,,,,,,,328.682464125,328.7034635,328.7034635,328.7034635,328.7034635,328.6984844586666,328.7034635,328.7034635,330.00101262499993,Correct! صحیح است,2,1.2944768329998624,None,68,188,330.00586687500027,330.0196595420002,,332.00689754199993,332.0069322919999,332.00771354200015,332514,001,2024-07-01_16h47.59.378,5-26,2024.1.4,None,2024-07-01 16h48.04.117606 +0900,
Images/Speaker1.jpg,Images/Speaker2.jpg,Images/Speaker3.jpg,Images/Speaker4.jpg,Audio/Speaker3_En/P3-8-En.wav,Speaker3,گوینده۳,,,,,,,,,1,28,108,47,332.03211983400024,,,,,,,,,,,,,,,,,,,,,,,,,,,,,,,,,,,,,,,,,,,,,332.00860708400023,332.03211983400024,332.03211983400024,332.03211983400024,332.03211983400024,332.0400263753331,332.03211983400024,332.03211983400024,333.30185708399995,Correct! صحیح است,3,1.2643775839997033,None,68,189,333.30622008399996,333.3171258749999,335.32445766699993,335.30137033400024,335.3014045,335.30177379199995,332514,001,2024-07-01_16h47.59.378,5-26,2024.1.4,None,2024-07-01 16h48.04.117606 +0900,
Images/Speaker1.jpg,Images/Speaker2.jpg,Images/Speaker3.jpg,Images/Speaker4.jpg,Audio/Speaker4_En/P4-3-En.wav,Speaker4,گوینده۴,,,,,,,,,1,29,109,62,335.32445766699993,,,,,,,,,,,,,,,,,,,,,,,,,,,,,,,,,,,,,,,,,,,,,335.30294412500007,335.32445766699993,335.32445766699993,335.32445766699993,335.32445766699993,335.3337948753333,335.32445766699993,335.32445766699993,336.8221640840002,Correct! صحیح است,4,1.4898105000002033,None,68,190,336.82655383400015,336.83741070899987,338.84448391700016,338.82269770899984,338.8227051250001,338.822862042,332514,001,2024-07-01_16h47.59.378,5-26,2024.1.4,None,2024-07-01 16h48.04.117606 +0900,
Images/Speaker1.jpg,Images/Speaker2.jpg,Images/Speaker3.jpg,Images/Speaker4.jpg,Audio/Speaker2_En/P2-16-En.wav,Speaker2,گوینده۲,,,,,,,,,1,30,110,35,338.84448391700016,,,,,,,,,,,,,,,,,,,,,,,,,,,,,,,,,,,,,,,,,,,,,338.82316641700027,338.84448391700016,338.84448391700016,338.84448391700016,338.84448391700016,338.83906962566675,338.84448391700016,338.84448391700016,341.22258412500014,Correct! صحیح است,2,2.370186540999839,None,68,191,341.22803491700006,341.24065362500005,,343.23084708399983,343.23086195899987,343.2310467090001,332514,001,2024-07-01_16h47.59.378,5-26,2024.1.4,None,2024-07-01 16h48.04.117606 +0900,
Images/Speaker1.jpg,Images/Speaker2.jpg,Images/Speaker3.jpg,Images/Speaker4.jpg,Audio/Speaker3_En/P3-13-En.wav,Speaker3,گوینده۳,,,,,,,,,1,31,111,52,343.2524867500001,,,,,,,,,,,,,,,,,,,,,,,,,,,,,,,,,,,,,,,,,,,,,343.2313368750001,343.2524867500001,343.2524867500001,343.2524867500001,343.2524867500001,343.2474754166667,343.2524867500001,343.2524867500001,345.37227841699996,Correct! صحیح است,3,2.108383917000083,None,68,192,345.3762549590001,345.38759266700026,347.3985607919999,347.375155792,347.37517608400003,347.37550312500025,332514,001,2024-07-01_16h47.59.378,5-26,2024.1.4,None,2024-07-01 16h48.04.117606 +0900,
Images/Speaker1.jpg,Images/Speaker2.jpg,Images/Speaker3.jpg,Images/Speaker4.jpg,Audio/Speaker4_En/P4-5-En.wav,Speaker4,گوینده۴,,,,,,,,,1,32,112,64,347.3985607919999,,,,,,,,,,,,,,,,,,,,,,,,,,,,,,,,,,,,,,,,,,,,,347.37644712500014,347.3985607919999,347.3985607919999,347.3985607919999,347.3985607919999,347.40754254233343,347.3985607919999,347.3985607919999,349.00910820900026,Correct! صحیح است,4,1.6058934999996382,None,68,193,349.013150625,349.0253701249999,,351.0170391669999,351.0170738749998,351.01808812499985,332514,001,2024-07-01_16h47.59.378,5-26,2024.1.4,None,2024-07-01 16h48.04.117606 +0900,
Images/Speaker1.jpg,Images/Speaker2.jpg,Images/Speaker3.jpg,Images/Speaker4.jpg,Audio/Speaker1_En/P1-2-En.wav,Speaker1,گوینده ۱,,,,,,,,,1,33,113,1,351.04309041700026,,,,,,,,,,,,,,,,,,,,,,,,,,,,,,,,,,,,,,,,,,,,,351.0193777919999,351.04309041700026,351.04309041700026,351.04309041700026,351.04309041700026,351.0502022083333,351.04309041700026,351.04309041700026,352.15994037500013,Correct! صحیح است,1,1.1069109999998545,None,68,194,352.16441966699995,352.17600333400014,354.1858515419999,354.16346783400013,354.1634758340001,354.16364454199993,332514,001,2024-07-01_16h47.59.378,5-26,2024.1.4,None,2024-07-01 16h48.04.117606 +0900,
Images/Speaker1.jpg,Images/Speaker2.jpg,Images/Speaker3.jpg,Images/Speaker4.jpg,Audio/Speaker2_En/P2-14-En.wav,Speaker2,گوینده۲,,,,,,,,,1,34,114,33,354.1858515419999,,,,,,,,,,,,,,,,,,,,,,,,,,,,,,,,,,,,,,,,,,,,,354.163934917,354.1858515419999,354.1858515419999,354.1858515419999,354.1858515419999,354.1799071666667,354.1858515419999,354.1858515419999,356.9392615840002,Correct! صحیح است,2,2.7511680000002343,None,68,195,356.943491042,356.954929042,358.96203108400005,358.9389325840002,358.93895837499986,358.93943824999997,332514,001,2024-07-01_16h47.59.378,5-26,2024.1.4,None,2024-07-01 16h48.04.117606 +0900,
Images/Speaker1.jpg,Images/Speaker2.jpg,Images/Speaker3.jpg,Images/Speaker4.jpg,Audio/Speaker2_En/P2-8-En.wav,Speaker2,گوینده۲,,,,,,,,,1,35,115,27,358.96203108400005,,,,,,,,,,,,,,,,,,,,,,,,,,,,,,,,,,,,,,,,,,,,,358.9401524590003,358.96203108400005,358.96203108400005,358.96203108400005,358.96203108400005,358.97138287533335,358.96203108400005,358.96203108400005,360.572076209,Correct! صحیح است,2,1.6020571249996465,None,68,196,360.57636179200017,360.58776345900014,,362.5834474170001,362.5834593750001,362.58364545899985,332514,001,2024-07-01_16h47.59.378,5-26,2024.1.4,None,2024-07-01 16h48.04.117606 +0900,
Images/Speaker1.jpg,Images/Speaker2.jpg,Images/Speaker3.jpg,Images/Speaker4.jpg,Audio/Speaker3_En/P3-7-En.wav,Speaker3,گوینده۳,,,,,,,,,1,36,116,46,362.60493891700025,,,,,,,,,,,,,,,,,,,,,,,,,,,,,,,,,,,,,,,,,,,,,362.58395800000017,362.60493891700025,362.60493891700025,362.60493891700025,362.60493891700025,362.6000759166666,362.60493891700025,362.60493891700025,364.12247912500015,Correct! صحیح است,3,1.5159438750001755,None,68,197,364.12698854200016,364.1379175420002,,366.129051417,366.12906058399994,366.12923150000006,332514,001,2024-07-01_16h47.59.378,5-26,2024.1.4,None,2024-07-01 16h48.04.117606 +0900,
Images/Speaker1.jpg,Images/Speaker2.jpg,Images/Speaker3.jpg,Images/Speaker4.jpg,Audio/Speaker4_En/P4-20-En.wav,Speaker4,گوینده۴,,,,,,,,,1,37,117,79,366.1502544589998,,,,,,,,,,,,,,,,,,,,,,,,,,,,,,,,,,,,,,,,,,,,,366.12955720900027,366.1502544589998,366.1502544589998,366.1502544589998,366.1502544589998,366.1456819166667,366.1502544589998,366.1502544589998,367.1193429589998,Correct! صحیح است,4,0.9644640419996904,None,68,198,367.12384362500006,367.1357573340001,369.14258841699984,369.12086450000015,369.12087595899993,369.1210451669999,332514,001,2024-07-01_16h47.59.378,5-26,2024.1.4,None,2024-07-01 16h48.04.117606 +0900,
Images/Speaker1.jpg,Images/Speaker2.jpg,Images/Speaker3.jpg,Images/Speaker4.jpg,Audio/Speaker3_En/P3-9-En.wav,Speaker3,گوینده۳,,,,,,,,,1,38,118,48,369.14258841699984,,,,,,,,,,,,,,,,,,,,,,,,,,,,,,,,,,,,,,,,,,,,,369.12135558399996,369.14258841699984,369.14258841699984,369.14258841699984,369.14258841699984,369.1371719586666,369.14258841699984,369.14258841699984,370.60656604199994,Correct! صحیح است,3,1.4578300840003067,None,68,199,370.61105212500024,370.62258120900015,,372.61435195900003,372.614363917,372.61454345899983,332514,001,2024-07-01_16h47.59.378,5-26,2024.1.4,None,2024-07-01 16h48.04.117606 +0900,
Images/Speaker1.jpg,Images/Speaker2.jpg,Images/Speaker3.jpg,Images/Speaker4.jpg,Audio/Speaker2_En/P2-6-En.wav,Speaker2,گوینده۲,,,,,,,,,1,39,119,25,372.6358217920001,,,,,,,,,,,,,,,,,,,,,,,,,,,,,,,,,,,,,,,,,,,,,372.61482454199995,372.6358217920001,372.6358217920001,372.6358217920001,372.6358217920001,372.63098866666655,372.6358217920001,372.6358217920001,373.9086818750002,Correct! صحیح است,2,1.270647457999985,None,68,200,373.91373833399985,373.9267181670002,,375.9141595000001,375.9141718750002,375.91439445900005,332514,001,2024-07-01_16h47.59.378,5-26,2024.1.4,None,2024-07-01 16h48.04.117606 +0900,
Images/Speaker1.jpg,Images/Speaker2.jpg,Images/Speaker3.jpg,Images/Speaker4.jpg,Audio/Speaker1_En/P1-6-En.wav,Speaker1,گوینده ۱,,,,,,,,,1,40,120,5,375.93651041700014,,,,,,,,,,,,,,,,,,,,,,,,,,,,,,,,,,,,,,,,,,,,,375.91468804199985,375.93651041700014,375.93651041700014,375.93651041700014,375.93651041700014,375.9307894586666,375.93651041700014,375.93651041700014,377.12136525000005,Correct! صحیح است,1,1.1808578750001288,None,68,201,377.12554654199994,377.1368990000001,379.14730179200023,379.12465566699984,379.1246675420002,379.1248569590002,332514,001,2024-07-01_16h47.59.378,5-26,2024.1.4,None,2024-07-01 16h48.04.117606 +0900,
Images/Speaker1.jpg,Images/Speaker2.jpg,Images/Speaker3.jpg,Images/Speaker4.jpg,Audio/Speaker2_En/P2-12-En.wav,Speaker2,گوینده۲,,,,,,,,,1,41,121,31,379.14730179200023,,,,,,,,,,,,,,,,,,,,,,,,,,,,,,,,,,,,,,,,,,,,,379.12544279199983,379.14730179200023,379.14730179200023,379.14730179200023,379.14730179200023,379.1409689586669,379.14730179200023,379.14730179200023,380.3730527920002,Correct! صحیح است,2,1.2191267080002035,None,68,202,380.377060584,380.3886017919999,382.3981565419999,382.374043667,382.3740526249999,382.37465875,332514,001,2024-07-01_16h47.59.378,5-26,2024.1.4,None,2024-07-01 16h48.04.117606 +0900,
Images/Speaker1.jpg,Images/Speaker2.jpg,Images/Speaker3.jpg,Images/Speaker4.jpg,Audio/Speaker4_En/P4-1-En.wav,Speaker4,گوینده۴,,,,,,,,,1,42,122,60,382.3981565419999,,,,,,,,,,,,,,,,,,,,,,,,,,,,,,,,,,,,,,,,,,,,,382.3754295839999,382.3981565419999,382.3981565419999,382.3981565419999,382.3981565419999,382.4071142083335,382.3981565419999,382.3981565419999,383.97482924999986,Correct! صحیح است,4,1.56776658400031,None,68,203,383.9797800000001,383.9919475840002,,385.98422145899985,385.984229917,385.9844478340001,332514,001,2024-07-01_16h47.59.378,5-26,2024.1.4,None,2024-07-01 16h48.04.117606 +0900,
Images/Speaker1.jpg,Images/Speaker2.jpg,Images/Speaker3.jpg,Images/Speaker4.jpg,Audio/Speaker4_En/P4-17-En.wav,Speaker4,گوینده۴,,,,,,,,,1,43,123,76,386.0074249590002,,,,,,,,,,,,,,,,,,,,,,,,,,,,,,,,,,,,,,,,,,,,,385.98554787500007,386.0074249590002,386.0074249590002,386.0074249590002,386.0074249590002,386.01752045833337,386.0074249590002,386.0074249590002,387.382198667,Correct! صحیح است,4,1.365283499999805,None,68,204,387.38616070900025,387.39786304200015,,389.39101579199996,389.3910290419999,389.3912404590001,332514,001,2024-07-01_16h47.59.378,5-26,2024.1.4,None,2024-07-01 16h48.04.117606 +0900,
Images/Speaker1.jpg,Images/Speaker2.jpg,Images/Speaker3.jpg,Images/Speaker4.jpg,Audio/Speaker1_En/P1-16-En.wav,Speaker1,گوینده ۱,,,,,,,,,1,44,124,15,389.4130055840001,,,,,,,,,,,,,,,,,,,,,,,,,,,,,,,,,,,,,,,,,,,,,389.3915607499998,389.4130055840001,389.4130055840001,389.4130055840001,389.4130055840001,389.4076392086665,389.4130055840001,389.4130055840001,391.5032866249999,Correct! صحیح است,1,2.0848072499998125,None,68,205,391.507718542,391.5187631670001,393.5279344999999,393.506635834,393.50664458400024,393.506813084,332514,001,2024-07-01_16h47.59.378,5-26,2024.1.4,None,2024-07-01 16h48.04.117606 +0900,
Images/Speaker1.jpg,Images/Speaker2.jpg,Images/Speaker3.jpg,Images/Speaker4.jpg,Audio/Speaker4_En/P4-6-En.wav,Speaker4,گوینده۴,,,,,,,,,1,45,125,65,393.5279344999999,,,,,,,,,,,,,,,,,,,,,,,,,,,,,,,,,,,,,,,,,,,,,393.50711758399984,393.5279344999999,393.5279344999999,393.5279344999999,393.5279344999999,393.5230146256665,393.5279344999999,393.5279344999999,394.6889464589999,Correct! صحیح است,4,1.1575502919999963,None,68,206,394.6941352919998,394.706253584,,396.6972917090002,396.69730941700027,396.69748508400016,332514,001,2024-07-01_16h47.59.378,5-26,2024.1.4,None,2024-07-01 16h48.04.117606 +0900,
Images/Speaker1.jpg,Images/Speaker2.jpg,Images/Speaker3.jpg,Images/Speaker4.jpg,Audio/Speaker2_En/P2-19-En.wav,Speaker2,گوینده۲,,,,,,,,,1,46,126,38,396.719120709,,,,,,,,,,,,,,,,,,,,,,,,,,,,,,,,,,,,,,,,,,,,,396.6977959589999,396.719120709,396.719120709,396.719120709,396.719120709,396.7139089166669,396.719120709,396.719120709,398.0221167919999,Correct! صحیح است,2,1.295785958000124,None,68,207,398.02650008399996,398.0373506250003,400.0491806670002,400.02607416699993,400.02611079200005,400.0265542920001,332514,001,2024-07-01_16h47.59.378,5-26,2024.1.4,None,2024-07-01 16h48.04.117606 +0900,
Images/Speaker1.jpg,Images/Speaker2.jpg,Images/Speaker3.jpg,Images/Speaker4.jpg,Audio/Speaker4_En/P4-16-En.wav,Speaker4,گوینده۴,,,,,,,,,1,47,127,75,400.0491806670002,,,,,,,,,,,,,,,,,,,,,,,,,,,,,,,,,,,,,,,,,,,,,400.02776108399985,400.0491806670002,400.0491806670002,400.0491806670002,400.0491806670002,400.05829700033337,400.0491806670002,400.0491806670002,401.39509583400013,Correct! صحیح است,4,1.3429355000002943,None,68,208,401.39903133400003,401.4113191669999,,403.4000786669999,403.4000873750001,403.40034308400027,332514,001,2024-07-01_16h47.59.378,5-26,2024.1.4,None,2024-07-01 16h48.04.117606 +0900,
Images/Speaker1.jpg,Images/Speaker2.jpg,Images/Speaker3.jpg,Images/Speaker4.jpg,Audio/Speaker2_En/P2-13-En.wav,Speaker2,گوینده۲,,,,,,,,,1,48,128,32,403.4213046670002,,,,,,,,,,,,,,,,,,,,,,,,,,,,,,,,,,,,,,,,,,,,,403.40065845900017,403.4213046670002,403.4213046670002,403.4213046670002,403.4213046670002,403.4167082086667,403.4213046670002,403.4213046670002,404.93068674999995,Correct! صحیح است,2,1.5058766669999386,None,68,209,404.93498229199986,404.94638083400014,406.9557432920001,406.93345899999986,406.93348849999984,406.93380820899984,332514,001,2024-07-01_16h47.59.378,5-26,2024.1.4,None,2024-07-01 16h48.04.117606 +0900,
Images/Speaker1.jpg,Images/Speaker2.jpg,Images/Speaker3.jpg,Images/Speaker4.jpg,Audio/Speaker2_En/P2-9-En.wav,Speaker2,گوینده۲,,,,,,,,,1,49,129,28,406.9557432920001,,,,,,,,,,,,,,,,,,,,,,,,,,,,,,,,,,,,,,,,,,,,,406.9345750000002,406.9557432920001,406.9557432920001,406.9557432920001,406.9557432920001,406.96586895833343,406.9557432920001,406.9557432920001,408.4647556670002,Correct! صحیح است,2,1.5079194170002665,None,68,210,408.47005012499994,408.48219583399987,410.4887349589999,410.46657837500015,410.46660162499984,410.46693470900027,332514,001,2024-07-01_16h47.59.378,5-26,2024.1.4,None,2024-07-01 16h48.04.117606 +0900,
Images/Speaker1.jpg,Images/Speaker2.jpg,Images/Speaker3.jpg,Images/Speaker4.jpg,Audio/Speaker4_En/P4-12-En.wav,Speaker4,گوینده۴,,,,,,,,,1,50,130,71,410.4887349589999,,,,,,,,,,,,,,,,,,,,,,,,,,,,,,,,,,,,,,,,,,,,,410.46756245899996,410.4887349589999,410.4887349589999,410.4887349589999,410.4887349589999,410.49887629233353,410.4887349589999,410.4887349589999,411.92628591699986,Correct! صحیح است,4,1.4344908340003713,None,68,211,411.93060975000026,411.9416866249999,,413.9330097500001,413.9330371249998,413.93377858400027,332514,001,2024-07-01_16h47.59.378,5-26,2024.1.4,None,2024-07-01 16h48.04.117606 +0900,
Images/Speaker1.jpg,Images/Speaker2.jpg,Images/Speaker3.jpg,Images/Speaker4.jpg,Audio/Speaker4_En/P4-18-En.wav,Speaker4,گوینده۴,,,,,,,,,1,51,131,77,413.956725084,,,,,,,,,,,,,,,,,,,,,,,,,,,,,,,,,,,,,,,,,,,,,413.93490554200025,413.956725084,413.956725084,413.956725084,413.956725084,413.9661764173334,413.956725084,413.956725084,415.35280412500015,Correct! صحیح است,4,1.38740929100004,None,68,212,415.3572330000002,415.36615795900025,417.38028929200027,417.3572918750001,417.35732325000026,417.35771108400013,332514,001,2024-07-01_16h47.59.378,5-26,2024.1.4,None,2024-07-01 16h48.04.117606 +0900,
Images/Speaker1.jpg,Images/Speaker2.jpg,Images/Speaker3.jpg,Images/Speaker4.jpg,Audio/Speaker1_En/P1-17-En.wav,Speaker1,گوینده ۱,,,,,,,,,1,52,132,16,417.38028929200027,,,,,,,,,,,,,,,,,,,,,,,,,,,,,,,,,,,,,,,,,,,,,417.35873283399997,417.38028929200027,417.38028929200027,417.38028929200027,417.38028929200027,417.3895717083333,417.38028929200027,417.38028929200027,418.6703506670001,Correct! صحیح است,1,1.2889496249999866,None,68,213,418.67443891699986,418.68676537500005,420.69416066700023,420.671724625,420.6717334589998,420.6719239590002,332514,001,2024-07-01_16h47.59.378,5-26,2024.1.4,None,2024-07-01 16h48.04.117606 +0900,
Images/Speaker1.jpg,Images/Speaker2.jpg,Images/Speaker3.jpg,Images/Speaker4.jpg,Audio/Speaker1_En/P1-19-En.wav,Speaker1,گوینده ۱,,,,,,,,,1,53,133,18,420.69416066700023,,,,,,,,,,,,,,,,,,,,,,,,,,,,,,,,,,,,,,,,,,,,,420.67224520900027,420.69416066700023,420.69416066700023,420.69416066700023,420.69416066700023,420.6880892086667,420.69416066700023,420.69416066700023,424.04758425,Correct! صحیح است,1,3.350618041999951,None,68,214,424.0480186670002,424.05949962500017,426.0645517500002,426.04220625000016,426.0422154590001,426.0423955420001,332514,001,2024-07-01_16h47.59.378,5-26,2024.1.4,None,2024-07-01 16h48.04.117606 +0900,
Images/Speaker1.jpg,Images/Speaker2.jpg,Images/Speaker3.jpg,Images/Speaker4.jpg,Audio/Speaker4_En/P4-11-En.wav,Speaker4,گوینده۴,,,,,,,,,1,54,134,70,426.0645517500002,,,,,,,,,,,,,,,,,,,,,,,,,,,,,,,,,,,,,,,,,,,,,426.04268541700003,426.0645517500002,426.0645517500002,426.0645517500002,426.0645517500002,426.05861345866674,426.0645517500002,426.0645517500002,427.48695220900026,Correct! صحیح است,4,1.4205245829998603,None,68,215,427.4910685,427.5028561670001,429.51129575000004,429.4895487919998,429.48955616700005,429.4897164170002,332514,001,2024-07-01_16h47.59.378,5-26,2024.1.4,None,2024-07-01 16h48.04.117606 +0900,
Images/Speaker1.jpg,Images/Speaker2.jpg,Images/Speaker3.jpg,Images/Speaker4.jpg,Audio/Speaker1_En/P1-18-En.wav,Speaker1,گوینده ۱,,,,,,,,,1,55,135,17,429.51129575000004,,,,,,,,,,,,,,,,,,,,,,,,,,,,,,,,,,,,,,,,,,,,,429.48997966700017,429.51129575000004,429.51129575000004,429.51129575000004,429.51129575000004,429.50600537566675,429.51129575000004,429.51129575000004,430.86998729200013,Correct! صحیح است,1,1.356927374999941,None,68,216,430.87405787499983,430.885212875,432.895018917,432.8729445419999,432.8729530840001,432.87313266699994,332514,001,2024-07-01_16h47.59.378,5-26,2024.1.4,None,2024-07-01 16h48.04.117606 +0900,
Images/Speaker1.jpg,Images/Speaker2.jpg,Images/Speaker3.jpg,Images/Speaker4.jpg,Audio/Speaker3_En/P3-10-En.wav,Speaker3,گوینده۳,,,,,,,,,1,56,136,49,432.895018917,,,,,,,,,,,,,,,,,,,,,,,,,,,,,,,,,,,,,,,,,,,,,432.8734276250002,432.895018917,432.895018917,432.895018917,432.895018917,432.8893369586665,432.895018917,432.895018917,435.1691438749999,Correct! صحیح است,3,2.268971958000293,None,68,217,435.1749392500001,435.1867238340001,437.19262441699993,437.17109129200026,437.17110108399993,437.1713030840001,332514,001,2024-07-01_16h47.59.378,5-26,2024.1.4,None,2024-07-01 16h48.04.117606 +0900,
Images/Speaker1.jpg,Images/Speaker2.jpg,Images/Speaker3.jpg,Images/Speaker4.jpg,Audio/Speaker3_En/P3-16-En.wav,Speaker3,گوینده۳,,,,,,,,,1,57,137,55,437.19262441699993,,,,,,,,,,,,,,,,,,,,,,,,,,,,,,,,,,,,,,,,,,,,,437.1716007089999,437.19262441699993,437.19262441699993,437.19262441699993,437.19262441699993,437.18743275066686,437.19262441699993,437.19262441699993,438.7061785000001,Correct! صحیح است,3,1.5033398330001546,None,68,218,438.71158449999984,438.72502424999993,,440.7171525839999,440.71719120900025,440.7180818749998,332514,001,2024-07-01_16h47.59.378,5-26,2024.1.4,None,2024-07-01 16h48.04.117606 +0900,
Images/Speaker1.jpg,Images/Speaker2.jpg,Images/Speaker3.jpg,Images/Speaker4.jpg,Audio/Speaker2_En/P2-5-En.wav,Speaker2,گوینده۲,,,,,,,,,1,58,138,24,440.74341783399996,,,,,,,,,,,,,,,,,,,,,,,,,,,,,,,,,,,,,,,,,,,,,440.7193394589999,440.74341783399996,440.74341783399996,440.74341783399996,440.74341783399996,440.75030066733325,440.74341783399996,440.74341783399996,441.9150379590001,Correct! صحیح است,2,1.1677520000002914,None,68,219,441.9192401250002,441.9302935420001,443.93646041700003,443.9152835,443.9152926669999,443.9154802920002,332514,001,2024-07-01_16h47.59.378,5-26,2024.1.4,None,2024-07-01 16h48.04.117606 +0900,
Images/Speaker1.jpg,Images/Speaker2.jpg,Images/Speaker3.jpg,Images/Speaker4.jpg,Audio/Speaker3_En/P3-12-En.wav,Speaker3,گوینده۳,,,,,,,,,1,59,139,51,443.93646041700003,,,,,,,,,,,,,,,,,,,,,,,,,,,,,,,,,,,,,,,,,,,,,443.9158188340002,443.93646041700003,443.93646041700003,443.93646041700003,443.93646041700003,443.9317289586668,443.93646041700003,443.93646041700003,445.4626128750001,Correct! صحیح است,3,1.5199097500003518,None,68,220,445.4670325840002,445.4781146670002,447.486130667,447.46391308400007,447.4639215000002,447.46410270900014,332514,001,2024-07-01_16h47.59.378,5-26,2024.1.4,None,2024-07-01 16h48.04.117606 +0900,
Images/Speaker1.jpg,Images/Speaker2.jpg,Images/Speaker3.jpg,Images/Speaker4.jpg,Audio/Speaker1_En/P1-7-En.wav,Speaker1,گوینده ۱,,,,,,,,,1,60,140,6,447.486130667,,,,,,,,,,,,,,,,,,,,,,,,,,,,,,,,,,,,,,,,,,,,,447.464413917,447.486130667,447.486130667,447.486130667,447.486130667,447.48022658366676,447.486130667,447.486130667,448.8111642500003,Correct! صحیح است,1,1.3221980419998545,None,68,221,448.8152481249999,448.82614754199994,,450.81569975,450.81570895899995,450.8158939589998,332514,001,2024-07-01_16h47.59.378,5-26,2024.1.4,None,2024-07-01 16h48.04.117606 +0900,
Images/Speaker1.jpg,Images/Speaker2.jpg,Images/Speaker3.jpg,Images/Speaker4.jpg,Audio/Speaker2_En/P2-4-En.wav,Speaker2,گوینده۲,,,,,,,,,1,61,141,23,450.83778304199996,,,,,,,,,,,,,,,,,,,,,,,,,,,,,,,,,,,,,,,,,,,,,450.8162434169999,450.83778304199996,450.83778304199996,450.83778304199996,450.83778304199996,450.8323312086666,450.83778304199996,450.83778304199996,452.05404345900024,Correct! صحیح است,2,1.2120281249999607,None,68,222,452.05933504199993,452.07131362500013,454.07839416700017,454.05723637500023,454.05724729199983,454.0574445420002,332514,001,2024-07-01_16h47.59.378,5-26,2024.1.4,None,2024-07-01 16h48.04.117606 +0900,
Images/Speaker1.jpg,Images/Speaker2.jpg,Images/Speaker3.jpg,Images/Speaker4.jpg,Audio/Speaker3_En/P3-17-En.wav,Speaker3,گوینده۳,,,,,,,,,1,62,142,56,454.07839416700017,,,,,,,,,,,,,,,,,,,,,,,,,,,,,,,,,,,,,,,,,,,,,454.057763625,454.07839416700017,454.07839416700017,454.07839416700017,454.07839416700017,454.0736105006665,454.07839416700017,454.07839416700017,455.43656466699986,Correct! صحیح است,3,1.355060833999687,None,68,223,455.44053670899984,455.45213945900014,457.4564996670001,457.4351596669999,457.43516816700003,457.4353651669999,332514,001,2024-07-01_16h47.59.378,5-26,2024.1.4,None,2024-07-01 16h48.04.117606 +0900,
Images/Speaker1.jpg,Images/Speaker2.jpg,Images/Speaker3.jpg,Images/Speaker4.jpg,Audio/Speaker1_En/P1-13-En.wav,Speaker1,گوینده ۱,,,,,,,,,1,63,143,12,457.4564996670001,,,,,,,,,,,,,,,,,,,,,,,,,,,,,,,,,,,,,,,,,,,,,457.4356600840001,457.4564996670001,457.4564996670001,457.4564996670001,457.4564996670001,457.4516108756668,457.4564996670001,457.4564996670001,459.07352787499985,Correct! صحیح است,1,1.6140409170002386,None,68,224,459.077751584,459.0905156250001,461.09965729199985,461.07419904200015,461.07422162500006,461.0745390420002,332514,001,2024-07-01_16h47.59.378,5-26,2024.1.4,None,2024-07-01 16h48.04.117606 +0900,
Images/Speaker1.jpg,Images/Speaker2.jpg,Images/Speaker3.jpg,Images/Speaker4.jpg,Audio/Speaker1_En/P1-11-En.wav,Speaker1,گوینده ۱,,,,,,,,,1,64,144,10,461.09965729199985,,,,,,,,,,,,,,,,,,,,,,,,,,,,,,,,,,,,,,,,,,,,,461.0754637089999,461.09965729199985,461.09965729199985,461.09965729199985,461.09965729199985,461.1065744583334,461.09965729199985,461.09965729199985,462.321620792,Correct! صحیح است,1,1.217270083999665,None,68,225,462.32553770899995,462.33704687499994,464.3472885000001,464.32415508400027,464.32418050000024,464.3245139999999,332514,001,2024-07-01_16h47.59.378,5-26,2024.1.4,None,2024-07-01 16h48.04.117606 +0900,
Images/Speaker1.jpg,Images/Speaker2.jpg,Images/Speaker3.jpg,Images/Speaker4.jpg,Audio/Speaker1_En/P1-3-En.wav,Speaker1,گوینده ۱,,,,,,,,,1,65,145,2,464.3472885000001,,,,,,,,,,,,,,,,,,,,,,,,,,,,,,,,,,,,,,,,,,,,,464.32551583400027,464.3472885000001,464.3472885000001,464.3472885000001,464.3472885000001,464.35649045833316,464.3472885000001,464.3472885000001,465.59998454200013,Correct! صحیح است,1,1.24764095799992,None,68,226,465.6054772090001,465.61840933400026,467.62750187500023,467.60538429200005,467.605392167,467.6055525840002,332514,001,2024-07-01_16h47.59.378,5-26,2024.1.4,None,2024-07-01 16h48.04.117606 +0900,
Images/Speaker1.jpg,Images/Speaker2.jpg,Images/Speaker3.jpg,Images/Speaker4.jpg,Audio/Speaker1_En/P1-1-En.wav,Speaker1,گوینده ۱,,,,,,,,,1,66,146,0,467.62750187500023,,,,,,,,,,,,,,,,,,,,,,,,,,,,,,,,,,,,,,,,,,,,,467.6058324169999,467.62750187500023,467.62750187500023,467.62750187500023,467.62750187500023,467.6218198756667,467.62750187500023,467.62750187500023,469.02523366700007,Correct! صحیح است,1,1.395331583999905,None,68,227,469.029663625,469.04130695899994,,471.03184179200025,471.0318864169999,471.03269762499986,332514,001,2024-07-01_16h47.59.378,5-26,2024.1.4,None,2024-07-01 16h48.04.117606 +0900,
Images/Speaker1.jpg,Images/Speaker2.jpg,Images/Speaker3.jpg,Images/Speaker4.jpg,Audio/Speaker2_En/P2-7-En.wav,Speaker2,گوینده۲,,,,,,,,,1,67,147,26,471.05472999999984,,,,,,,,,,,,,,,,,,,,,,,,,,,,,,,,,,,,,,,,,,,,,471.03355191699984,471.05472999999984,471.05472999999984,471.05472999999984,471.05472999999984,471.0483738336668,471.05472999999984,471.05472999999984,472.1983835420001,Correct! صحیح است,2,1.1362123750000137,None,68,228,472.20366049999984,472.2163596250002,474.2241237090002,474.2017042090001,474.20171274999984,474.2019086670002,332514,001,2024-07-01_16h47.59.378,5-26,2024.1.4,None,2024-07-01 16h48.04.117606 +0900,
Images/Speaker1.jpg,Images/Speaker2.jpg,Images/Speaker3.jpg,Images/Speaker4.jpg,Audio/Speaker3_En/P3-1-En.wav,Speaker3,گوینده۳,,,,,,,,,1,68,148,40,474.2241237090002,,,,,,,,,,,,,,,,,,,,,,,,,,,,,,,,,,,,,,,,,,,,,474.2022260839999,474.2241237090002,474.2241237090002,474.2241237090002,474.2241237090002,474.2180821666668,474.2241237090002,474.2241237090002,475.76263641700007,Correct! صحیح است,3,1.5342329999998583,None,68,229,475.76690800000006,475.77813504200003,477.79101379199983,477.76721124999995,477.7672402500002,477.767653292,332514,001,2024-07-01_16h47.59.378,5-26,2024.1.4,None,2024-07-01 16h48.04.117606 +0900,
Images/Speaker1.jpg,Images/Speaker2.jpg,Images/Speaker3.jpg,Images/Speaker4.jpg,Audio/Speaker2_En/P2-15-En.wav,Speaker2,گوینده۲,,,,,,,,,1,69,149,34,477.79101379199983,,,,,,,,,,,,,,,,,,,,,,,,,,,,,,,,,,,,,,,,,,,,,477.7689515420002,477.79101379199983,477.79101379199983,477.79101379199983,477.79101379199983,477.7995967503334,477.79101379199983,477.79101379199983,479.2232327920001,Correct! صحیح است,2,1.4269667919998028,None,68,230,479.2272338749999,479.23847545900026,481.24558695899987,481.22353895900005,481.2235485840001,481.223720084,332514,001,2024-07-01_16h47.59.378,5-26,2024.1.4,None,2024-07-01 16h48.04.117606 +0900,
Images/Speaker1.jpg,Images/Speaker2.jpg,Images/Speaker3.jpg,Images/Speaker4.jpg,Audio/Speaker1_En/P1-9-En.wav,Speaker1,گوینده ۱,,,,,,,,,1,70,150,8,481.24558695899987,,,,,,,,,,,,,,,,,,,,,,,,,,,,,,,,,,,,,,,,,,,,,481.2240092090001,481.24558695899987,481.24558695899987,481.24558695899987,481.24558695899987,481.2399262086667,481.24558695899987,481.24558695899987,482.56642441700023,Correct! صحیح است,1,1.3103800410003714,None,68,231,482.57037475000016,482.5795760840001,484.5860882500001,484.56397716699985,484.56398508400025,484.5641595000002,332514,001,2024-07-01_16h47.59.378,5-26,2024.1.4,None,2024-07-01 16h48.04.117606 +0900,
