SpeakerImage1,SpeakerImage2,SpeakerImage3,SpeakerImage4,TrainingSound,EnglishCorrectAnswer,PersianCorrectAnswer,repeated_TrainingLoopGroup1.thisRepN,repeated_TrainingLoopGroup1.thisTrialN,repeated_TrainingLoopGroup1.thisN,repeated_TrainingLoopGroup1.thisIndex,TrainingLoopGroup1.thisRepN,TrainingLoopGroup1.thisTrialN,TrainingLoopGroup1.thisN,TrainingLoopGroup1.thisIndex,thisRow.t,notes,trial.started,trial.stopped,GroupSelection.started,GroupInstructions.started,key_resp.started,GroupSelection.stopped,key_resp.keys,key_resp.rt,key_resp.duration,HeadphoneCheck.started,text_13.started,mouse.started,checkbox.started,HeadphoneCheck.stopped,mouse.x,mouse.y,mouse.leftButton,mouse.midButton,mouse.rightButton,mouse.time,mouse.clicked_name,Headphone_Used,Introduction.started,text_2.started,image.started,sound_8.started,text_4.started,text_2.stopped,image.stopped,text_4.stopped,image_7.started,sound_10.started,text_5.started,image_7.stopped,text_5.stopped,image_8.started,sound_12.started,text_6.started,image_8.stopped,text_6.stopped,image_9.started,sound_14.started,text_7.started,image_9.stopped,text_7.stopped,Introduction.stopped,Instructions.started,InstructionText.started,InstructionText.stopped,Instructions.stopped,InitializeExperiment.started,InitializeExperiment.stopped,TrainingGroup1.started,image_1.started,image_2.started,image_3.started,image_4.started,sound1.started,Instruction.started,ResponseKey.started,SessionNumberText.started,TrainingGroup1.stopped,feedbackText,correct_responses_group1,total_trials_group1,ResponseKey.keys,ResponseKey.rt,ResponseKey.duration,FeedbackRoutine1.started,FeedbackText.started,FeedbackText.stopped,FeedbackRoutine1.stopped,Break.started,Break.stopped,participant,session,date,expName,psychopyVersion,frameRate,expStart,
,,,,,,,,,,,,,,,,,0.008763166995777283,0.009126624994678423,,,,,,,,,,,,,,,,,,,,,,,,,,,,,,,,,,,,,,,,,,,,,,,,,,,,,,,,,,,,,,,,,,,,,,,,,350772,001,2024-08-02_14h47.46.374,5-34 ready-monolingual persian speaker,2024.1.5,None,2024-08-02 14h47.52.821321 +0900,
,,,,,,,,,,,,,,,,,,,0.009142332994088065,0.014747832996363286,0.014747832996363286,0.7291484169982141,1,0.6796048330070334,None,,,,,,,,,,,,,,,,,,,,,,,,,,,,,,,,,,,,,,,,,,,,,,,,,,,,,,,,,,,,,,,,,,350772,001,2024-08-02_14h47.46.374,5-34 ready-monolingual persian speaker,2024.1.5,None,2024-08-02 14h47.52.821321 +0900,
,,,,,,,,,,,,,,,,,,,,,,,,,,0.7291736249972018,0.740418374996807,0.00019433299894444644,0.740418374996807,1.4280599999983679,[-0.06415478615071284],[0.1670061099796334],[1],[0],[0],[0.6981907919980586],[],False,,,,,,,,,,,,,,,,,,,,,,,,,,,,,,,,,,,,,,,,,,,,,,,,,,,,,350772,001,2024-08-02_14h47.46.374,5-34 ready-monolingual persian speaker,2024.1.5,None,2024-08-02 14h47.52.821321 +0900,
,,,,,,,,,,,,,,,,,,,,,,,,,,,,,,,,,,,,,,,1.4282104999947478,1.474027207994368,6.419350041993312,6.429715916663796,6.419350041993312,6.472875707993808,14.408708791997924,14.408708791997924,14.427562332995876,14.439677541664667,14.427562332995876,22.422470624995185,22.422470624995185,22.422470624995185,22.43593049966536,22.422470624995185,30.418579166995187,30.418579166995187,30.4231405419996,30.435245833661853,30.4231405419996,38.42111699999805,38.42111699999805,38.40706262499589,,,,,,,,,,,,,,,,,,,,,,,,,,,,,350772,001,2024-08-02_14h47.46.374,5-34 ready-monolingual persian speaker,2024.1.5,None,2024-08-02 14h47.52.821321 +0900,
,,,,,,,,,,,,,,,,,,,,,,,,,,,,,,,,,,,,,,,,,,,,,,,,,,,,,,,,,,,,,,,38.40709999999672,38.4251812079965,39.49418783299916,39.41162508299749,,,,,,,,,,,,,,,,,,,,,,,,,350772,001,2024-08-02_14h47.46.374,5-34 ready-monolingual persian speaker,2024.1.5,None,2024-08-02 14h47.52.821321 +0900,
,,,,,,,,,,,,,,,,,,,,,,,,,,,,,,,,,,,,,,,,,,,,,,,,,,,,,,,,,,,,,,,,,,,39.41163766699901,39.4117813749981,,,,,,,,,,,,,,,,,,,,,,,350772,001,2024-08-02_14h47.46.374,5-34 ready-monolingual persian speaker,2024.1.5,None,2024-08-02 14h47.52.821321 +0900,
Images/Speaker1.jpg,Images/Speaker2.jpg,Images/Speaker3.jpg,Images/Speaker4.jpg,Audio/Speaker1_Per/P1-16-Per.wav,Speaker1,گوینده ۱,0,0,0,29,0,0,0,15,39.49418783299916,,,,,,,,,,,,,,,,,,,,,,,,,,,,,,,,,,,,,,,,,,,,,,,,,,,,,,39.4641358749941,39.49418783299916,39.49418783299916,39.49418783299916,39.49418783299916,39.494674166327364,39.49418783299916,39.49418783299916,39.49418783299916,40.36865779199434,صحیح است,1,1,1,0.8724978750033188,None,40.37270437499683,40.38370874999964,42.39508624999871,42.36799066699314,42.36800320799375,42.36816704199737,350772,001,2024-08-02_14h47.46.374,5-34 ready-monolingual persian speaker,2024.1.5,None,2024-08-02 14h47.52.821321 +0900,
Images/Speaker1.jpg,Images/Speaker2.jpg,Images/Speaker3.jpg,Images/Speaker4.jpg,Audio/Speaker1_Per/P1-13-Per.wav,Speaker1,گوینده ۱,0,0,0,29,0,1,1,12,42.39508624999871,,,,,,,,,,,,,,,,,,,,,,,,,,,,,,,,,,,,,,,,,,,,,,,,,,,,,,42.36833949999709,42.39508624999871,42.39508624999871,42.39508624999871,42.39508624999871,42.401123625328665,42.39508624999871,42.39508624999871,42.39508624999871,42.82428224999603,صحیح است,2,2,1,0.4241680830018595,None,42.82841366699722,42.83974145799584,,44.83537212499505,44.835382457997184,44.83601924999675,350772,001,2024-08-02_14h47.46.374,5-34 ready-monolingual persian speaker,2024.1.5,None,2024-08-02 14h47.52.821321 +0900,
Images/Speaker1.jpg,Images/Speaker2.jpg,Images/Speaker3.jpg,Images/Speaker4.jpg,Audio/Speaker1_Per/P1-7-Per.wav,Speaker1,گوینده ۱,0,0,0,29,0,2,2,6,44.864709832996596,,,,,,,,,,,,,,,,,,,,,,,,,,,,,,,,,,,,,,,,,,,,,,,,,,,,,,44.83620670799428,44.864709832996596,44.864709832996596,44.864709832996596,44.864709832996596,44.868668666328205,44.864709832996596,44.864709832996596,44.864709832996596,45.13698633299646,صحیح است,3,3,1,0.2701443330006441,None,45.140877541998634,45.15071887499653,,47.14736970800004,47.147379124995496,47.148005207993265,350772,001,2024-08-02_14h47.46.374,5-34 ready-monolingual persian speaker,2024.1.5,None,2024-08-02 14h47.52.821321 +0900,
Images/Speaker1.jpg,Images/Speaker2.jpg,Images/Speaker3.jpg,Images/Speaker4.jpg,Audio/Speaker2_Per/P2-13-Per.wav,Speaker2,گوینده۲,0,0,0,29,0,3,3,32,47.17625154199777,,,,,,,,,,,,,,,,,,,,,,,,,,,,,,,,,,,,,,,,,,,,,,,,,,,,,,47.14880304199323,47.17625154199777,47.17625154199777,47.17625154199777,47.17625154199777,47.18066508333189,47.17625154199777,47.17625154199777,47.17625154199777,47.444957499996235,نادرست! پاسخ صحیح گوینده۲ است,3,4,1,0.26767466599994805,None,47.4487424169929,47.46134799999709,49.47571412499383,49.44658158299717,49.446607957994274,49.44694174999313,350772,001,2024-08-02_14h47.46.374,5-34 ready-monolingual persian speaker,2024.1.5,None,2024-08-02 14h47.52.821321 +0900,
Images/Speaker1.jpg,Images/Speaker2.jpg,Images/Speaker3.jpg,Images/Speaker4.jpg,Audio/Speaker3_Per/P3-12-Per.wav,Speaker3,گوینده۳,0,0,0,29,0,4,4,51,49.47571412499383,,,,,,,,,,,,,,,,,,,,,,,,,,,,,,,,,,,,,,,,,,,,,,,,,,,,,,49.44787662499584,49.47571412499383,49.47571412499383,49.47571412499383,49.47571412499383,49.47902300032777,49.47571412499383,49.47571412499383,49.47571412499383,49.63464762499643,نادرست! پاسخ صحیح گوینده۳ است,3,5,1,None,None,49.63878062499862,49.647898416995304,51.669304207993264,51.6387180419988,51.63875229199766,51.63913395799318,350772,001,2024-08-02_14h47.46.374,5-34 ready-monolingual persian speaker,2024.1.5,None,2024-08-02 14h47.52.821321 +0900,
Images/Speaker1.jpg,Images/Speaker2.jpg,Images/Speaker3.jpg,Images/Speaker4.jpg,Audio/Speaker4_Per/P4-15-Per.wav,Speaker4,گوینده۴,0,0,0,29,0,5,5,74,51.669304207993264,,,,,,,,,,,,,,,,,,,,,,,,,,,,,,,,,,,,,,,,,,,,,,,,,,,,,,51.64011074999871,51.669304207993264,51.669304207993264,51.669304207993264,51.669304207993264,51.67124412532624,51.669304207993264,51.669304207993264,51.669304207993264,52.06375141699391,نادرست! پاسخ صحیح گوینده۴ است,3,6,1,0.3830620419976185,None,52.06774391699582,52.07677241700003,54.09576299999753,54.06680379199679,54.06682629199349,54.06707387499773,350772,001,2024-08-02_14h47.46.374,5-34 ready-monolingual persian speaker,2024.1.5,None,2024-08-02 14h47.52.821321 +0900,
Images/Speaker1.jpg,Images/Speaker2.jpg,Images/Speaker3.jpg,Images/Speaker4.jpg,Audio/Speaker3_Per/P3-15-Per.wav,Speaker3,گوینده۳,0,0,0,29,0,6,6,54,54.09576299999753,,,,,,,,,,,,,,,,,,,,,,,,,,,,,,,,,,,,,,,,,,,,,,,,,,,,,,54.06773558299756,54.09576299999753,54.09576299999753,54.09576299999753,54.09576299999753,54.09926729132761,54.09576299999753,54.09576299999753,54.09576299999753,54.297915832998115,نادرست! پاسخ صحیح گوینده۳ است,3,7,1,0.2002996669980348,None,54.30210404199897,54.312910249995184,,56.308003666999866,56.30803924999782,56.30883512499713,350772,001,2024-08-02_14h47.46.374,5-34 ready-monolingual persian speaker,2024.1.5,None,2024-08-02 14h47.52.821321 +0900,
Images/Speaker1.jpg,Images/Speaker2.jpg,Images/Speaker3.jpg,Images/Speaker4.jpg,Audio/Speaker2_Per/P2-2-Per.wav,Speaker2,گوینده۲,0,0,0,29,0,7,7,21,56.33740258299804,,,,,,,,,,,,,,,,,,,,,,,,,,,,,,,,,,,,,,,,,,,,,,,,,,,,,,56.30941924999934,56.33740258299804,56.33740258299804,56.33740258299804,56.33740258299804,56.341186750331445,56.33740258299804,56.33740258299804,56.33740258299804,56.58967441699497,نادرست! پاسخ صحیح گوینده۲ است,3,8,1,0.2508854589978,None,56.59373191699706,56.60478795799281,,58.599427499997546,58.59947174999979,58.60011166699405,350772,001,2024-08-02_14h47.46.374,5-34 ready-monolingual persian speaker,2024.1.5,None,2024-08-02 14h47.52.821321 +0900,
Images/Speaker1.jpg,Images/Speaker2.jpg,Images/Speaker3.jpg,Images/Speaker4.jpg,Audio/Speaker2_Per/P2-10-Per.wav,Speaker2,گوینده۲,0,0,0,29,0,8,8,29,58.6282282079992,,,,,,,,,,,,,,,,,,,,,,,,,,,,,,,,,,,,,,,,,,,,,,,,,,,,,,58.60068829199736,58.6282282079992,58.6282282079992,58.6282282079992,58.6282282079992,58.63259050033278,58.6282282079992,58.6282282079992,58.6282282079992,58.87557949999609,نادرست! پاسخ صحیح گوینده۲ است,3,9,1,0.24006745900260285,None,58.879597207996994,58.89060316699761,60.896972416994686,60.87353904199699,60.87355058299727,60.87367629199434,350772,001,2024-08-02_14h47.46.374,5-34 ready-monolingual persian speaker,2024.1.5,None,2024-08-02 14h47.52.821321 +0900,
Images/Speaker1.jpg,Images/Speaker2.jpg,Images/Speaker3.jpg,Images/Speaker4.jpg,Audio/Speaker3_Per/P3-7-Per.wav,Speaker3,گوینده۳,0,0,0,29,0,9,9,46,60.896972416994686,,,,,,,,,,,,,,,,,,,,,,,,,,,,,,,,,,,,,,,,,,,,,,,,,,,,,,60.87383920799766,60.896972416994686,60.896972416994686,60.896972416994686,60.896972416994686,60.906655958330276,60.896972416994686,60.896972416994686,60.896972416994686,61.098439166999015,نادرست! پاسخ صحیح گوینده۳ است,3,10,1,0.194746250002936,None,61.102515082995524,61.11382429199875,63.12338420799642,63.09960466699704,63.09961445799854,63.099745124993206,350772,001,2024-08-02_14h47.46.374,5-34 ready-monolingual persian speaker,2024.1.5,None,2024-08-02 14h47.52.821321 +0900,
Images/Speaker1.jpg,Images/Speaker2.jpg,Images/Speaker3.jpg,Images/Speaker4.jpg,Audio/Speaker4_Per/P4-20-Per.wav,Speaker4,گوینده۴,0,0,0,29,0,10,10,79,63.12338420799642,,,,,,,,,,,,,,,,,,,,,,,,,,,,,,,,,,,,,,,,,,,,,,,,,,,,,,63.09991966699454,63.12338420799642,63.12338420799642,63.12338420799642,63.12338420799642,63.132725250332925,63.12338420799642,63.12338420799642,63.12338420799642,63.32219429199904,نادرست! پاسخ صحیح گوینده۴ است,3,11,1,0.19222254100168357,None,63.326236916997004,63.33771533299296,,65.32720162499754,65.3272356249945,65.32796612499806,350772,001,2024-08-02_14h47.46.374,5-34 ready-monolingual persian speaker,2024.1.5,None,2024-08-02 14h47.52.821321 +0900,
Images/Speaker1.jpg,Images/Speaker2.jpg,Images/Speaker3.jpg,Images/Speaker4.jpg,Audio/Speaker4_Per/P4-5-Per.wav,Speaker4,گوینده۴,0,0,0,29,0,11,11,64,65.3540498749935,,,,,,,,,,,,,,,,,,,,,,,,,,,,,,,,,,,,,,,,,,,,,,,,,,,,,,65.32901770799799,65.3540498749935,65.3540498749935,65.3540498749935,65.3540498749935,65.360331708333,65.3540498749935,65.3540498749935,65.3540498749935,65.54516716699436,نادرست! پاسخ صحیح گوینده۴ است,3,12,1,0.18959870900289388,None,65.54908695799531,65.56047787499847,67.57455874999869,67.54943558299419,67.54946029199346,67.54970633299672,350772,001,2024-08-02_14h47.46.374,5-34 ready-monolingual persian speaker,2024.1.5,None,2024-08-02 14h47.52.821321 +0900,
Images/Speaker1.jpg,Images/Speaker2.jpg,Images/Speaker3.jpg,Images/Speaker4.jpg,Audio/Speaker4_Per/P4-7-Per.wav,Speaker4,گوینده۴,0,0,0,29,0,12,12,66,67.57455874999869,,,,,,,,,,,,,,,,,,,,,,,,,,,,,,,,,,,,,,,,,,,,,,,,,,,,,,67.55023879199871,67.57455874999869,67.57455874999869,67.57455874999869,67.57455874999869,67.58190966633313,67.57455874999869,67.57455874999869,67.57455874999869,67.74040816699562,نادرست! پاسخ صحیح گوینده۴ است,3,13,1,None,None,67.74471645799349,67.75360104199353,,69.74789387499914,69.7479037919984,69.74808237499383,350772,001,2024-08-02_14h47.46.374,5-34 ready-monolingual persian speaker,2024.1.5,None,2024-08-02 14h47.52.821321 +0900,
Images/Speaker1.jpg,Images/Speaker2.jpg,Images/Speaker3.jpg,Images/Speaker4.jpg,Audio/Speaker1_Per/P1-17-Per.wav,Speaker1,گوینده ۱,0,0,0,29,0,13,13,16,69.77224504199694,,,,,,,,,,,,,,,,,,,,,,,,,,,,,,,,,,,,,,,,,,,,,,,,,,,,,,69.74827620799624,69.77224504199694,69.77224504199694,69.77224504199694,69.77224504199694,69.78119545833081,69.77224504199694,69.77224504199694,69.77224504199694,69.90747770799499,صحیح است,4,14,1,0.12326912499702303,None,69.91129158299736,69.92175683299865,71.93200029199943,71.9062206669987,71.9062297499986,71.90637558299932,350772,001,2024-08-02_14h47.46.374,5-34 ready-monolingual persian speaker,2024.1.5,None,2024-08-02 14h47.52.821321 +0900,
Images/Speaker1.jpg,Images/Speaker2.jpg,Images/Speaker3.jpg,Images/Speaker4.jpg,Audio/Speaker4_Per/P4-13-Per.wav,Speaker4,گوینده۴,0,0,0,29,0,14,14,72,71.93200029199943,,,,,,,,,,,,,,,,,,,,,,,,,,,,,,,,,,,,,,,,,,,,,,,,,,,,,,71.90656462499464,71.93200029199943,71.93200029199943,71.93200029199943,71.93200029199943,71.93936320833066,71.93200029199943,71.93200029199943,71.93200029199943,72.14744433299347,نادرست! پاسخ صحیح گوینده۴ است,4,15,1,0.21127404200524325,None,72.15157512499718,72.1629839169982,,74.156335707994,74.15634420799324,74.15654854199965,350772,001,2024-08-02_14h47.46.374,5-34 ready-monolingual persian speaker,2024.1.5,None,2024-08-02 14h47.52.821321 +0900,
Images/Speaker1.jpg,Images/Speaker2.jpg,Images/Speaker3.jpg,Images/Speaker4.jpg,Audio/Speaker4_Per/P4-4-Per.wav,Speaker4,گوینده۴,0,0,0,29,0,15,15,63,74.18183629199484,,,,,,,,,,,,,,,,,,,,,,,,,,,,,,,,,,,,,,,,,,,,,,,,,,,,,,74.1567130419935,74.18183629199484,74.18183629199484,74.18183629199484,74.18183629199484,74.18963175032744,74.18183629199484,74.18183629199484,74.18183629199484,74.37364124999294,نادرست! پاسخ صحیح گوینده۴ است,4,16,1,0.1849404169988702,None,74.37785683299444,74.38897312499466,,76.38107958299952,76.38110920799954,76.3817891669969,350772,001,2024-08-02_14h47.46.374,5-34 ready-monolingual persian speaker,2024.1.5,None,2024-08-02 14h47.52.821321 +0900,
Images/Speaker1.jpg,Images/Speaker2.jpg,Images/Speaker3.jpg,Images/Speaker4.jpg,Audio/Speaker3_Per/P3-14-Per.wav,Speaker3,گوینده۳,0,0,0,29,0,16,16,53,76.41072595799778,,,,,,,,,,,,,,,,,,,,,,,,,,,,,,,,,,,,,,,,,,,,,,,,,,,,,,76.38289320799959,76.41072595799778,76.41072595799778,76.41072595799778,76.41072595799778,76.41422245832703,76.41072595799778,76.41072595799778,76.41072595799778,76.60678641699633,نادرست! پاسخ صحیح گوینده۳ است,4,17,1,0.18966412499867147,None,76.61072837499523,76.62198608299514,78.6315610419988,78.60714558299514,78.60715454199817,78.6072947079956,350772,001,2024-08-02_14h47.46.374,5-34 ready-monolingual persian speaker,2024.1.5,None,2024-08-02 14h47.52.821321 +0900,
Images/Speaker1.jpg,Images/Speaker2.jpg,Images/Speaker3.jpg,Images/Speaker4.jpg,Audio/Speaker3_Per/P3-3-Per.wav,Speaker3,گوینده۳,0,0,0,29,0,17,17,42,78.6315610419988,,,,,,,,,,,,,,,,,,,,,,,,,,,,,,,,,,,,,,,,,,,,,,,,,,,,,,78.60747870799969,78.6315610419988,78.6315610419988,78.6315610419988,78.6315610419988,78.64022391632946,78.6315610419988,78.6315610419988,78.6315610419988,78.75692645799427,نادرست! پاسخ صحیح گوینده۳ است,4,18,1,0.11444962499808753,None,78.76070620799874,78.77189412499865,80.77892545799841,80.75454183299735,80.75455012499879,80.75471324999671,350772,001,2024-08-02_14h47.46.374,5-34 ready-monolingual persian speaker,2024.1.5,None,2024-08-02 14h47.52.821321 +0900,
Images/Speaker1.jpg,Images/Speaker2.jpg,Images/Speaker3.jpg,Images/Speaker4.jpg,Audio/Speaker4_Per/P4-9-Per.wav,Speaker4,گوینده۴,0,0,0,29,0,18,18,68,80.77892545799841,,,,,,,,,,,,,,,,,,,,,,,,,,,,,,,,,,,,,,,,,,,,,,,,,,,,,,80.7548944999944,80.77892545799841,80.77892545799841,80.77892545799841,80.77892545799841,80.78762262532885,80.77892545799841,80.77892545799841,80.77892545799841,80.9490642919991,نادرست! پاسخ صحیح گوینده۴ است,4,19,1,0.160439083003439,None,80.95290883299458,80.96410612499312,82.97438437499659,82.94923974999983,82.94926266699622,82.94942770799389,350772,001,2024-08-02_14h47.46.374,5-34 ready-monolingual persian speaker,2024.1.5,None,2024-08-02 14h47.52.821321 +0900,
Images/Speaker1.jpg,Images/Speaker2.jpg,Images/Speaker3.jpg,Images/Speaker4.jpg,Audio/Speaker1_Per/P1-15-Per.wav,Speaker1,گوینده ۱,0,0,0,29,0,19,19,14,82.97438437499659,,,,,,,,,,,,,,,,,,,,,,,,,,,,,,,,,,,,,,,,,,,,,,,,,,,,,,82.94962704199861,82.97438437499659,82.97438437499659,82.97438437499659,82.97438437499659,82.98194845832816,82.97438437499659,82.97438437499659,82.97438437499659,83.36463491699396,صحیح است,5,20,1,0.38903945799393114,None,83.3685121249946,83.37893641699338,85.39736541699676,85.3673362079935,85.36737362499844,85.36767208299716,350772,001,2024-08-02_14h47.46.374,5-34 ready-monolingual persian speaker,2024.1.5,None,2024-08-02 14h47.52.821321 +0900,
Images/Speaker1.jpg,Images/Speaker2.jpg,Images/Speaker3.jpg,Images/Speaker4.jpg,Audio/Speaker2_Per/P2-12-Per.wav,Speaker2,گوینده۲,0,0,0,29,0,20,20,31,85.39736541699676,,,,,,,,,,,,,,,,,,,,,,,,,,,,,,,,,,,,,,,,,,,,,,,,,,,,,,85.36865658299939,85.39736541699676,85.39736541699676,85.39736541699676,85.39736541699676,85.39981429132652,85.39736541699676,85.39736541699676,85.39736541699676,85.7006234579967,نادرست! پاسخ صحیح گوینده۲ است,5,21,1,0.30020362499635667,None,85.70451229199534,85.71620849999454,87.72888083299767,87.70150629199634,87.70155216699641,87.70187312499911,350772,001,2024-08-02_14h47.46.374,5-34 ready-monolingual persian speaker,2024.1.5,None,2024-08-02 14h47.52.821321 +0900,
Images/Speaker1.jpg,Images/Speaker2.jpg,Images/Speaker3.jpg,Images/Speaker4.jpg,Audio/Speaker3_Per/P3-10-Per.wav,Speaker3,گوینده۳,0,0,0,29,0,21,21,49,87.72888083299767,,,,,,,,,,,,,,,,,,,,,,,,,,,,,,,,,,,,,,,,,,,,,,,,,,,,,,87.70287037499656,87.72888083299767,87.72888083299767,87.72888083299767,87.72888083299767,87.73402212533304,87.72888083299767,87.72888083299767,87.72888083299767,87.76879958299833,نادرست! پاسخ صحیح گوینده۳ است,5,22,1,0.03421237500151619,None,87.77258633299789,87.78379695799958,,89.7780419999981,89.77806966699427,89.77878945799603,350772,001,2024-08-02_14h47.46.374,5-34 ready-monolingual persian speaker,2024.1.5,None,2024-08-02 14h47.52.821321 +0900,
Images/Speaker1.jpg,Images/Speaker2.jpg,Images/Speaker3.jpg,Images/Speaker4.jpg,Audio/Speaker3_Per/P3-2-Per.wav,Speaker3,گوینده۳,0,0,0,29,0,22,22,41,89.80789129199547,,,,,,,,,,,,,,,,,,,,,,,,,,,,,,,,,,,,,,,,,,,,,,,,,,,,,,89.77936787499493,89.80789129199547,89.80789129199547,89.80789129199547,89.80789129199547,89.81121729133204,89.80789129199547,89.80789129199547,89.80789129199547,89.9877457919938,نادرست! پاسخ صحیح گوینده۳ است,5,23,1,0.16993829200509936,None,89.99199858299835,90.00308799999766,92.01833087499836,91.98811029199715,91.98813920799876,91.98844987499615,350772,001,2024-08-02_14h47.46.374,5-34 ready-monolingual persian speaker,2024.1.5,None,2024-08-02 14h47.52.821321 +0900,
Images/Speaker1.jpg,Images/Speaker2.jpg,Images/Speaker3.jpg,Images/Speaker4.jpg,Audio/Speaker4_Per/P4-8-Per.wav,Speaker4,گوینده۴,0,0,0,29,0,23,23,67,92.01833087499836,,,,,,,,,,,,,,,,,,,,,,,,,,,,,,,,,,,,,,,,,,,,,,,,,,,,,,91.98937108299288,92.01833087499836,92.01833087499836,92.01833087499836,92.01833087499836,92.02055008333312,92.01833087499836,92.01833087499836,92.01833087499836,92.19777724999585,نادرست! پاسخ صحیح گوینده۴ است,5,24,1,0.17462766699463828,None,92.20169083299697,92.21291579199897,94.22472254199965,94.1999449579962,94.19995337499859,94.2001044169956,350772,001,2024-08-02_14h47.46.374,5-34 ready-monolingual persian speaker,2024.1.5,None,2024-08-02 14h47.52.821321 +0900,
Images/Speaker1.jpg,Images/Speaker2.jpg,Images/Speaker3.jpg,Images/Speaker4.jpg,Audio/Speaker1_Per/P1-6-Per.wav,Speaker1,گوینده ۱,0,0,0,29,0,24,24,5,94.22472254199965,,,,,,,,,,,,,,,,,,,,,,,,,,,,,,,,,,,,,,,,,,,,,,,,,,,,,,94.20030724999378,94.22472254199965,94.22472254199965,94.22472254199965,94.22472254199965,94.23298879132975,94.22472254199965,94.22472254199965,94.22472254199965,94.52354787499644,صحیح است,6,25,1,0.2979344159975881,None,94.52766612499545,94.53826224999648,96.54806770799769,96.52273804199649,96.52276095799607,96.52297008299502,350772,001,2024-08-02_14h47.46.374,5-34 ready-monolingual persian speaker,2024.1.5,None,2024-08-02 14h47.52.821321 +0900,
Images/Speaker1.jpg,Images/Speaker2.jpg,Images/Speaker3.jpg,Images/Speaker4.jpg,Audio/Speaker1_Per/P1-20-Per.wav,Speaker1,گوینده ۱,0,0,0,29,0,25,25,19,96.54806770799769,,,,,,,,,,,,,,,,,,,,,,,,,,,,,,,,,,,,,,,,,,,,,,,,,,,,,,96.523159999997,96.54806770799769,96.54806770799769,96.54806770799769,96.54806770799769,96.55564625033051,96.54806770799769,96.54806770799769,96.54806770799769,96.66625662499428,صحیح است,7,26,1,0.10791333299857797,None,96.67046129199298,96.68076791699423,98.68865149999328,98.66450016699673,98.66451083299762,98.66466324999783,350772,001,2024-08-02_14h47.46.374,5-34 ready-monolingual persian speaker,2024.1.5,None,2024-08-02 14h47.52.821321 +0900,
Images/Speaker1.jpg,Images/Speaker2.jpg,Images/Speaker3.jpg,Images/Speaker4.jpg,Audio/Speaker2_Per/P2-3-Per.wav,Speaker2,گوینده۲,0,0,0,29,0,26,26,22,98.68865149999328,,,,,,,,,,,,,,,,,,,,,,,,,,,,,,,,,,,,,,,,,,,,,,,,,,,,,,98.66483062499901,98.68865149999328,98.68865149999328,98.68865149999328,98.68865149999328,98.69761870832784,98.68865149999328,98.68865149999328,98.68865149999328,98.89783737499965,نادرست! پاسخ صحیح گوینده۲ است,7,27,1,0.19810245799453696,None,98.9016929999998,98.91004829199665,100.92439633299364,100.89844637499482,100.89845570799662,100.89858087499306,350772,001,2024-08-02_14h47.46.374,5-34 ready-monolingual persian speaker,2024.1.5,None,2024-08-02 14h47.52.821321 +0900,
Images/Speaker1.jpg,Images/Speaker2.jpg,Images/Speaker3.jpg,Images/Speaker4.jpg,Audio/Speaker4_Per/P4-6-Per.wav,Speaker4,گوینده۴,0,0,0,29,0,27,27,65,100.92439633299364,,,,,,,,,,,,,,,,,,,,,,,,,,,,,,,,,,,,,,,,,,,,,,,,,,,,,,100.8987338329971,100.92439633299364,100.92439633299364,100.92439633299364,100.92439633299364,100.93159725033232,100.92439633299364,100.92439633299364,100.92439633299364,101.13773987499735,نادرست! پاسخ صحیح گوینده۴ است,7,28,1,0.21213191600691061,None,101.14172329199937,101.15286879199994,103.1653648749998,103.14080504199956,103.14081449999503,103.1409581669941,350772,001,2024-08-02_14h47.46.374,5-34 ready-monolingual persian speaker,2024.1.5,None,2024-08-02 14h47.52.821321 +0900,
Images/Speaker1.jpg,Images/Speaker2.jpg,Images/Speaker3.jpg,Images/Speaker4.jpg,Audio/Speaker2_Per/P2-15-Per.wav,Speaker2,گوینده۲,0,0,0,29,0,28,28,34,103.1653648749998,,,,,,,,,,,,,,,,,,,,,,,,,,,,,,,,,,,,,,,,,,,,,,,,,,,,,,103.1411647079949,103.1653648749998,103.1653648749998,103.1653648749998,103.1653648749998,103.17392791633077,103.1653648749998,103.1653648749998,103.1653648749998,103.4259829579969,نادرست! پاسخ صحیح گوینده۲ است,7,29,1,0.2547079170035431,None,103.42988154199702,103.44078079199971,105.45255833299598,105.42515991699474,105.42519183299737,105.42547445799573,350772,001,2024-08-02_14h47.46.374,5-34 ready-monolingual persian speaker,2024.1.5,None,2024-08-02 14h47.52.821321 +0900,
Images/Speaker1.jpg,Images/Speaker2.jpg,Images/Speaker3.jpg,Images/Speaker4.jpg,Audio/Speaker4_Per/P4-2-Per.wav,Speaker4,گوینده۴,0,0,0,29,0,29,29,61,105.45255833299598,,,,,,,,,,,,,,,,,,,,,,,,,,,,,,,,,,,,,,,,,,,,,,,,,,,,,,105.42610770799365,105.45255833299598,105.45255833299598,105.45255833299598,105.45255833299598,105.4576433333282,105.45255833299598,105.45255833299598,105.45255833299598,105.49113404199306,نادرست! پاسخ صحیح گوینده۴ است,7,30,1,0.03280225000344217,None,105.49518995799735,105.50644958299381,107.51442987499468,107.49089666699729,107.49090599999909,107.49104887499561,350772,001,2024-08-02_14h47.46.374,5-34 ready-monolingual persian speaker,2024.1.5,None,2024-08-02 14h47.52.821321 +0900,
Images/Speaker1.jpg,Images/Speaker2.jpg,Images/Speaker3.jpg,Images/Speaker4.jpg,Audio/Speaker2_Per/P2-17-Per.wav,Speaker2,گوینده۲,0,0,0,29,0,30,30,36,107.51442987499468,,,,,,,,,,,,,,,,,,,,,,,,,,,,,,,,,,,,,,,,,,,,,,,,,,,,,,107.49124054199638,107.51442987499468,107.51442987499468,107.51442987499468,107.51442987499468,107.52404854133104,107.51442987499468,107.51442987499468,107.51442987499468,107.61580779199721,نادرست! پاسخ صحیح گوینده۲ است,7,31,1,0.09784508399752667,None,107.61957341699599,107.63068441699579,,109.62448924999626,109.62454141699709,109.62523912499455,350772,001,2024-08-02_14h47.46.374,5-34 ready-monolingual persian speaker,2024.1.5,None,2024-08-02 14h47.52.821321 +0900,
Images/Speaker1.jpg,Images/Speaker2.jpg,Images/Speaker3.jpg,Images/Speaker4.jpg,Audio/Speaker4_Per/P4-10-Per.wav,Speaker4,گوینده۴,0,0,0,29,0,31,31,69,109.6529942079942,,,,,,,,,,,,,,,,,,,,,,,,,,,,,,,,,,,,,,,,,,,,,,,,,,,,,,109.6258394999968,109.6529942079942,109.6529942079942,109.6529942079942,109.6529942079942,109.65764412532783,109.6529942079942,109.6529942079942,109.6529942079942,109.90573099999892,نادرست! پاسخ صحیح گوینده۴ است,7,32,1,0.25178233399492456,None,109.90987420799502,109.92127874999278,111.92944758299564,111.90396437499294,111.90397374999884,111.90411308299372,350772,001,2024-08-02_14h47.46.374,5-34 ready-monolingual persian speaker,2024.1.5,None,2024-08-02 14h47.52.821321 +0900,
Images/Speaker1.jpg,Images/Speaker2.jpg,Images/Speaker3.jpg,Images/Speaker4.jpg,Audio/Speaker4_Per/P4-11-Per.wav,Speaker4,گوینده۴,0,0,0,29,0,32,32,70,111.92944758299564,,,,,,,,,,,,,,,,,,,,,,,,,,,,,,,,,,,,,,,,,,,,,,,,,,,,,,111.90428145799524,111.92944758299564,111.92944758299564,111.92944758299564,111.92944758299564,111.93704716632831,111.92944758299564,111.92944758299564,111.92944758299564,112.16586537499825,نادرست! پاسخ صحیح گوینده۴ است,7,33,1,0.22968458399554947,None,112.16991520799638,112.18087779199413,,114.17392508299963,114.17395724999369,114.17639641699498,350772,001,2024-08-02_14h47.46.374,5-34 ready-monolingual persian speaker,2024.1.5,None,2024-08-02 14h47.52.821321 +0900,
Images/Speaker1.jpg,Images/Speaker2.jpg,Images/Speaker3.jpg,Images/Speaker4.jpg,Audio/Speaker3_Per/P3-16-Per.wav,Speaker3,گوینده۳,0,0,0,29,0,33,33,55,114.20436033299484,,,,,,,,,,,,,,,,,,,,,,,,,,,,,,,,,,,,,,,,,,,,,,,,,,,,,,114.17718658299418,114.20436033299484,114.20436033299484,114.20436033299484,114.20436033299484,114.20707829132928,114.20436033299484,114.20436033299484,114.20436033299484,114.59166679199552,نادرست! پاسخ صحیح گوینده۳ است,7,34,1,0.38485587499599205,None,114.59558849999303,114.6068902919942,,116.59979191699676,116.59980120799446,116.5999612079977,350772,001,2024-08-02_14h47.46.374,5-34 ready-monolingual persian speaker,2024.1.5,None,2024-08-02 14h47.52.821321 +0900,
Images/Speaker1.jpg,Images/Speaker2.jpg,Images/Speaker3.jpg,Images/Speaker4.jpg,Audio/Speaker1_Per/P1-5-Per.wav,Speaker1,گوینده ۱,0,0,0,29,0,34,34,4,116.62412058299378,,,,,,,,,,,,,,,,,,,,,,,,,,,,,,,,,,,,,,,,,,,,,,,,,,,,,,116.60013254199293,116.62412058299378,116.62412058299378,116.62412058299378,116.62412058299378,116.63309745833297,116.62412058299378,116.62412058299378,116.62412058299378,117.14022808299342,صحیح است,8,35,1,0.5069012500025565,None,117.14401449999423,117.15439324999898,119.17233179199684,119.14404187499895,119.14407579199906,119.14442137499282,350772,001,2024-08-02_14h47.46.374,5-34 ready-monolingual persian speaker,2024.1.5,None,2024-08-02 14h47.52.821321 +0900,
Images/Speaker1.jpg,Images/Speaker2.jpg,Images/Speaker3.jpg,Images/Speaker4.jpg,Audio/Speaker2_Per/P2-5-Per.wav,Speaker2,گوینده۲,0,0,0,29,0,35,35,24,119.17233179199684,,,,,,,,,,,,,,,,,,,,,,,,,,,,,,,,,,,,,,,,,,,,,,,,,,,,,,119.14538562499365,119.17233179199684,119.17233179199684,119.17233179199684,119.17233179199684,119.17649729133021,119.17233179199684,119.17233179199684,119.17233179199684,119.38599241699558,نادرست! پاسخ صحیح گوینده۲ است,8,36,1,0.20870404199376935,None,119.39025583299372,119.40126008299558,,121.39609995799401,121.3961088329961,121.39631283299968,350772,001,2024-08-02_14h47.46.374,5-34 ready-monolingual persian speaker,2024.1.5,None,2024-08-02 14h47.52.821321 +0900,
Images/Speaker1.jpg,Images/Speaker2.jpg,Images/Speaker3.jpg,Images/Speaker4.jpg,Audio/Speaker2_Per/P2-6-Per.wav,Speaker2,گوینده۲,0,0,0,29,0,36,36,25,121.41979849999916,,,,,,,,,,,,,,,,,,,,,,,,,,,,,,,,,,,,,,,,,,,,,,,,,,,,,,121.39647329199943,121.41979849999916,121.41979849999916,121.41979849999916,121.41979849999916,121.4294007083304,121.41979849999916,121.41979849999916,121.41979849999916,121.63457245799509,نادرست! پاسخ صحیح گوینده۲ است,8,37,1,0.20967737499449868,None,121.63868633299717,121.64999649999663,123.66059991699876,123.63506091699674,123.63508491699758,123.63521683299768,350772,001,2024-08-02_14h47.46.374,5-34 ready-monolingual persian speaker,2024.1.5,None,2024-08-02 14h47.52.821321 +0900,
Images/Speaker1.jpg,Images/Speaker2.jpg,Images/Speaker3.jpg,Images/Speaker4.jpg,Audio/Speaker3_Per/P3-9-Per.wav,Speaker3,گوینده۳,0,0,0,29,0,37,37,48,123.66059991699876,,,,,,,,,,,,,,,,,,,,,,,,,,,,,,,,,,,,,,,,,,,,,,,,,,,,,,123.63539941699855,123.66059991699876,123.66059991699876,123.66059991699876,123.66059991699876,123.66816750032788,123.66059991699876,123.66059991699876,123.66059991699876,123.77927754199482,نادرست! پاسخ صحیح گوینده۳ است,8,38,1,0.10799720799695933,None,123.7833937079995,123.79431270799978,,125.78987091699673,125.78988324999955,125.79004099999293,350772,001,2024-08-02_14h47.46.374,5-34 ready-monolingual persian speaker,2024.1.5,None,2024-08-02 14h47.52.821321 +0900,
Images/Speaker1.jpg,Images/Speaker2.jpg,Images/Speaker3.jpg,Images/Speaker4.jpg,Audio/Speaker2_Per/P2-1-Per.wav,Speaker2,گوینده۲,0,0,0,29,0,38,38,20,125.81324041699554,,,,,,,,,,,,,,,,,,,,,,,,,,,,,,,,,,,,,,,,,,,,,,,,,,,,,,125.79023424999468,125.81324041699554,125.81324041699554,125.81324041699554,125.81324041699554,125.82316900033086,125.81324041699554,125.81324041699554,125.81324041699554,126.06669420799881,نادرست! پاسخ صحیح گوینده۲ است,8,39,1,0.2468871669989312,None,126.07062187499832,126.07952858299541,128.0943152079999,128.06373112499568,128.0637652919977,128.06409112499387,350772,001,2024-08-02_14h47.46.374,5-34 ready-monolingual persian speaker,2024.1.5,None,2024-08-02 14h47.52.821321 +0900,
Images/Speaker1.jpg,Images/Speaker2.jpg,Images/Speaker3.jpg,Images/Speaker4.jpg,Audio/Speaker2_Per/P2-14-Per.wav,Speaker2,گوینده۲,0,0,0,29,0,39,39,33,128.0943152079999,,,,,,,,,,,,,,,,,,,,,,,,,,,,,,,,,,,,,,,,,,,,,,,,,,,,,,128.06503349999548,128.0943152079999,128.0943152079999,128.0943152079999,128.0943152079999,128.09623995833005,128.0943152079999,128.0943152079999,128.0943152079999,128.26304033299675,نادرست! پاسخ صحیح گوینده۲ است,8,40,1,0.16434845799813047,None,128.266879625,128.277911666999,,130.26744083299855,130.26746862499567,130.36787083299714,350772,001,2024-08-02_14h47.46.374,5-34 ready-monolingual persian speaker,2024.1.5,None,2024-08-02 14h47.52.821321 +0900,
Images/Speaker1.jpg,Images/Speaker2.jpg,Images/Speaker3.jpg,Images/Speaker4.jpg,Audio/Speaker2_Per/P2-7-Per.wav,Speaker2,گوینده۲,0,0,0,29,0,40,40,26,130.39341454199894,,,,,,,,,,,,,,,,,,,,,,,,,,,,,,,,,,,,,,,,,,,,,,,,,,,,,,130.36811766699975,130.39341454199894,130.39341454199894,130.39341454199894,130.39341454199894,130.38401674966542,130.39341454199894,130.39341454199894,130.39341454199894,130.38282758299465,نادرست! پاسخ صحیح گوینده۲ است,8,40,None,,,130.3864285419986,130.39341454199894,132.4003639579969,132.37658724999346,132.37659654199524,132.3767404579994,350772,001,2024-08-02_14h47.46.374,5-34 ready-monolingual persian speaker,2024.1.5,None,2024-08-02 14h47.52.821321 +0900,
Images/Speaker1.jpg,Images/Speaker2.jpg,Images/Speaker3.jpg,Images/Speaker4.jpg,Audio/Speaker3_Per/P3-18-Per.wav,Speaker3,گوینده۳,0,0,0,29,0,41,41,57,132.4003639579969,,,,,,,,,,,,,,,,,,,,,,,,,,,,,,,,,,,,,,,,,,,,,,,,,,,,,,132.37691937499767,132.4003639579969,132.4003639579969,132.4003639579969,132.4003639579969,132.40972987532638,132.4003639579969,132.4003639579969,132.4003639579969,139.69323645799886,نادرست! پاسخ صحیح گوینده۳ است,8,41,1,7.290242540999316,None,139.69343924999703,139.70521562499925,,141.6960298329941,141.6960662499987,141.6967872919995,350772,001,2024-08-02_14h47.46.374,5-34 ready-monolingual persian speaker,2024.1.5,None,2024-08-02 14h47.52.821321 +0900,
Images/Speaker1.jpg,Images/Speaker2.jpg,Images/Speaker3.jpg,Images/Speaker4.jpg,Audio/Speaker2_Per/P2-8-Per.wav,Speaker2,گوینده۲,0,0,0,29,0,42,42,27,141.72261945799983,,,,,,,,,,,,,,,,,,,,,,,,,,,,,,,,,,,,,,,,,,,,,,,,,,,,,,141.69768262499565,141.72261945799983,141.72261945799983,141.72261945799983,141.72261945799983,141.72912495832912,141.72261945799983,141.72261945799983,141.72261945799983,143.0771134999959,نادرست! پاسخ صحیح گوینده۲ است,8,42,1,1.3497626669995952,None,143.08137870799692,143.09246474999964,,145.08698674999323,145.0870251669985,145.08766308299528,350772,001,2024-08-02_14h47.46.374,5-34 ready-monolingual persian speaker,2024.1.5,None,2024-08-02 14h47.52.821321 +0900,
,,,,,,,,,,,,,,,145.11525341699598,,,,,,,,,,,,,,,,,,,,,,,,,,,,,,,,,,,,,,,,,,,,,,,,,,,,,,145.08826691699505,145.11525341699598,145.11525341699598,145.11525341699598,145.11525341699598,145.12012220833327,145.11525341699598,145.11525341699598,145.11525341699598,,,,,,,,,,,,,,,,,,,,,
