SpeakerImage1,SpeakerImage2,SpeakerImage3,SpeakerImage4,TrainingSound,EnglishCorrectAnswer,PersianCorrectAnswer,repeated_TrainingloopGroup1.thisRepN,repeated_TrainingloopGroup1.thisTrialN,repeated_TrainingloopGroup1.thisN,repeated_TrainingloopGroup1.thisIndex,TrainingLoopGroup1.thisRepN,TrainingLoopGroup1.thisTrialN,TrainingLoopGroup1.thisN,TrainingLoopGroup1.thisIndex,thisRow.t,notes,trial.started,trial.stopped,GroupSelection.started,GroupInstructions.started,key_resp.started,GroupSelection.stopped,key_resp.keys,key_resp.rt,key_resp.duration,Introduction.started,text_2.started,image.started,sound_7.started,text_4.started,text_2.stopped,sound_8.started,image.stopped,text_4.stopped,image_7.started,sound_9.started,text_5.started,sound_10.started,image_7.stopped,text_5.stopped,image_8.started,sound_11.started,text_6.started,sound_12.started,image_8.stopped,text_6.stopped,image_9.started,sound_13.started,text_7.started,sound_14.started,image_9.stopped,text_7.stopped,Introduction.stopped,Instructions.started,InstructionText.started,InstructionText.stopped,Instructions.stopped,InitializeExperiment.started,InitializeExperiment.stopped,CheckAccuracy1.started,accuracy_group1,proceed_to_test,CheckAccuracy1.stopped,participant,session,date,expName,psychopyVersion,frameRate,expStart,
,,,,,,,,,,,,,,,,,0.009928208999554045,0.010258292000798974,,,,,,,,,,,,,,,,,,,,,,,,,,,,,,,,,,,,,,,,,,,,,,376289,001,2024-07-03_14h06.03.681,5-all in one,2024.1.4,None,2024-07-03 14h06.08.833906 +0900,
,,,,,,,,,,,,,,,,,,,0.010273416999552865,0.014662584000689094,0.014662584000689094,1.752322374999494,3,1.6995406669993827,None,,,,,,,,,,,,,,,,,,,,,,,,,,,,,,,,,,,,,,,376289,001,2024-07-03_14h06.03.681,5-all in one,2024.1.4,None,2024-07-03 14h06.08.833906 +0900,
,,,,,,,,,,,,,,,,,,,,,,,,,,1.7523539169997093,1.8074955840002076,6.754053667000335,6.7605440416666776,6.754053667000335,6.796898124999643,11.762401750666202,16.75103458400008,16.75103458400008,16.75103458400008,16.75587266666686,16.75103458400008,21.761857583666156,26.74868833400069,26.74868833400069,26.74868833400069,26.760308291666902,26.74868833400069,31.75178883366631,36.74154058400018,36.74154058400018,36.74154058400018,36.75156587566768,36.74154058400018,41.762644208665975,46.737850292000076,46.737850292000076,46.72491483399972,,,,,,,,,,,376289,001,2024-07-03_14h06.03.681,5-all in one,2024.1.4,None,2024-07-03 14h06.08.833906 +0900,
,,,,,,,,,,,,,,,,,,,,,,,,,,,,,,,,,,,,,,,,,,,,,,,,,,,,,,46.724967166999704,46.74428208400059,89.16901645899998,47.72851199999968,,,,,,,376289,001,2024-07-03_14h06.03.681,5-all in one,2024.1.4,None,2024-07-03 14h06.08.833906 +0900,
,,,,,,,,,,,,,,,,,,,,,,,,,,,,,,,,,,,,,,,,,,,,,,,,,,,,,,,,,,47.72854508400087,47.728903084000194,,,,,376289,001,2024-07-03_14h06.03.681,5-all in one,2024.1.4,None,2024-07-03 14h06.08.833906 +0900,
Images/Speaker1.jpg,Images/Speaker2.jpg,Images/Speaker3.jpg,Images/Speaker4.jpg,Audio/Speaker4_Per/P4-18-Per.wav,Speaker4,گوینده۴,0,0,0,77,,,,,89.16901645899998,,,,,,,,,,,,,,,,,,,,,,,,,,,,,,,,,,,,,,,,,,,,,47.78331408399936,0.0,False,47.78368950000004,376289,001,2024-07-03_14h06.03.681,5-all in one,2024.1.4,None,2024-07-03 14h06.08.833906 +0900,
Images/Speaker1.jpg,Images/Speaker2.jpg,Images/Speaker3.jpg,Images/Speaker4.jpg,Audio/Speaker2_Per/P2-18-Per.wav,Speaker2,گوینده۲,0,1,1,37,,,,,89.16901645899998,,,,,,,,,,,,,,,,,,,,,,,,,,,,,,,,,,,,,,,,,,,,,47.80202541700055,0.0,False,47.80227045900028,376289,001,2024-07-03_14h06.03.681,5-all in one,2024.1.4,None,2024-07-03 14h06.08.833906 +0900,
Images/Speaker1.jpg,Images/Speaker2.jpg,Images/Speaker3.jpg,Images/Speaker4.jpg,Audio/Speaker4_Per/P4-2-Per.wav,Speaker4,گوینده۴,0,2,2,61,,,,,89.16901645899998,,,,,,,,,,,,,,,,,,,,,,,,,,,,,,,,,,,,,,,,,,,,,47.81987508400016,0.0,False,47.82014325000091,376289,001,2024-07-03_14h06.03.681,5-all in one,2024.1.4,None,2024-07-03 14h06.08.833906 +0900,
Images/Speaker1.jpg,Images/Speaker2.jpg,Images/Speaker3.jpg,Images/Speaker4.jpg,Audio/Speaker1_Per/P1-13-Per.wav,Speaker1,گوینده ۱,0,3,3,12,,,,,89.16901645899998,,,,,,,,,,,,,,,,,,,,,,,,,,,,,,,,,,,,,,,,,,,,,47.83693695900001,0.0,False,47.837164583999765,376289,001,2024-07-03_14h06.03.681,5-all in one,2024.1.4,None,2024-07-03 14h06.08.833906 +0900,
Images/Speaker1.jpg,Images/Speaker2.jpg,Images/Speaker3.jpg,Images/Speaker4.jpg,Audio/Speaker2_Per/P2-17-Per.wav,Speaker2,گوینده۲,0,4,4,36,,,,,89.16901645899998,,,,,,,,,,,,,,,,,,,,,,,,,,,,,,,,,,,,,,,,,,,,,47.85294541700023,0.0,False,47.85317316700093,376289,001,2024-07-03_14h06.03.681,5-all in one,2024.1.4,None,2024-07-03 14h06.08.833906 +0900,
Images/Speaker1.jpg,Images/Speaker2.jpg,Images/Speaker3.jpg,Images/Speaker4.jpg,Audio/Speaker2_Per/P2-8-Per.wav,Speaker2,گوینده۲,0,5,5,27,,,,,89.16901645899998,,,,,,,,,,,,,,,,,,,,,,,,,,,,,,,,,,,,,,,,,,,,,47.869000167000195,0.0,False,47.86921174999952,376289,001,2024-07-03_14h06.03.681,5-all in one,2024.1.4,None,2024-07-03 14h06.08.833906 +0900,
Images/Speaker1.jpg,Images/Speaker2.jpg,Images/Speaker3.jpg,Images/Speaker4.jpg,Audio/Speaker1_Per/P1-18-Per.wav,Speaker1,گوینده ۱,0,6,6,17,,,,,89.16901645899998,,,,,,,,,,,,,,,,,,,,,,,,,,,,,,,,,,,,,,,,,,,,,47.885136584000065,0.0,False,47.885348792000514,376289,001,2024-07-03_14h06.03.681,5-all in one,2024.1.4,None,2024-07-03 14h06.08.833906 +0900,
Images/Speaker1.jpg,Images/Speaker2.jpg,Images/Speaker3.jpg,Images/Speaker4.jpg,Audio/Speaker4_Per/P4-12-Per.wav,Speaker4,گوینده۴,0,7,7,71,,,,,89.16901645899998,,,,,,,,,,,,,,,,,,,,,,,,,,,,,,,,,,,,,,,,,,,,,47.90144333399985,0.0,False,47.901652167000066,376289,001,2024-07-03_14h06.03.681,5-all in one,2024.1.4,None,2024-07-03 14h06.08.833906 +0900,
Images/Speaker1.jpg,Images/Speaker2.jpg,Images/Speaker3.jpg,Images/Speaker4.jpg,Audio/Speaker1_Per/P1-5-Per.wav,Speaker1,گوینده ۱,0,8,8,4,,,,,89.16901645899998,,,,,,,,,,,,,,,,,,,,,,,,,,,,,,,,,,,,,,,,,,,,,47.91738820899991,0.0,False,47.91763858400009,376289,001,2024-07-03_14h06.03.681,5-all in one,2024.1.4,None,2024-07-03 14h06.08.833906 +0900,
Images/Speaker1.jpg,Images/Speaker2.jpg,Images/Speaker3.jpg,Images/Speaker4.jpg,Audio/Speaker1_Per/P1-1-Per.wav,Speaker1,گوینده ۱,0,9,9,0,,,,,89.16901645899998,,,,,,,,,,,,,,,,,,,,,,,,,,,,,,,,,,,,,,,,,,,,,47.933321624999735,0.0,False,47.933519250000245,376289,001,2024-07-03_14h06.03.681,5-all in one,2024.1.4,None,2024-07-03 14h06.08.833906 +0900,
Images/Speaker1.jpg,Images/Speaker2.jpg,Images/Speaker3.jpg,Images/Speaker4.jpg,Audio/Speaker1_Per/P1-4-Per.wav,Speaker1,گوینده ۱,0,10,10,13,,,,,89.16901645899998,,,,,,,,,,,,,,,,,,,,,,,,,,,,,,,,,,,,,,,,,,,,,47.94908345899967,0.0,False,47.94930437500079,376289,001,2024-07-03_14h06.03.681,5-all in one,2024.1.4,None,2024-07-03 14h06.08.833906 +0900,
Images/Speaker1.jpg,Images/Speaker2.jpg,Images/Speaker3.jpg,Images/Speaker4.jpg,Audio/Speaker3_Per/P3-8-Per.wav,Speaker3,گوینده۳,0,11,11,47,,,,,89.16901645899998,,,,,,,,,,,,,,,,,,,,,,,,,,,,,,,,,,,,,,,,,,,,,47.965397375000975,0.0,False,47.96560079200026,376289,001,2024-07-03_14h06.03.681,5-all in one,2024.1.4,None,2024-07-03 14h06.08.833906 +0900,
Images/Speaker1.jpg,Images/Speaker2.jpg,Images/Speaker3.jpg,Images/Speaker4.jpg,Audio/Speaker4_Per/P4-16-Per.wav,Speaker4,گوینده۴,0,12,12,75,,,,,89.16901645899998,,,,,,,,,,,,,,,,,,,,,,,,,,,,,,,,,,,,,,,,,,,,,47.98133349999989,0.0,False,47.98152800000025,376289,001,2024-07-03_14h06.03.681,5-all in one,2024.1.4,None,2024-07-03 14h06.08.833906 +0900,
Images/Speaker1.jpg,Images/Speaker2.jpg,Images/Speaker3.jpg,Images/Speaker4.jpg,Audio/Speaker4_Per/P4-7-Per.wav,Speaker4,گوینده۴,0,13,13,66,,,,,89.16901645899998,,,,,,,,,,,,,,,,,,,,,,,,,,,,,,,,,,,,,,,,,,,,,47.997043125000346,0.0,False,47.997276666999824,376289,001,2024-07-03_14h06.03.681,5-all in one,2024.1.4,None,2024-07-03 14h06.08.833906 +0900,
Images/Speaker1.jpg,Images/Speaker2.jpg,Images/Speaker3.jpg,Images/Speaker4.jpg,Audio/Speaker3_Per/P3-18-Per.wav,Speaker3,گوینده۳,0,14,14,57,,,,,89.16901645899998,,,,,,,,,,,,,,,,,,,,,,,,,,,,,,,,,,,,,,,,,,,,,48.01288645900058,0.0,False,48.01312400000097,376289,001,2024-07-03_14h06.03.681,5-all in one,2024.1.4,None,2024-07-03 14h06.08.833906 +0900,
Images/Speaker1.jpg,Images/Speaker2.jpg,Images/Speaker3.jpg,Images/Speaker4.jpg,Audio/Speaker4_Per/P4-8-Per.wav,Speaker4,گوینده۴,0,15,15,67,,,,,89.16901645899998,,,,,,,,,,,,,,,,,,,,,,,,,,,,,,,,,,,,,,,,,,,,,48.02914295899973,0.0,False,48.02932508400045,376289,001,2024-07-03_14h06.03.681,5-all in one,2024.1.4,None,2024-07-03 14h06.08.833906 +0900,
Images/Speaker1.jpg,Images/Speaker2.jpg,Images/Speaker3.jpg,Images/Speaker4.jpg,Audio/Speaker2_Per/P2-7-Per.wav,Speaker2,گوینده۲,0,16,16,26,,,,,89.16901645899998,,,,,,,,,,,,,,,,,,,,,,,,,,,,,,,,,,,,,,,,,,,,,48.04499575000045,0.0,False,48.0452399170008,376289,001,2024-07-03_14h06.03.681,5-all in one,2024.1.4,None,2024-07-03 14h06.08.833906 +0900,
Images/Speaker1.jpg,Images/Speaker2.jpg,Images/Speaker3.jpg,Images/Speaker4.jpg,Audio/Speaker3_Per/P3-14-Per.wav,Speaker3,گوینده۳,0,17,17,53,,,,,89.16901645899998,,,,,,,,,,,,,,,,,,,,,,,,,,,,,,,,,,,,,,,,,,,,,48.06135741700018,0.0,False,48.061525000000984,376289,001,2024-07-03_14h06.03.681,5-all in one,2024.1.4,None,2024-07-03 14h06.08.833906 +0900,
Images/Speaker1.jpg,Images/Speaker2.jpg,Images/Speaker3.jpg,Images/Speaker4.jpg,Audio/Speaker1_Per/P1-17-Per.wav,Speaker1,گوینده ۱,0,18,18,16,,,,,89.16901645899998,,,,,,,,,,,,,,,,,,,,,,,,,,,,,,,,,,,,,,,,,,,,,48.077043249999406,0.0,False,48.077275584000745,376289,001,2024-07-03_14h06.03.681,5-all in one,2024.1.4,None,2024-07-03 14h06.08.833906 +0900,
Images/Speaker1.jpg,Images/Speaker2.jpg,Images/Speaker3.jpg,Images/Speaker4.jpg,Audio/Speaker2_Per/P2-1-Per.wav,Speaker2,گوینده۲,0,19,19,20,,,,,89.16901645899998,,,,,,,,,,,,,,,,,,,,,,,,,,,,,,,,,,,,,,,,,,,,,48.09335812500103,0.0,False,48.093549958999574,376289,001,2024-07-03_14h06.03.681,5-all in one,2024.1.4,None,2024-07-03 14h06.08.833906 +0900,
Images/Speaker1.jpg,Images/Speaker2.jpg,Images/Speaker3.jpg,Images/Speaker4.jpg,Audio/Speaker1_Per/P1-15-Per.wav,Speaker1,گوینده ۱,0,20,20,14,,,,,89.16901645899998,,,,,,,,,,,,,,,,,,,,,,,,,,,,,,,,,,,,,,,,,,,,,48.10919087500042,0.0,False,48.10938449999958,376289,001,2024-07-03_14h06.03.681,5-all in one,2024.1.4,None,2024-07-03 14h06.08.833906 +0900,
Images/Speaker1.jpg,Images/Speaker2.jpg,Images/Speaker3.jpg,Images/Speaker4.jpg,Audio/Speaker2_Per/P2-6-Per.wav,Speaker2,گوینده۲,0,21,21,25,,,,,89.16901645899998,,,,,,,,,,,,,,,,,,,,,,,,,,,,,,,,,,,,,,,,,,,,,48.12495683400084,0.0,False,48.125166375000845,376289,001,2024-07-03_14h06.03.681,5-all in one,2024.1.4,None,2024-07-03 14h06.08.833906 +0900,
Images/Speaker1.jpg,Images/Speaker2.jpg,Images/Speaker3.jpg,Images/Speaker4.jpg,Audio/Speaker4_Per/P4-15-Per.wav,Speaker4,گوینده۴,0,22,22,74,,,,,89.16901645899998,,,,,,,,,,,,,,,,,,,,,,,,,,,,,,,,,,,,,,,,,,,,,48.141116083999805,0.0,False,48.14132987499943,376289,001,2024-07-03_14h06.03.681,5-all in one,2024.1.4,None,2024-07-03 14h06.08.833906 +0900,
Images/Speaker1.jpg,Images/Speaker2.jpg,Images/Speaker3.jpg,Images/Speaker4.jpg,Audio/Speaker1_Per/P1-3-Per.wav,Speaker1,گوینده ۱,0,23,23,2,,,,,89.16901645899998,,,,,,,,,,,,,,,,,,,,,,,,,,,,,,,,,,,,,,,,,,,,,48.15762341700065,0.0,False,48.157814292000694,376289,001,2024-07-03_14h06.03.681,5-all in one,2024.1.4,None,2024-07-03 14h06.08.833906 +0900,
Images/Speaker1.jpg,Images/Speaker2.jpg,Images/Speaker3.jpg,Images/Speaker4.jpg,Audio/Speaker4_Per/P4-14-Per.wav,Speaker4,گوینده۴,0,24,24,73,,,,,89.16901645899998,,,,,,,,,,,,,,,,,,,,,,,,,,,,,,,,,,,,,,,,,,,,,48.17371295900011,0.0,False,48.17391900000075,376289,001,2024-07-03_14h06.03.681,5-all in one,2024.1.4,None,2024-07-03 14h06.08.833906 +0900,
Images/Speaker1.jpg,Images/Speaker2.jpg,Images/Speaker3.jpg,Images/Speaker4.jpg,Audio/Speaker1_Per/P1-7-Per.wav,Speaker1,گوینده ۱,0,25,25,6,,,,,89.16901645899998,,,,,,,,,,,,,,,,,,,,,,,,,,,,,,,,,,,,,,,,,,,,,48.18948916699992,0.0,False,48.18968350000068,376289,001,2024-07-03_14h06.03.681,5-all in one,2024.1.4,None,2024-07-03 14h06.08.833906 +0900,
Images/Speaker1.jpg,Images/Speaker2.jpg,Images/Speaker3.jpg,Images/Speaker4.jpg,Audio/Speaker4_Per/P4-6-Per.wav,Speaker4,گوینده۴,0,26,26,65,,,,,89.16901645899998,,,,,,,,,,,,,,,,,,,,,,,,,,,,,,,,,,,,,,,,,,,,,48.205478666999625,0.0,False,48.20570583399967,376289,001,2024-07-03_14h06.03.681,5-all in one,2024.1.4,None,2024-07-03 14h06.08.833906 +0900,
Images/Speaker1.jpg,Images/Speaker2.jpg,Images/Speaker3.jpg,Images/Speaker4.jpg,Audio/Speaker2_Per/P2-12-Per.wav,Speaker2,گوینده۲,0,27,27,31,,,,,89.16901645899998,,,,,,,,,,,,,,,,,,,,,,,,,,,,,,,,,,,,,,,,,,,,,48.22176700000091,0.0,False,48.22197458399933,376289,001,2024-07-03_14h06.03.681,5-all in one,2024.1.4,None,2024-07-03 14h06.08.833906 +0900,
Images/Speaker1.jpg,Images/Speaker2.jpg,Images/Speaker3.jpg,Images/Speaker4.jpg,Audio/Speaker2_Per/P2-10-Per.wav,Speaker2,گوینده۲,0,28,28,29,,,,,89.16901645899998,,,,,,,,,,,,,,,,,,,,,,,,,,,,,,,,,,,,,,,,,,,,,48.23777533400062,0.0,False,48.23797562499931,376289,001,2024-07-03_14h06.03.681,5-all in one,2024.1.4,None,2024-07-03 14h06.08.833906 +0900,
Images/Speaker1.jpg,Images/Speaker2.jpg,Images/Speaker3.jpg,Images/Speaker4.jpg,Audio/Speaker4_Per/P4-1-Per.wav,Speaker4,گوینده۴,0,29,29,60,,,,,89.16901645899998,,,,,,,,,,,,,,,,,,,,,,,,,,,,,,,,,,,,,,,,,,,,,48.25348741699963,0.0,False,48.253708374999405,376289,001,2024-07-03_14h06.03.681,5-all in one,2024.1.4,None,2024-07-03 14h06.08.833906 +0900,
Images/Speaker1.jpg,Images/Speaker2.jpg,Images/Speaker3.jpg,Images/Speaker4.jpg,Audio/Speaker3_Per/P3-10-Per.wav,Speaker3,گوینده۳,0,30,30,49,,,,,89.16901645899998,,,,,,,,,,,,,,,,,,,,,,,,,,,,,,,,,,,,,,,,,,,,,48.26928333400065,0.0,False,48.26945875000092,376289,001,2024-07-03_14h06.03.681,5-all in one,2024.1.4,None,2024-07-03 14h06.08.833906 +0900,
Images/Speaker1.jpg,Images/Speaker2.jpg,Images/Speaker3.jpg,Images/Speaker4.jpg,Audio/Speaker3_Per/P3-11-Per.wav,Speaker3,گوینده۳,0,31,31,50,,,,,89.16901645899998,,,,,,,,,,,,,,,,,,,,,,,,,,,,,,,,,,,,,,,,,,,,,48.28552275000038,0.0,False,48.28570783400028,376289,001,2024-07-03_14h06.03.681,5-all in one,2024.1.4,None,2024-07-03 14h06.08.833906 +0900,
Images/Speaker1.jpg,Images/Speaker2.jpg,Images/Speaker3.jpg,Images/Speaker4.jpg,Audio/Speaker2_Per/P2-2-Per.wav,Speaker2,گوینده۲,0,32,32,21,,,,,89.16901645899998,,,,,,,,,,,,,,,,,,,,,,,,,,,,,,,,,,,,,,,,,,,,,48.30136662500081,0.0,False,48.30158941700029,376289,001,2024-07-03_14h06.03.681,5-all in one,2024.1.4,None,2024-07-03 14h06.08.833906 +0900,
Images/Speaker1.jpg,Images/Speaker2.jpg,Images/Speaker3.jpg,Images/Speaker4.jpg,Audio/Speaker4_Per/P4-17-Per.wav,Speaker4,گوینده۴,0,33,33,76,,,,,89.16901645899998,,,,,,,,,,,,,,,,,,,,,,,,,,,,,,,,,,,,,,,,,,,,,48.317170209000324,0.0,False,48.31742537500031,376289,001,2024-07-03_14h06.03.681,5-all in one,2024.1.4,None,2024-07-03 14h06.08.833906 +0900,
Images/Speaker1.jpg,Images/Speaker2.jpg,Images/Speaker3.jpg,Images/Speaker4.jpg,Audio/Speaker3_Per/P3-7-Per.wav,Speaker3,گوینده۳,0,34,34,46,,,,,89.16901645899998,,,,,,,,,,,,,,,,,,,,,,,,,,,,,,,,,,,,,,,,,,,,,48.33297829200092,0.0,False,48.33315191700058,376289,001,2024-07-03_14h06.03.681,5-all in one,2024.1.4,None,2024-07-03 14h06.08.833906 +0900,
Images/Speaker1.jpg,Images/Speaker2.jpg,Images/Speaker3.jpg,Images/Speaker4.jpg,Audio/Speaker1_Per/P1-16-Per.wav,Speaker1,گوینده ۱,0,35,35,15,,,,,89.16901645899998,,,,,,,,,,,,,,,,,,,,,,,,,,,,,,,,,,,,,,,,,,,,,48.34917670899995,0.0,False,48.3493972920005,376289,001,2024-07-03_14h06.03.681,5-all in one,2024.1.4,None,2024-07-03 14h06.08.833906 +0900,
Images/Speaker1.jpg,Images/Speaker2.jpg,Images/Speaker3.jpg,Images/Speaker4.jpg,Audio/Speaker3_Per/P3-2-Per.wav,Speaker3,گوینده۳,0,36,36,41,,,,,89.16901645899998,,,,,,,,,,,,,,,,,,,,,,,,,,,,,,,,,,,,,,,,,,,,,48.365184166999825,0.0,False,48.36543241700019,376289,001,2024-07-03_14h06.03.681,5-all in one,2024.1.4,None,2024-07-03 14h06.08.833906 +0900,
Images/Speaker1.jpg,Images/Speaker2.jpg,Images/Speaker3.jpg,Images/Speaker4.jpg,Audio/Speaker2_Per/P2-9-Per.wav,Speaker2,گوینده۲,0,37,37,28,,,,,89.16901645899998,,,,,,,,,,,,,,,,,,,,,,,,,,,,,,,,,,,,,,,,,,,,,48.38104258400017,0.0,False,48.381258916999286,376289,001,2024-07-03_14h06.03.681,5-all in one,2024.1.4,None,2024-07-03 14h06.08.833906 +0900,
Images/Speaker1.jpg,Images/Speaker2.jpg,Images/Speaker3.jpg,Images/Speaker4.jpg,Audio/Speaker2_Per/P2-19-Per.wav,Speaker2,گوینده۲,0,38,38,38,,,,,89.16901645899998,,,,,,,,,,,,,,,,,,,,,,,,,,,,,,,,,,,,,,,,,,,,,48.39678025000103,0.0,False,48.39696333400025,376289,001,2024-07-03_14h06.03.681,5-all in one,2024.1.4,None,2024-07-03 14h06.08.833906 +0900,
Images/Speaker1.jpg,Images/Speaker2.jpg,Images/Speaker3.jpg,Images/Speaker4.jpg,Audio/Speaker2_Per/P2-15-Per.wav,Speaker2,گوینده۲,0,39,39,34,,,,,89.16901645899998,,,,,,,,,,,,,,,,,,,,,,,,,,,,,,,,,,,,,,,,,,,,,48.412943875000565,0.0,False,48.41320000000087,376289,001,2024-07-03_14h06.03.681,5-all in one,2024.1.4,None,2024-07-03 14h06.08.833906 +0900,
Images/Speaker1.jpg,Images/Speaker2.jpg,Images/Speaker3.jpg,Images/Speaker4.jpg,Audio/Speaker1_Per/P1-11-Per.wav,Speaker1,گوینده ۱,0,40,40,10,,,,,89.16901645899998,,,,,,,,,,,,,,,,,,,,,,,,,,,,,,,,,,,,,,,,,,,,,48.42885333400045,0.0,False,48.42906541699995,376289,001,2024-07-03_14h06.03.681,5-all in one,2024.1.4,None,2024-07-03 14h06.08.833906 +0900,
Images/Speaker1.jpg,Images/Speaker2.jpg,Images/Speaker3.jpg,Images/Speaker4.jpg,Audio/Speaker3_Per/P3-3-Per.wav,Speaker3,گوینده۳,0,41,41,42,,,,,89.16901645899998,,,,,,,,,,,,,,,,,,,,,,,,,,,,,,,,,,,,,,,,,,,,,48.444706292000774,0.0,False,48.44495004199962,376289,001,2024-07-03_14h06.03.681,5-all in one,2024.1.4,None,2024-07-03 14h06.08.833906 +0900,
Images/Speaker1.jpg,Images/Speaker2.jpg,Images/Speaker3.jpg,Images/Speaker4.jpg,Audio/Speaker3_Per/P3-17-Per.wav,Speaker3,گوینده۳,0,42,42,56,,,,,89.16901645899998,,,,,,,,,,,,,,,,,,,,,,,,,,,,,,,,,,,,,,,,,,,,,48.460499250000794,0.0,False,48.46070775000044,376289,001,2024-07-03_14h06.03.681,5-all in one,2024.1.4,None,2024-07-03 14h06.08.833906 +0900,
Images/Speaker1.jpg,Images/Speaker2.jpg,Images/Speaker3.jpg,Images/Speaker4.jpg,Audio/Speaker4_Per/P4-10-Per.wav,Speaker4,گوینده۴,0,43,43,69,,,,,89.16901645899998,,,,,,,,,,,,,,,,,,,,,,,,,,,,,,,,,,,,,,,,,,,,,48.47732137499952,0.0,False,48.47759224999936,376289,001,2024-07-03_14h06.03.681,5-all in one,2024.1.4,None,2024-07-03 14h06.08.833906 +0900,
Images/Speaker1.jpg,Images/Speaker2.jpg,Images/Speaker3.jpg,Images/Speaker4.jpg,Audio/Speaker2_Per/P2-14-Per.wav,Speaker2,گوینده۲,0,44,44,33,,,,,89.16901645899998,,,,,,,,,,,,,,,,,,,,,,,,,,,,,,,,,,,,,,,,,,,,,48.49425220900048,0.0,False,48.494479791999765,376289,001,2024-07-03_14h06.03.681,5-all in one,2024.1.4,None,2024-07-03 14h06.08.833906 +0900,
Images/Speaker1.jpg,Images/Speaker2.jpg,Images/Speaker3.jpg,Images/Speaker4.jpg,Audio/Speaker3_Per/P3-13-Per.wav,Speaker3,گوینده۳,0,45,45,52,,,,,89.16901645899998,,,,,,,,,,,,,,,,,,,,,,,,,,,,,,,,,,,,,,,,,,,,,48.51070287500079,0.0,False,48.51096337499985,376289,001,2024-07-03_14h06.03.681,5-all in one,2024.1.4,None,2024-07-03 14h06.08.833906 +0900,
Images/Speaker1.jpg,Images/Speaker2.jpg,Images/Speaker3.jpg,Images/Speaker4.jpg,Audio/Speaker1_Per/P1-6-Per.wav,Speaker1,گوینده ۱,0,46,46,5,,,,,89.16901645899998,,,,,,,,,,,,,,,,,,,,,,,,,,,,,,,,,,,,,,,,,,,,,48.52777945900016,0.0,False,48.528137625000454,376289,001,2024-07-03_14h06.03.681,5-all in one,2024.1.4,None,2024-07-03 14h06.08.833906 +0900,
Images/Speaker1.jpg,Images/Speaker2.jpg,Images/Speaker3.jpg,Images/Speaker4.jpg,Audio/Speaker4_Per/P4-20-Per.wav,Speaker4,گوینده۴,0,47,47,79,,,,,89.16901645899998,,,,,,,,,,,,,,,,,,,,,,,,,,,,,,,,,,,,,,,,,,,,,48.545018541999525,0.0,False,48.54532391700013,376289,001,2024-07-03_14h06.03.681,5-all in one,2024.1.4,None,2024-07-03 14h06.08.833906 +0900,
Images/Speaker1.jpg,Images/Speaker2.jpg,Images/Speaker3.jpg,Images/Speaker4.jpg,Audio/Speaker3_Per/P3-1-Per.wav,Speaker3,گوینده۳,0,48,48,40,,,,,89.16901645899998,,,,,,,,,,,,,,,,,,,,,,,,,,,,,,,,,,,,,,,,,,,,,48.56157170900042,0.0,False,48.56175841699951,376289,001,2024-07-03_14h06.03.681,5-all in one,2024.1.4,None,2024-07-03 14h06.08.833906 +0900,
Images/Speaker1.jpg,Images/Speaker2.jpg,Images/Speaker3.jpg,Images/Speaker4.jpg,Audio/Speaker4_Per/P4-9-Per.wav,Speaker4,گوینده۴,0,49,49,68,,,,,89.16901645899998,,,,,,,,,,,,,,,,,,,,,,,,,,,,,,,,,,,,,,,,,,,,,48.577377584000715,0.0,False,48.577583624999534,376289,001,2024-07-03_14h06.03.681,5-all in one,2024.1.4,None,2024-07-03 14h06.08.833906 +0900,
Images/Speaker1.jpg,Images/Speaker2.jpg,Images/Speaker3.jpg,Images/Speaker4.jpg,Audio/Speaker2_Per/P2-13-Per.wav,Speaker2,گوینده۲,0,50,50,32,,,,,89.16901645899998,,,,,,,,,,,,,,,,,,,,,,,,,,,,,,,,,,,,,,,,,,,,,48.59331079200092,0.0,False,48.593497125000795,376289,001,2024-07-03_14h06.03.681,5-all in one,2024.1.4,None,2024-07-03 14h06.08.833906 +0900,
Images/Speaker1.jpg,Images/Speaker2.jpg,Images/Speaker3.jpg,Images/Speaker4.jpg,Audio/Speaker2_Per/P2-3-Per.wav,Speaker2,گوینده۲,0,51,51,22,,,,,89.16901645899998,,,,,,,,,,,,,,,,,,,,,,,,,,,,,,,,,,,,,,,,,,,,,48.60951075000048,0.0,False,48.60970987499968,376289,001,2024-07-03_14h06.03.681,5-all in one,2024.1.4,None,2024-07-03 14h06.08.833906 +0900,
Images/Speaker1.jpg,Images/Speaker2.jpg,Images/Speaker3.jpg,Images/Speaker4.jpg,Audio/Speaker3_Per/P3-20-Per.wav,Speaker3,گوینده۳,0,52,52,59,,,,,89.16901645899998,,,,,,,,,,,,,,,,,,,,,,,,,,,,,,,,,,,,,,,,,,,,,48.62555650000104,0.0,False,48.62577354200039,376289,001,2024-07-03_14h06.03.681,5-all in one,2024.1.4,None,2024-07-03 14h06.08.833906 +0900,
Images/Speaker1.jpg,Images/Speaker2.jpg,Images/Speaker3.jpg,Images/Speaker4.jpg,Audio/Speaker3_Per/P3-6-Per.wav,Speaker3,گوینده۳,0,53,53,45,,,,,89.16901645899998,,,,,,,,,,,,,,,,,,,,,,,,,,,,,,,,,,,,,,,,,,,,,48.64177383400056,0.0,False,48.64197145900107,376289,001,2024-07-03_14h06.03.681,5-all in one,2024.1.4,None,2024-07-03 14h06.08.833906 +0900,
Images/Speaker1.jpg,Images/Speaker2.jpg,Images/Speaker3.jpg,Images/Speaker4.jpg,Audio/Speaker4_Per/P4-5-Per.wav,Speaker4,گوینده۴,0,54,54,64,,,,,89.16901645899998,,,,,,,,,,,,,,,,,,,,,,,,,,,,,,,,,,,,,,,,,,,,,48.657618791999994,0.0,False,48.657835166999575,376289,001,2024-07-03_14h06.03.681,5-all in one,2024.1.4,None,2024-07-03 14h06.08.833906 +0900,
Images/Speaker1.jpg,Images/Speaker2.jpg,Images/Speaker3.jpg,Images/Speaker4.jpg,Audio/Speaker3_Per/P3-5-Per.wav,Speaker3,گوینده۳,0,55,55,44,,,,,89.16901645899998,,,,,,,,,,,,,,,,,,,,,,,,,,,,,,,,,,,,,,,,,,,,,48.67402525000034,0.0,False,48.67423575000066,376289,001,2024-07-03_14h06.03.681,5-all in one,2024.1.4,None,2024-07-03 14h06.08.833906 +0900,
Images/Speaker1.jpg,Images/Speaker2.jpg,Images/Speaker3.jpg,Images/Speaker4.jpg,Audio/Speaker4_Per/P4-11-Per.wav,Speaker4,گوینده۴,0,56,56,70,,,,,89.16901645899998,,,,,,,,,,,,,,,,,,,,,,,,,,,,,,,,,,,,,,,,,,,,,48.68998204200034,0.0,False,48.69016841700068,376289,001,2024-07-03_14h06.03.681,5-all in one,2024.1.4,None,2024-07-03 14h06.08.833906 +0900,
Images/Speaker1.jpg,Images/Speaker2.jpg,Images/Speaker3.jpg,Images/Speaker4.jpg,Audio/Speaker1_Per/P1-20-Per.wav,Speaker1,گوینده ۱,0,57,57,19,,,,,89.16901645899998,,,,,,,,,,,,,,,,,,,,,,,,,,,,,,,,,,,,,,,,,,,,,48.70575800000006,0.0,False,48.705954749999364,376289,001,2024-07-03_14h06.03.681,5-all in one,2024.1.4,None,2024-07-03 14h06.08.833906 +0900,
Images/Speaker1.jpg,Images/Speaker2.jpg,Images/Speaker3.jpg,Images/Speaker4.jpg,Audio/Speaker2_Per/P2-11-Per.wav,Speaker2,گوینده۲,0,58,58,30,,,,,89.16901645899998,,,,,,,,,,,,,,,,,,,,,,,,,,,,,,,,,,,,,,,,,,,,,48.72169483400103,0.0,False,48.72188512499997,376289,001,2024-07-03_14h06.03.681,5-all in one,2024.1.4,None,2024-07-03 14h06.08.833906 +0900,
Images/Speaker1.jpg,Images/Speaker2.jpg,Images/Speaker3.jpg,Images/Speaker4.jpg,Audio/Speaker2_Per/P2-20-Per.wav,Speaker2,گوینده۲,0,59,59,39,,,,,89.16901645899998,,,,,,,,,,,,,,,,,,,,,,,,,,,,,,,,,,,,,,,,,,,,,48.738126709000426,0.0,False,48.73837266699957,376289,001,2024-07-03_14h06.03.681,5-all in one,2024.1.4,None,2024-07-03 14h06.08.833906 +0900,
Images/Speaker1.jpg,Images/Speaker2.jpg,Images/Speaker3.jpg,Images/Speaker4.jpg,Audio/Speaker1_Per/P1-2-Per.wav,Speaker1,گوینده ۱,0,60,60,1,,,,,89.16901645899998,,,,,,,,,,,,,,,,,,,,,,,,,,,,,,,,,,,,,,,,,,,,,48.754199209000944,0.0,False,48.75441837499966,376289,001,2024-07-03_14h06.03.681,5-all in one,2024.1.4,None,2024-07-03 14h06.08.833906 +0900,
Images/Speaker1.jpg,Images/Speaker2.jpg,Images/Speaker3.jpg,Images/Speaker4.jpg,Audio/Speaker3_Per/P3-4-Per.wav,Speaker3,گوینده۳,0,61,61,43,,,,,89.16901645899998,,,,,,,,,,,,,,,,,,,,,,,,,,,,,,,,,,,,,,,,,,,,,48.77005462499983,0.0,False,48.770243999999366,376289,001,2024-07-03_14h06.03.681,5-all in one,2024.1.4,None,2024-07-03 14h06.08.833906 +0900,
Images/Speaker1.jpg,Images/Speaker2.jpg,Images/Speaker3.jpg,Images/Speaker4.jpg,Audio/Speaker3_Per/P3-15-Per.wav,Speaker3,گوینده۳,0,62,62,54,,,,,89.16901645899998,,,,,,,,,,,,,,,,,,,,,,,,,,,,,,,,,,,,,,,,,,,,,48.78603533400019,0.0,False,48.78622270900087,376289,001,2024-07-03_14h06.03.681,5-all in one,2024.1.4,None,2024-07-03 14h06.08.833906 +0900,
Images/Speaker1.jpg,Images/Speaker2.jpg,Images/Speaker3.jpg,Images/Speaker4.jpg,Audio/Speaker1_Per/P1-4-Per.wav,Speaker1,گوینده ۱,0,63,63,3,,,,,89.16901645899998,,,,,,,,,,,,,,,,,,,,,,,,,,,,,,,,,,,,,,,,,,,,,48.85075300000062,0.0,False,48.85108833400045,376289,001,2024-07-03_14h06.03.681,5-all in one,2024.1.4,None,2024-07-03 14h06.08.833906 +0900,
Images/Speaker1.jpg,Images/Speaker2.jpg,Images/Speaker3.jpg,Images/Speaker4.jpg,Audio/Speaker1_Per/P1-9-Per.wav,Speaker1,گوینده ۱,0,64,64,8,,,,,89.16901645899998,,,,,,,,,,,,,,,,,,,,,,,,,,,,,,,,,,,,,,,,,,,,,48.86695320900071,0.0,False,48.86715316700065,376289,001,2024-07-03_14h06.03.681,5-all in one,2024.1.4,None,2024-07-03 14h06.08.833906 +0900,
Images/Speaker1.jpg,Images/Speaker2.jpg,Images/Speaker3.jpg,Images/Speaker4.jpg,Audio/Speaker1_Per/P1-12-Per.wav,Speaker1,گوینده ۱,0,65,65,11,,,,,89.16901645899998,,,,,,,,,,,,,,,,,,,,,,,,,,,,,,,,,,,,,,,,,,,,,48.882797874999596,0.0,False,48.88299312500021,376289,001,2024-07-03_14h06.03.681,5-all in one,2024.1.4,None,2024-07-03 14h06.08.833906 +0900,
Images/Speaker1.jpg,Images/Speaker2.jpg,Images/Speaker3.jpg,Images/Speaker4.jpg,Audio/Speaker4_Per/P4-19-Per.wav,Speaker4,گوینده۴,0,66,66,78,,,,,89.16901645899998,,,,,,,,,,,,,,,,,,,,,,,,,,,,,,,,,,,,,,,,,,,,,48.89902658400024,0.0,False,48.89921083400077,376289,001,2024-07-03_14h06.03.681,5-all in one,2024.1.4,None,2024-07-03 14h06.08.833906 +0900,
Images/Speaker1.jpg,Images/Speaker2.jpg,Images/Speaker3.jpg,Images/Speaker4.jpg,Audio/Speaker4_Per/P4-13-Per.wav,Speaker4,گوینده۴,0,67,67,72,,,,,89.16901645899998,,,,,,,,,,,,,,,,,,,,,,,,,,,,,,,,,,,,,,,,,,,,,48.91478683400055,0.0,False,48.9150026669995,376289,001,2024-07-03_14h06.03.681,5-all in one,2024.1.4,None,2024-07-03 14h06.08.833906 +0900,
Images/Speaker1.jpg,Images/Speaker2.jpg,Images/Speaker3.jpg,Images/Speaker4.jpg,Audio/Speaker1_Per/P1-8-Per.wav,Speaker1,گوینده ۱,0,68,68,7,,,,,89.16901645899998,,,,,,,,,,,,,,,,,,,,,,,,,,,,,,,,,,,,,,,,,,,,,48.93060954199973,0.0,False,48.93080595900028,376289,001,2024-07-03_14h06.03.681,5-all in one,2024.1.4,None,2024-07-03 14h06.08.833906 +0900,
Images/Speaker1.jpg,Images/Speaker2.jpg,Images/Speaker3.jpg,Images/Speaker4.jpg,Audio/Speaker4_Per/P4-3-Per.wav,Speaker4,گوینده۴,0,69,69,62,,,,,89.16901645899998,,,,,,,,,,,,,,,,,,,,,,,,,,,,,,,,,,,,,,,,,,,,,48.94666212499942,0.0,False,48.94686437500059,376289,001,2024-07-03_14h06.03.681,5-all in one,2024.1.4,None,2024-07-03 14h06.08.833906 +0900,
Images/Speaker1.jpg,Images/Speaker2.jpg,Images/Speaker3.jpg,Images/Speaker4.jpg,Audio/Speaker4_Per/P4-4-Per.wav,Speaker4,گوینده۴,0,70,70,63,,,,,89.16901645899998,,,,,,,,,,,,,,,,,,,,,,,,,,,,,,,,,,,,,,,,,,,,,48.963048499999786,0.0,False,48.96324266699958,376289,001,2024-07-03_14h06.03.681,5-all in one,2024.1.4,None,2024-07-03 14h06.08.833906 +0900,
Images/Speaker1.jpg,Images/Speaker2.jpg,Images/Speaker3.jpg,Images/Speaker4.jpg,Audio/Speaker2_Per/P2-16-Per.wav,Speaker2,گوینده۲,0,71,71,35,,,,,89.16901645899998,,,,,,,,,,,,,,,,,,,,,,,,,,,,,,,,,,,,,,,,,,,,,48.9788795000004,0.0,False,48.97905304199958,376289,001,2024-07-03_14h06.03.681,5-all in one,2024.1.4,None,2024-07-03 14h06.08.833906 +0900,
Images/Speaker1.jpg,Images/Speaker2.jpg,Images/Speaker3.jpg,Images/Speaker4.jpg,Audio/Speaker3_Per/P3-9-Per.wav,Speaker3,گوینده۳,0,72,72,48,,,,,89.16901645899998,,,,,,,,,,,,,,,,,,,,,,,,,,,,,,,,,,,,,,,,,,,,,48.99465070900078,0.0,False,48.9948465840007,376289,001,2024-07-03_14h06.03.681,5-all in one,2024.1.4,None,2024-07-03 14h06.08.833906 +0900,
Images/Speaker1.jpg,Images/Speaker2.jpg,Images/Speaker3.jpg,Images/Speaker4.jpg,Audio/Speaker3_Per/P3-12-Per.wav,Speaker3,گوینده۳,0,73,73,51,,,,,89.16901645899998,,,,,,,,,,,,,,,,,,,,,,,,,,,,,,,,,,,,,,,,,,,,,49.0105038340007,0.0,False,49.0107226250002,376289,001,2024-07-03_14h06.03.681,5-all in one,2024.1.4,None,2024-07-03 14h06.08.833906 +0900,
Images/Speaker1.jpg,Images/Speaker2.jpg,Images/Speaker3.jpg,Images/Speaker4.jpg,Audio/Speaker1_Per/P1-19-Per.wav,Speaker1,گوینده ۱,0,74,74,18,,,,,89.16901645899998,,,,,,,,,,,,,,,,,,,,,,,,,,,,,,,,,,,,,,,,,,,,,49.02756183400015,0.0,False,49.02779245900092,376289,001,2024-07-03_14h06.03.681,5-all in one,2024.1.4,None,2024-07-03 14h06.08.833906 +0900,
Images/Speaker1.jpg,Images/Speaker2.jpg,Images/Speaker3.jpg,Images/Speaker4.jpg,Audio/Speaker3_Per/P3-16-Per.wav,Speaker3,گوینده۳,0,75,75,55,,,,,89.16901645899998,,,,,,,,,,,,,,,,,,,,,,,,,,,,,,,,,,,,,,,,,,,,,49.04422012500072,0.0,False,49.04446329200073,376289,001,2024-07-03_14h06.03.681,5-all in one,2024.1.4,None,2024-07-03 14h06.08.833906 +0900,
Images/Speaker1.jpg,Images/Speaker2.jpg,Images/Speaker3.jpg,Images/Speaker4.jpg,Audio/Speaker3_Per/P3-19-Per.wav,Speaker3,گوینده۳,0,76,76,58,,,,,89.16901645899998,,,,,,,,,,,,,,,,,,,,,,,,,,,,,,,,,,,,,,,,,,,,,49.06081520900079,0.0,False,49.06109404200106,376289,001,2024-07-03_14h06.03.681,5-all in one,2024.1.4,None,2024-07-03 14h06.08.833906 +0900,
Images/Speaker1.jpg,Images/Speaker2.jpg,Images/Speaker3.jpg,Images/Speaker4.jpg,Audio/Speaker2_Per/P2-5-Per.wav,Speaker2,گوینده۲,0,77,77,24,,,,,89.16901645899998,,,,,,,,,,,,,,,,,,,,,,,,,,,,,,,,,,,,,,,,,,,,,49.07763470899954,0.0,False,49.07788808400073,376289,001,2024-07-03_14h06.03.681,5-all in one,2024.1.4,None,2024-07-03 14h06.08.833906 +0900,
Images/Speaker1.jpg,Images/Speaker2.jpg,Images/Speaker3.jpg,Images/Speaker4.jpg,Audio/Speaker1_Per/P1-10-Per.wav,Speaker1,گوینده ۱,0,78,78,9,,,,,89.16901645899998,,,,,,,,,,,,,,,,,,,,,,,,,,,,,,,,,,,,,,,,,,,,,49.09450800000013,0.0,False,49.09469912500026,376289,001,2024-07-03_14h06.03.681,5-all in one,2024.1.4,None,2024-07-03 14h06.08.833906 +0900,
Images/Speaker1.jpg,Images/Speaker2.jpg,Images/Speaker3.jpg,Images/Speaker4.jpg,Audio/Speaker2_Per/P2-4-Per.wav,Speaker2,گوینده۲,0,79,79,23,,,,,89.16901645899998,,,,,,,,,,,,,,,,,,,,,,,,,,,,,,,,,,,,,,,,,,,,,49.11037504200067,0.0,False,49.1105696249997,376289,001,2024-07-03_14h06.03.681,5-all in one,2024.1.4,None,2024-07-03 14h06.08.833906 +0900,
Images/Speaker1.jpg,Images/Speaker2.jpg,Images/Speaker3.jpg,Images/Speaker4.jpg,Audio/Speaker1_Per/P1-19-Per.wav,Speaker1,گوینده ۱,1,0,80,18,,,,,89.16901645899998,,,,,,,,,,,,,,,,,,,,,,,,,,,,,,,,,,,,,,,,,,,,,49.12635000000046,0.0,False,49.12654279200069,376289,001,2024-07-03_14h06.03.681,5-all in one,2024.1.4,None,2024-07-03 14h06.08.833906 +0900,
Images/Speaker1.jpg,Images/Speaker2.jpg,Images/Speaker3.jpg,Images/Speaker4.jpg,Audio/Speaker4_Per/P4-7-Per.wav,Speaker4,گوینده۴,1,1,81,66,,,,,89.16901645899998,,,,,,,,,,,,,,,,,,,,,,,,,,,,,,,,,,,,,,,,,,,,,49.14237741699981,0.0,False,49.14257954200002,376289,001,2024-07-03_14h06.03.681,5-all in one,2024.1.4,None,2024-07-03 14h06.08.833906 +0900,
Images/Speaker1.jpg,Images/Speaker2.jpg,Images/Speaker3.jpg,Images/Speaker4.jpg,Audio/Speaker4_Per/P4-5-Per.wav,Speaker4,گوینده۴,1,2,82,64,,,,,89.16901645899998,,,,,,,,,,,,,,,,,,,,,,,,,,,,,,,,,,,,,,,,,,,,,49.158891334000145,0.0,False,49.159094250000635,376289,001,2024-07-03_14h06.03.681,5-all in one,2024.1.4,None,2024-07-03 14h06.08.833906 +0900,
Images/Speaker1.jpg,Images/Speaker2.jpg,Images/Speaker3.jpg,Images/Speaker4.jpg,Audio/Speaker1_Per/P1-13-Per.wav,Speaker1,گوینده ۱,1,3,83,12,,,,,89.16901645899998,,,,,,,,,,,,,,,,,,,,,,,,,,,,,,,,,,,,,,,,,,,,,49.174630792000244,0.0,False,49.17483129200082,376289,001,2024-07-03_14h06.03.681,5-all in one,2024.1.4,None,2024-07-03 14h06.08.833906 +0900,
Images/Speaker1.jpg,Images/Speaker2.jpg,Images/Speaker3.jpg,Images/Speaker4.jpg,Audio/Speaker2_Per/P2-12-Per.wav,Speaker2,گوینده۲,1,4,84,31,,,,,89.16901645899998,,,,,,,,,,,,,,,,,,,,,,,,,,,,,,,,,,,,,,,,,,,,,49.19042770899978,0.0,False,49.19064412499938,376289,001,2024-07-03_14h06.03.681,5-all in one,2024.1.4,None,2024-07-03 14h06.08.833906 +0900,
Images/Speaker1.jpg,Images/Speaker2.jpg,Images/Speaker3.jpg,Images/Speaker4.jpg,Audio/Speaker3_Per/P3-8-Per.wav,Speaker3,گوینده۳,1,5,85,47,,,,,89.16901645899998,,,,,,,,,,,,,,,,,,,,,,,,,,,,,,,,,,,,,,,,,,,,,49.20623354199961,0.0,False,49.20647687500059,376289,001,2024-07-03_14h06.03.681,5-all in one,2024.1.4,None,2024-07-03 14h06.08.833906 +0900,
Images/Speaker1.jpg,Images/Speaker2.jpg,Images/Speaker3.jpg,Images/Speaker4.jpg,Audio/Speaker1_Per/P1-4-Per.wav,Speaker1,گوینده ۱,1,6,86,13,,,,,89.16901645899998,,,,,,,,,,,,,,,,,,,,,,,,,,,,,,,,,,,,,,,,,,,,,49.22259204200054,0.0,False,49.22278195900071,376289,001,2024-07-03_14h06.03.681,5-all in one,2024.1.4,None,2024-07-03 14h06.08.833906 +0900,
Images/Speaker1.jpg,Images/Speaker2.jpg,Images/Speaker3.jpg,Images/Speaker4.jpg,Audio/Speaker2_Per/P2-5-Per.wav,Speaker2,گوینده۲,1,7,87,24,,,,,89.16901645899998,,,,,,,,,,,,,,,,,,,,,,,,,,,,,,,,,,,,,,,,,,,,,49.2383160419995,0.0,False,49.23849829199935,376289,001,2024-07-03_14h06.03.681,5-all in one,2024.1.4,None,2024-07-03 14h06.08.833906 +0900,
Images/Speaker1.jpg,Images/Speaker2.jpg,Images/Speaker3.jpg,Images/Speaker4.jpg,Audio/Speaker1_Per/P1-12-Per.wav,Speaker1,گوینده ۱,1,8,88,11,,,,,89.16901645899998,,,,,,,,,,,,,,,,,,,,,,,,,,,,,,,,,,,,,,,,,,,,,49.25414749999982,0.0,False,49.25433762499961,376289,001,2024-07-03_14h06.03.681,5-all in one,2024.1.4,None,2024-07-03 14h06.08.833906 +0900,
Images/Speaker1.jpg,Images/Speaker2.jpg,Images/Speaker3.jpg,Images/Speaker4.jpg,Audio/Speaker4_Per/P4-16-Per.wav,Speaker4,گوینده۴,1,9,89,75,,,,,89.16901645899998,,,,,,,,,,,,,,,,,,,,,,,,,,,,,,,,,,,,,,,,,,,,,49.26988141699985,0.0,False,49.27007745899937,376289,001,2024-07-03_14h06.03.681,5-all in one,2024.1.4,None,2024-07-03 14h06.08.833906 +0900,
Images/Speaker1.jpg,Images/Speaker2.jpg,Images/Speaker3.jpg,Images/Speaker4.jpg,Audio/Speaker1_Per/P1-15-Per.wav,Speaker1,گوینده ۱,1,10,90,14,,,,,89.16901645899998,,,,,,,,,,,,,,,,,,,,,,,,,,,,,,,,,,,,,,,,,,,,,49.286287750001065,0.0,False,49.28646962499988,376289,001,2024-07-03_14h06.03.681,5-all in one,2024.1.4,None,2024-07-03 14h06.08.833906 +0900,
Images/Speaker1.jpg,Images/Speaker2.jpg,Images/Speaker3.jpg,Images/Speaker4.jpg,Audio/Speaker1_Per/P1-11-Per.wav,Speaker1,گوینده ۱,1,11,91,10,,,,,89.16901645899998,,,,,,,,,,,,,,,,,,,,,,,,,,,,,,,,,,,,,,,,,,,,,49.30188162500053,0.0,False,49.30208937499992,376289,001,2024-07-03_14h06.03.681,5-all in one,2024.1.4,None,2024-07-03 14h06.08.833906 +0900,
Images/Speaker1.jpg,Images/Speaker2.jpg,Images/Speaker3.jpg,Images/Speaker4.jpg,Audio/Speaker1_Per/P1-2-Per.wav,Speaker1,گوینده ۱,1,12,92,1,,,,,89.16901645899998,,,,,,,,,,,,,,,,,,,,,,,,,,,,,,,,,,,,,,,,,,,,,49.317604166999445,0.0,False,49.31779762500082,376289,001,2024-07-03_14h06.03.681,5-all in one,2024.1.4,None,2024-07-03 14h06.08.833906 +0900,
Images/Speaker1.jpg,Images/Speaker2.jpg,Images/Speaker3.jpg,Images/Speaker4.jpg,Audio/Speaker4_Per/P4-20-Per.wav,Speaker4,گوینده۴,1,13,93,79,,,,,89.16901645899998,,,,,,,,,,,,,,,,,,,,,,,,,,,,,,,,,,,,,,,,,,,,,49.33372050000071,0.0,False,49.33396095900025,376289,001,2024-07-03_14h06.03.681,5-all in one,2024.1.4,None,2024-07-03 14h06.08.833906 +0900,
Images/Speaker1.jpg,Images/Speaker2.jpg,Images/Speaker3.jpg,Images/Speaker4.jpg,Audio/Speaker4_Per/P4-4-Per.wav,Speaker4,گوینده۴,1,14,94,63,,,,,89.16901645899998,,,,,,,,,,,,,,,,,,,,,,,,,,,,,,,,,,,,,,,,,,,,,49.3499983340007,0.0,False,49.350237209000625,376289,001,2024-07-03_14h06.03.681,5-all in one,2024.1.4,None,2024-07-03 14h06.08.833906 +0900,
Images/Speaker1.jpg,Images/Speaker2.jpg,Images/Speaker3.jpg,Images/Speaker4.jpg,Audio/Speaker3_Per/P3-12-Per.wav,Speaker3,گوینده۳,1,15,95,51,,,,,89.16901645899998,,,,,,,,,,,,,,,,,,,,,,,,,,,,,,,,,,,,,,,,,,,,,49.36605816700103,0.0,False,49.366279542000484,376289,001,2024-07-03_14h06.03.681,5-all in one,2024.1.4,None,2024-07-03 14h06.08.833906 +0900,
Images/Speaker1.jpg,Images/Speaker2.jpg,Images/Speaker3.jpg,Images/Speaker4.jpg,Audio/Speaker2_Per/P2-13-Per.wav,Speaker2,گوینده۲,1,16,96,32,,,,,89.16901645899998,,,,,,,,,,,,,,,,,,,,,,,,,,,,,,,,,,,,,,,,,,,,,49.381849875000626,0.0,False,49.382058708999466,376289,001,2024-07-03_14h06.03.681,5-all in one,2024.1.4,None,2024-07-03 14h06.08.833906 +0900,
Images/Speaker1.jpg,Images/Speaker2.jpg,Images/Speaker3.jpg,Images/Speaker4.jpg,Audio/Speaker1_Per/P1-18-Per.wav,Speaker1,گوینده ۱,1,17,97,17,,,,,89.16901645899998,,,,,,,,,,,,,,,,,,,,,,,,,,,,,,,,,,,,,,,,,,,,,49.39758995900047,0.0,False,49.39777429199967,376289,001,2024-07-03_14h06.03.681,5-all in one,2024.1.4,None,2024-07-03 14h06.08.833906 +0900,
Images/Speaker1.jpg,Images/Speaker2.jpg,Images/Speaker3.jpg,Images/Speaker4.jpg,Audio/Speaker1_Per/P1-3-Per.wav,Speaker1,گوینده ۱,1,18,98,2,,,,,89.16901645899998,,,,,,,,,,,,,,,,,,,,,,,,,,,,,,,,,,,,,,,,,,,,,49.41385079199972,0.0,False,49.414012499999444,376289,001,2024-07-03_14h06.03.681,5-all in one,2024.1.4,None,2024-07-03 14h06.08.833906 +0900,
Images/Speaker1.jpg,Images/Speaker2.jpg,Images/Speaker3.jpg,Images/Speaker4.jpg,Audio/Speaker3_Per/P3-18-Per.wav,Speaker3,گوینده۳,1,19,99,57,,,,,89.16901645899998,,,,,,,,,,,,,,,,,,,,,,,,,,,,,,,,,,,,,,,,,,,,,49.42947429200103,0.0,False,49.42966066699955,376289,001,2024-07-03_14h06.03.681,5-all in one,2024.1.4,None,2024-07-03 14h06.08.833906 +0900,
Images/Speaker1.jpg,Images/Speaker2.jpg,Images/Speaker3.jpg,Images/Speaker4.jpg,Audio/Speaker3_Per/P3-7-Per.wav,Speaker3,گوینده۳,1,20,100,46,,,,,89.16901645899998,,,,,,,,,,,,,,,,,,,,,,,,,,,,,,,,,,,,,,,,,,,,,49.445073291999506,0.0,False,49.445254083999316,376289,001,2024-07-03_14h06.03.681,5-all in one,2024.1.4,None,2024-07-03 14h06.08.833906 +0900,
Images/Speaker1.jpg,Images/Speaker2.jpg,Images/Speaker3.jpg,Images/Speaker4.jpg,Audio/Speaker2_Per/P2-6-Per.wav,Speaker2,گوینده۲,1,21,101,25,,,,,89.16901645899998,,,,,,,,,,,,,,,,,,,,,,,,,,,,,,,,,,,,,,,,,,,,,49.46082374999969,0.0,False,49.46100699999988,376289,001,2024-07-03_14h06.03.681,5-all in one,2024.1.4,None,2024-07-03 14h06.08.833906 +0900,
Images/Speaker1.jpg,Images/Speaker2.jpg,Images/Speaker3.jpg,Images/Speaker4.jpg,Audio/Speaker2_Per/P2-14-Per.wav,Speaker2,گوینده۲,1,22,102,33,,,,,89.16901645899998,,,,,,,,,,,,,,,,,,,,,,,,,,,,,,,,,,,,,,,,,,,,,49.47775279199959,0.0,False,49.47802466699977,376289,001,2024-07-03_14h06.03.681,5-all in one,2024.1.4,None,2024-07-03 14h06.08.833906 +0900,
Images/Speaker1.jpg,Images/Speaker2.jpg,Images/Speaker3.jpg,Images/Speaker4.jpg,Audio/Speaker1_Per/P1-8-Per.wav,Speaker1,گوینده ۱,1,23,103,7,,,,,89.16901645899998,,,,,,,,,,,,,,,,,,,,,,,,,,,,,,,,,,,,,,,,,,,,,49.49424250000084,0.0,False,49.494443542000226,376289,001,2024-07-03_14h06.03.681,5-all in one,2024.1.4,None,2024-07-03 14h06.08.833906 +0900,
Images/Speaker1.jpg,Images/Speaker2.jpg,Images/Speaker3.jpg,Images/Speaker4.jpg,Audio/Speaker1_Per/P1-4-Per.wav,Speaker1,گوینده ۱,1,24,104,3,,,,,89.16901645899998,,,,,,,,,,,,,,,,,,,,,,,,,,,,,,,,,,,,,,,,,,,,,49.51058108399957,0.0,False,49.51080295900101,376289,001,2024-07-03_14h06.03.681,5-all in one,2024.1.4,None,2024-07-03 14h06.08.833906 +0900,
Images/Speaker1.jpg,Images/Speaker2.jpg,Images/Speaker3.jpg,Images/Speaker4.jpg,Audio/Speaker4_Per/P4-11-Per.wav,Speaker4,گوینده۴,1,25,105,70,,,,,89.16901645899998,,,,,,,,,,,,,,,,,,,,,,,,,,,,,,,,,,,,,,,,,,,,,49.52675004199955,0.0,False,49.5269353750009,376289,001,2024-07-03_14h06.03.681,5-all in one,2024.1.4,None,2024-07-03 14h06.08.833906 +0900,
Images/Speaker1.jpg,Images/Speaker2.jpg,Images/Speaker3.jpg,Images/Speaker4.jpg,Audio/Speaker2_Per/P2-2-Per.wav,Speaker2,گوینده۲,1,26,106,21,,,,,89.16901645899998,,,,,,,,,,,,,,,,,,,,,,,,,,,,,,,,,,,,,,,,,,,,,49.54369824999958,0.0,False,49.54390670900102,376289,001,2024-07-03_14h06.03.681,5-all in one,2024.1.4,None,2024-07-03 14h06.08.833906 +0900,
Images/Speaker1.jpg,Images/Speaker2.jpg,Images/Speaker3.jpg,Images/Speaker4.jpg,Audio/Speaker3_Per/P3-11-Per.wav,Speaker3,گوینده۳,1,27,107,50,,,,,89.16901645899998,,,,,,,,,,,,,,,,,,,,,,,,,,,,,,,,,,,,,,,,,,,,,49.5595373340002,0.0,False,49.5597367499995,376289,001,2024-07-03_14h06.03.681,5-all in one,2024.1.4,None,2024-07-03 14h06.08.833906 +0900,
Images/Speaker1.jpg,Images/Speaker2.jpg,Images/Speaker3.jpg,Images/Speaker4.jpg,Audio/Speaker3_Per/P3-19-Per.wav,Speaker3,گوینده۳,1,28,108,58,,,,,89.16901645899998,,,,,,,,,,,,,,,,,,,,,,,,,,,,,,,,,,,,,,,,,,,,,49.57523845899959,0.0,False,49.575407667000036,376289,001,2024-07-03_14h06.03.681,5-all in one,2024.1.4,None,2024-07-03 14h06.08.833906 +0900,
Images/Speaker1.jpg,Images/Speaker2.jpg,Images/Speaker3.jpg,Images/Speaker4.jpg,Audio/Speaker2_Per/P2-4-Per.wav,Speaker2,گوینده۲,1,29,109,23,,,,,89.16901645899998,,,,,,,,,,,,,,,,,,,,,,,,,,,,,,,,,,,,,,,,,,,,,49.591017875000034,0.0,False,49.59122000000025,376289,001,2024-07-03_14h06.03.681,5-all in one,2024.1.4,None,2024-07-03 14h06.08.833906 +0900,
Images/Speaker1.jpg,Images/Speaker2.jpg,Images/Speaker3.jpg,Images/Speaker4.jpg,Audio/Speaker1_Per/P1-7-Per.wav,Speaker1,گوینده ۱,1,30,110,6,,,,,89.16901645899998,,,,,,,,,,,,,,,,,,,,,,,,,,,,,,,,,,,,,,,,,,,,,49.607862834000116,0.0,False,49.608056125000076,376289,001,2024-07-03_14h06.03.681,5-all in one,2024.1.4,None,2024-07-03 14h06.08.833906 +0900,
Images/Speaker1.jpg,Images/Speaker2.jpg,Images/Speaker3.jpg,Images/Speaker4.jpg,Audio/Speaker4_Per/P4-1-Per.wav,Speaker4,گوینده۴,1,31,111,60,,,,,89.16901645899998,,,,,,,,,,,,,,,,,,,,,,,,,,,,,,,,,,,,,,,,,,,,,49.62360708400047,0.0,False,49.62378779199935,376289,001,2024-07-03_14h06.03.681,5-all in one,2024.1.4,None,2024-07-03 14h06.08.833906 +0900,
Images/Speaker1.jpg,Images/Speaker2.jpg,Images/Speaker3.jpg,Images/Speaker4.jpg,Audio/Speaker1_Per/P1-10-Per.wav,Speaker1,گوینده ۱,1,32,112,9,,,,,89.16901645899998,,,,,,,,,,,,,,,,,,,,,,,,,,,,,,,,,,,,,,,,,,,,,49.6394020000007,0.0,False,49.63960849999967,376289,001,2024-07-03_14h06.03.681,5-all in one,2024.1.4,None,2024-07-03 14h06.08.833906 +0900,
Images/Speaker1.jpg,Images/Speaker2.jpg,Images/Speaker3.jpg,Images/Speaker4.jpg,Audio/Speaker2_Per/P2-17-Per.wav,Speaker2,گوینده۲,1,33,113,36,,,,,89.16901645899998,,,,,,,,,,,,,,,,,,,,,,,,,,,,,,,,,,,,,,,,,,,,,49.655104208999546,0.0,False,49.65528054199967,376289,001,2024-07-03_14h06.03.681,5-all in one,2024.1.4,None,2024-07-03 14h06.08.833906 +0900,
Images/Speaker1.jpg,Images/Speaker2.jpg,Images/Speaker3.jpg,Images/Speaker4.jpg,Audio/Speaker4_Per/P4-13-Per.wav,Speaker4,گوینده۴,1,34,114,72,,,,,89.16901645899998,,,,,,,,,,,,,,,,,,,,,,,,,,,,,,,,,,,,,,,,,,,,,49.67149566700027,0.0,False,49.67168124999989,376289,001,2024-07-03_14h06.03.681,5-all in one,2024.1.4,None,2024-07-03 14h06.08.833906 +0900,
Images/Speaker1.jpg,Images/Speaker2.jpg,Images/Speaker3.jpg,Images/Speaker4.jpg,Audio/Speaker2_Per/P2-7-Per.wav,Speaker2,گوینده۲,1,35,115,26,,,,,89.16901645899998,,,,,,,,,,,,,,,,,,,,,,,,,,,,,,,,,,,,,,,,,,,,,49.68747762500061,0.0,False,49.687697249999474,376289,001,2024-07-03_14h06.03.681,5-all in one,2024.1.4,None,2024-07-03 14h06.08.833906 +0900,
Images/Speaker1.jpg,Images/Speaker2.jpg,Images/Speaker3.jpg,Images/Speaker4.jpg,Audio/Speaker3_Per/P3-4-Per.wav,Speaker3,گوینده۳,1,36,116,43,,,,,89.16901645899998,,,,,,,,,,,,,,,,,,,,,,,,,,,,,,,,,,,,,,,,,,,,,49.70313287499994,0.0,False,49.70333516699975,376289,001,2024-07-03_14h06.03.681,5-all in one,2024.1.4,None,2024-07-03 14h06.08.833906 +0900,
Images/Speaker1.jpg,Images/Speaker2.jpg,Images/Speaker3.jpg,Images/Speaker4.jpg,Audio/Speaker3_Per/P3-6-Per.wav,Speaker3,گوینده۳,1,37,117,45,,,,,89.16901645899998,,,,,,,,,,,,,,,,,,,,,,,,,,,,,,,,,,,,,,,,,,,,,49.718946250000954,0.0,False,49.71912187499947,376289,001,2024-07-03_14h06.03.681,5-all in one,2024.1.4,None,2024-07-03 14h06.08.833906 +0900,
Images/Speaker1.jpg,Images/Speaker2.jpg,Images/Speaker3.jpg,Images/Speaker4.jpg,Audio/Speaker4_Per/P4-19-Per.wav,Speaker4,گوینده۴,1,38,118,78,,,,,89.16901645899998,,,,,,,,,,,,,,,,,,,,,,,,,,,,,,,,,,,,,,,,,,,,,49.73534108400054,0.0,False,49.735572125000544,376289,001,2024-07-03_14h06.03.681,5-all in one,2024.1.4,None,2024-07-03 14h06.08.833906 +0900,
Images/Speaker1.jpg,Images/Speaker2.jpg,Images/Speaker3.jpg,Images/Speaker4.jpg,Audio/Speaker2_Per/P2-20-Per.wav,Speaker2,گوینده۲,1,39,119,39,,,,,89.16901645899998,,,,,,,,,,,,,,,,,,,,,,,,,,,,,,,,,,,,,,,,,,,,,49.75118195899995,0.0,False,49.75136045900035,376289,001,2024-07-03_14h06.03.681,5-all in one,2024.1.4,None,2024-07-03 14h06.08.833906 +0900,
Images/Speaker1.jpg,Images/Speaker2.jpg,Images/Speaker3.jpg,Images/Speaker4.jpg,Audio/Speaker4_Per/P4-8-Per.wav,Speaker4,گوینده۴,1,40,120,67,,,,,89.16901645899998,,,,,,,,,,,,,,,,,,,,,,,,,,,,,,,,,,,,,,,,,,,,,49.76690887500081,0.0,False,49.76711550000073,376289,001,2024-07-03_14h06.03.681,5-all in one,2024.1.4,None,2024-07-03 14h06.08.833906 +0900,
Images/Speaker1.jpg,Images/Speaker2.jpg,Images/Speaker3.jpg,Images/Speaker4.jpg,Audio/Speaker1_Per/P1-16-Per.wav,Speaker1,گوینده ۱,1,41,121,15,,,,,89.16901645899998,,,,,,,,,,,,,,,,,,,,,,,,,,,,,,,,,,,,,,,,,,,,,49.782511208999495,0.0,False,49.78271054200013,376289,001,2024-07-03_14h06.03.681,5-all in one,2024.1.4,None,2024-07-03 14h06.08.833906 +0900,
Images/Speaker1.jpg,Images/Speaker2.jpg,Images/Speaker3.jpg,Images/Speaker4.jpg,Audio/Speaker2_Per/P2-16-Per.wav,Speaker2,گوینده۲,1,42,122,35,,,,,89.16901645899998,,,,,,,,,,,,,,,,,,,,,,,,,,,,,,,,,,,,,,,,,,,,,49.79887870899984,0.0,False,49.79907791699952,376289,001,2024-07-03_14h06.03.681,5-all in one,2024.1.4,None,2024-07-03 14h06.08.833906 +0900,
Images/Speaker1.jpg,Images/Speaker2.jpg,Images/Speaker3.jpg,Images/Speaker4.jpg,Audio/Speaker2_Per/P2-10-Per.wav,Speaker2,گوینده۲,1,43,123,29,,,,,89.16901645899998,,,,,,,,,,,,,,,,,,,,,,,,,,,,,,,,,,,,,,,,,,,,,49.814507167000556,0.0,False,49.81469837499935,376289,001,2024-07-03_14h06.03.681,5-all in one,2024.1.4,None,2024-07-03 14h06.08.833906 +0900,
Images/Speaker1.jpg,Images/Speaker2.jpg,Images/Speaker3.jpg,Images/Speaker4.jpg,Audio/Speaker1_Per/P1-1-Per.wav,Speaker1,گوینده ۱,1,44,124,0,,,,,89.16901645899998,,,,,,,,,,,,,,,,,,,,,,,,,,,,,,,,,,,,,,,,,,,,,49.8301212919996,0.0,False,49.83032325000022,376289,001,2024-07-03_14h06.03.681,5-all in one,2024.1.4,None,2024-07-03 14h06.08.833906 +0900,
Images/Speaker1.jpg,Images/Speaker2.jpg,Images/Speaker3.jpg,Images/Speaker4.jpg,Audio/Speaker2_Per/P2-9-Per.wav,Speaker2,گوینده۲,1,45,125,28,,,,,89.16901645899998,,,,,,,,,,,,,,,,,,,,,,,,,,,,,,,,,,,,,,,,,,,,,49.84619200000088,0.0,False,49.84638837500097,376289,001,2024-07-03_14h06.03.681,5-all in one,2024.1.4,None,2024-07-03 14h06.08.833906 +0900,
Images/Speaker1.jpg,Images/Speaker2.jpg,Images/Speaker3.jpg,Images/Speaker4.jpg,Audio/Speaker4_Per/P4-17-Per.wav,Speaker4,گوینده۴,1,46,126,76,,,,,89.16901645899998,,,,,,,,,,,,,,,,,,,,,,,,,,,,,,,,,,,,,,,,,,,,,49.862488500000836,0.0,False,49.86268558399934,376289,001,2024-07-03_14h06.03.681,5-all in one,2024.1.4,None,2024-07-03 14h06.08.833906 +0900,
Images/Speaker1.jpg,Images/Speaker2.jpg,Images/Speaker3.jpg,Images/Speaker4.jpg,Audio/Speaker1_Per/P1-17-Per.wav,Speaker1,گوینده ۱,1,47,127,16,,,,,89.16901645899998,,,,,,,,,,,,,,,,,,,,,,,,,,,,,,,,,,,,,,,,,,,,,49.87827733400081,0.0,False,49.878477124999336,376289,001,2024-07-03_14h06.03.681,5-all in one,2024.1.4,None,2024-07-03 14h06.08.833906 +0900,
Images/Speaker1.jpg,Images/Speaker2.jpg,Images/Speaker3.jpg,Images/Speaker4.jpg,Audio/Speaker1_Per/P1-9-Per.wav,Speaker1,گوینده ۱,1,48,128,8,,,,,89.16901645899998,,,,,,,,,,,,,,,,,,,,,,,,,,,,,,,,,,,,,,,,,,,,,49.89397379200091,0.0,False,49.8941576670004,376289,001,2024-07-03_14h06.03.681,5-all in one,2024.1.4,None,2024-07-03 14h06.08.833906 +0900,
Images/Speaker1.jpg,Images/Speaker2.jpg,Images/Speaker3.jpg,Images/Speaker4.jpg,Audio/Speaker2_Per/P2-19-Per.wav,Speaker2,گوینده۲,1,49,129,38,,,,,89.16901645899998,,,,,,,,,,,,,,,,,,,,,,,,,,,,,,,,,,,,,,,,,,,,,49.90968341699954,0.0,False,49.9099356250008,376289,001,2024-07-03_14h06.03.681,5-all in one,2024.1.4,None,2024-07-03 14h06.08.833906 +0900,
Images/Speaker1.jpg,Images/Speaker2.jpg,Images/Speaker3.jpg,Images/Speaker4.jpg,Audio/Speaker3_Per/P3-20-Per.wav,Speaker3,گوینده۳,1,50,130,59,,,,,89.16901645899998,,,,,,,,,,,,,,,,,,,,,,,,,,,,,,,,,,,,,,,,,,,,,49.926155167000616,0.0,False,49.92633633399964,376289,001,2024-07-03_14h06.03.681,5-all in one,2024.1.4,None,2024-07-03 14h06.08.833906 +0900,
Images/Speaker1.jpg,Images/Speaker2.jpg,Images/Speaker3.jpg,Images/Speaker4.jpg,Audio/Speaker3_Per/P3-5-Per.wav,Speaker3,گوینده۳,1,51,131,44,,,,,89.16901645899998,,,,,,,,,,,,,,,,,,,,,,,,,,,,,,,,,,,,,,,,,,,,,49.94194391699966,0.0,False,49.94212429199979,376289,001,2024-07-03_14h06.03.681,5-all in one,2024.1.4,None,2024-07-03 14h06.08.833906 +0900,
Images/Speaker1.jpg,Images/Speaker2.jpg,Images/Speaker3.jpg,Images/Speaker4.jpg,Audio/Speaker1_Per/P1-5-Per.wav,Speaker1,گوینده ۱,1,52,132,4,,,,,89.16901645899998,,,,,,,,,,,,,,,,,,,,,,,,,,,,,,,,,,,,,,,,,,,,,49.95762308399935,0.0,False,49.95780362500045,376289,001,2024-07-03_14h06.03.681,5-all in one,2024.1.4,None,2024-07-03 14h06.08.833906 +0900,
Images/Speaker1.jpg,Images/Speaker2.jpg,Images/Speaker3.jpg,Images/Speaker4.jpg,Audio/Speaker3_Per/P3-13-Per.wav,Speaker3,گوینده۳,1,53,133,52,,,,,89.16901645899998,,,,,,,,,,,,,,,,,,,,,,,,,,,,,,,,,,,,,,,,,,,,,49.973359875000824,0.0,False,49.973563167000975,376289,001,2024-07-03_14h06.03.681,5-all in one,2024.1.4,None,2024-07-03 14h06.08.833906 +0900,
Images/Speaker1.jpg,Images/Speaker2.jpg,Images/Speaker3.jpg,Images/Speaker4.jpg,Audio/Speaker1_Per/P1-6-Per.wav,Speaker1,گوینده ۱,1,54,134,5,,,,,89.16901645899998,,,,,,,,,,,,,,,,,,,,,,,,,,,,,,,,,,,,,,,,,,,,,49.99004441699981,0.0,False,49.990243750000445,376289,001,2024-07-03_14h06.03.681,5-all in one,2024.1.4,None,2024-07-03 14h06.08.833906 +0900,
Images/Speaker1.jpg,Images/Speaker2.jpg,Images/Speaker3.jpg,Images/Speaker4.jpg,Audio/Speaker4_Per/P4-6-Per.wav,Speaker4,گوینده۴,1,55,135,65,,,,,89.16901645899998,,,,,,,,,,,,,,,,,,,,,,,,,,,,,,,,,,,,,,,,,,,,,50.00584379199972,0.0,False,50.00602595900091,376289,001,2024-07-03_14h06.03.681,5-all in one,2024.1.4,None,2024-07-03 14h06.08.833906 +0900,
Images/Speaker1.jpg,Images/Speaker2.jpg,Images/Speaker3.jpg,Images/Speaker4.jpg,Audio/Speaker3_Per/P3-17-Per.wav,Speaker3,گوینده۳,1,56,136,56,,,,,89.16901645899998,,,,,,,,,,,,,,,,,,,,,,,,,,,,,,,,,,,,,,,,,,,,,50.02149250000002,0.0,False,50.021656291999534,376289,001,2024-07-03_14h06.03.681,5-all in one,2024.1.4,None,2024-07-03 14h06.08.833906 +0900,
Images/Speaker1.jpg,Images/Speaker2.jpg,Images/Speaker3.jpg,Images/Speaker4.jpg,Audio/Speaker2_Per/P2-11-Per.wav,Speaker2,گوینده۲,1,57,137,30,,,,,89.16901645899998,,,,,,,,,,,,,,,,,,,,,,,,,,,,,,,,,,,,,,,,,,,,,50.03729083399958,0.0,False,50.03750720900098,376289,001,2024-07-03_14h06.03.681,5-all in one,2024.1.4,None,2024-07-03 14h06.08.833906 +0900,
Images/Speaker1.jpg,Images/Speaker2.jpg,Images/Speaker3.jpg,Images/Speaker4.jpg,Audio/Speaker2_Per/P2-3-Per.wav,Speaker2,گوینده۲,1,58,138,22,,,,,89.16901645899998,,,,,,,,,,,,,,,,,,,,,,,,,,,,,,,,,,,,,,,,,,,,,50.05427733400029,0.0,False,50.05456270899958,376289,001,2024-07-03_14h06.03.681,5-all in one,2024.1.4,None,2024-07-03 14h06.08.833906 +0900,
Images/Speaker1.jpg,Images/Speaker2.jpg,Images/Speaker3.jpg,Images/Speaker4.jpg,Audio/Speaker4_Per/P4-18-Per.wav,Speaker4,گوینده۴,1,59,139,77,,,,,89.16901645899998,,,,,,,,,,,,,,,,,,,,,,,,,,,,,,,,,,,,,,,,,,,,,50.07036779200098,0.0,False,50.070560000000114,376289,001,2024-07-03_14h06.03.681,5-all in one,2024.1.4,None,2024-07-03 14h06.08.833906 +0900,
Images/Speaker1.jpg,Images/Speaker2.jpg,Images/Speaker3.jpg,Images/Speaker4.jpg,Audio/Speaker3_Per/P3-15-Per.wav,Speaker3,گوینده۳,1,60,140,54,,,,,89.16901645899998,,,,,,,,,,,,,,,,,,,,,,,,,,,,,,,,,,,,,,,,,,,,,50.08655449999969,0.0,False,50.0867632089994,376289,001,2024-07-03_14h06.03.681,5-all in one,2024.1.4,None,2024-07-03 14h06.08.833906 +0900,
Images/Speaker1.jpg,Images/Speaker2.jpg,Images/Speaker3.jpg,Images/Speaker4.jpg,Audio/Speaker2_Per/P2-1-Per.wav,Speaker2,گوینده۲,1,61,141,20,,,,,89.16901645899998,,,,,,,,,,,,,,,,,,,,,,,,,,,,,,,,,,,,,,,,,,,,,50.102216499999486,0.0,False,50.102419167000335,376289,001,2024-07-03_14h06.03.681,5-all in one,2024.1.4,None,2024-07-03 14h06.08.833906 +0900,
Images/Speaker1.jpg,Images/Speaker2.jpg,Images/Speaker3.jpg,Images/Speaker4.jpg,Audio/Speaker1_Per/P1-20-Per.wav,Speaker1,گوینده ۱,1,62,142,19,,,,,89.16901645899998,,,,,,,,,,,,,,,,,,,,,,,,,,,,,,,,,,,,,,,,,,,,,50.11841433399968,0.0,False,50.118599041999914,376289,001,2024-07-03_14h06.03.681,5-all in one,2024.1.4,None,2024-07-03 14h06.08.833906 +0900,
Images/Speaker1.jpg,Images/Speaker2.jpg,Images/Speaker3.jpg,Images/Speaker4.jpg,Audio/Speaker4_Per/P4-9-Per.wav,Speaker4,گوینده۴,1,63,143,68,,,,,89.16901645899998,,,,,,,,,,,,,,,,,,,,,,,,,,,,,,,,,,,,,,,,,,,,,50.13445258399952,0.0,False,50.13465591699969,376289,001,2024-07-03_14h06.03.681,5-all in one,2024.1.4,None,2024-07-03 14h06.08.833906 +0900,
Images/Speaker1.jpg,Images/Speaker2.jpg,Images/Speaker3.jpg,Images/Speaker4.jpg,Audio/Speaker2_Per/P2-8-Per.wav,Speaker2,گوینده۲,1,64,144,27,,,,,89.16901645899998,,,,,,,,,,,,,,,,,,,,,,,,,,,,,,,,,,,,,,,,,,,,,50.15016645899959,0.0,False,50.150363124999785,376289,001,2024-07-03_14h06.03.681,5-all in one,2024.1.4,None,2024-07-03 14h06.08.833906 +0900,
Images/Speaker1.jpg,Images/Speaker2.jpg,Images/Speaker3.jpg,Images/Speaker4.jpg,Audio/Speaker4_Per/P4-2-Per.wav,Speaker4,گوینده۴,1,65,145,61,,,,,89.16901645899998,,,,,,,,,,,,,,,,,,,,,,,,,,,,,,,,,,,,,,,,,,,,,50.1658024999997,0.0,False,50.165981624999404,376289,001,2024-07-03_14h06.03.681,5-all in one,2024.1.4,None,2024-07-03 14h06.08.833906 +0900,
Images/Speaker1.jpg,Images/Speaker2.jpg,Images/Speaker3.jpg,Images/Speaker4.jpg,Audio/Speaker4_Per/P4-14-Per.wav,Speaker4,گوینده۴,1,66,146,73,,,,,89.16901645899998,,,,,,,,,,,,,,,,,,,,,,,,,,,,,,,,,,,,,,,,,,,,,50.18203791700034,0.0,False,50.18224479200035,376289,001,2024-07-03_14h06.03.681,5-all in one,2024.1.4,None,2024-07-03 14h06.08.833906 +0900,
Images/Speaker1.jpg,Images/Speaker2.jpg,Images/Speaker3.jpg,Images/Speaker4.jpg,Audio/Speaker3_Per/P3-3-Per.wav,Speaker3,گوینده۳,1,67,147,42,,,,,89.16901645899998,,,,,,,,,,,,,,,,,,,,,,,,,,,,,,,,,,,,,,,,,,,,,50.19767029200011,0.0,False,50.197852249999414,376289,001,2024-07-03_14h06.03.681,5-all in one,2024.1.4,None,2024-07-03 14h06.08.833906 +0900,
Images/Speaker1.jpg,Images/Speaker2.jpg,Images/Speaker3.jpg,Images/Speaker4.jpg,Audio/Speaker3_Per/P3-14-Per.wav,Speaker3,گوینده۳,1,68,148,53,,,,,89.16901645899998,,,,,,,,,,,,,,,,,,,,,,,,,,,,,,,,,,,,,,,,,,,,,50.21341216700057,0.0,False,50.213610333999895,376289,001,2024-07-03_14h06.03.681,5-all in one,2024.1.4,None,2024-07-03 14h06.08.833906 +0900,
Images/Speaker1.jpg,Images/Speaker2.jpg,Images/Speaker3.jpg,Images/Speaker4.jpg,Audio/Speaker3_Per/P3-1-Per.wav,Speaker3,گوینده۳,1,69,149,40,,,,,89.16901645899998,,,,,,,,,,,,,,,,,,,,,,,,,,,,,,,,,,,,,,,,,,,,,50.22908325000026,0.0,False,50.22926983400066,376289,001,2024-07-03_14h06.03.681,5-all in one,2024.1.4,None,2024-07-03 14h06.08.833906 +0900,
Images/Speaker1.jpg,Images/Speaker2.jpg,Images/Speaker3.jpg,Images/Speaker4.jpg,Audio/Speaker4_Per/P4-3-Per.wav,Speaker4,گوینده۴,1,70,150,62,,,,,89.16901645899998,,,,,,,,,,,,,,,,,,,,,,,,,,,,,,,,,,,,,,,,,,,,,50.24542020899935,0.0,False,50.245631499999945,376289,001,2024-07-03_14h06.03.681,5-all in one,2024.1.4,None,2024-07-03 14h06.08.833906 +0900,
Images/Speaker1.jpg,Images/Speaker2.jpg,Images/Speaker3.jpg,Images/Speaker4.jpg,Audio/Speaker3_Per/P3-16-Per.wav,Speaker3,گوینده۳,1,71,151,55,,,,,89.16901645899998,,,,,,,,,,,,,,,,,,,,,,,,,,,,,,,,,,,,,,,,,,,,,50.26139408400013,0.0,False,50.261603083999944,376289,001,2024-07-03_14h06.03.681,5-all in one,2024.1.4,None,2024-07-03 14h06.08.833906 +0900,
Images/Speaker1.jpg,Images/Speaker2.jpg,Images/Speaker3.jpg,Images/Speaker4.jpg,Audio/Speaker2_Per/P2-18-Per.wav,Speaker2,گوینده۲,1,72,152,37,,,,,89.16901645899998,,,,,,,,,,,,,,,,,,,,,,,,,,,,,,,,,,,,,,,,,,,,,50.277156000000105,0.0,False,50.277385625000534,376289,001,2024-07-03_14h06.03.681,5-all in one,2024.1.4,None,2024-07-03 14h06.08.833906 +0900,
Images/Speaker1.jpg,Images/Speaker2.jpg,Images/Speaker3.jpg,Images/Speaker4.jpg,Audio/Speaker3_Per/P3-10-Per.wav,Speaker3,گوینده۳,1,73,153,49,,,,,89.16901645899998,,,,,,,,,,,,,,,,,,,,,,,,,,,,,,,,,,,,,,,,,,,,,50.292854208999415,0.0,False,50.29304879200026,376289,001,2024-07-03_14h06.03.681,5-all in one,2024.1.4,None,2024-07-03 14h06.08.833906 +0900,
Images/Speaker1.jpg,Images/Speaker2.jpg,Images/Speaker3.jpg,Images/Speaker4.jpg,Audio/Speaker4_Per/P4-15-Per.wav,Speaker4,گوینده۴,1,74,154,74,,,,,89.16901645899998,,,,,,,,,,,,,,,,,,,,,,,,,,,,,,,,,,,,,,,,,,,,,50.3092827090004,0.0,False,50.309472291999555,376289,001,2024-07-03_14h06.03.681,5-all in one,2024.1.4,None,2024-07-03 14h06.08.833906 +0900,
Images/Speaker1.jpg,Images/Speaker2.jpg,Images/Speaker3.jpg,Images/Speaker4.jpg,Audio/Speaker3_Per/P3-9-Per.wav,Speaker3,گوینده۳,1,75,155,48,,,,,89.16901645899998,,,,,,,,,,,,,,,,,,,,,,,,,,,,,,,,,,,,,,,,,,,,,50.32502299999942,0.0,False,50.325232125000184,376289,001,2024-07-03_14h06.03.681,5-all in one,2024.1.4,None,2024-07-03 14h06.08.833906 +0900,
Images/Speaker1.jpg,Images/Speaker2.jpg,Images/Speaker3.jpg,Images/Speaker4.jpg,Audio/Speaker4_Per/P4-12-Per.wav,Speaker4,گوینده۴,1,76,156,71,,,,,89.16901645899998,,,,,,,,,,,,,,,,,,,,,,,,,,,,,,,,,,,,,,,,,,,,,50.34073641699979,0.0,False,50.34092487499947,376289,001,2024-07-03_14h06.03.681,5-all in one,2024.1.4,None,2024-07-03 14h06.08.833906 +0900,
Images/Speaker1.jpg,Images/Speaker2.jpg,Images/Speaker3.jpg,Images/Speaker4.jpg,Audio/Speaker2_Per/P2-15-Per.wav,Speaker2,گوینده۲,1,77,157,34,,,,,89.16901645899998,,,,,,,,,,,,,,,,,,,,,,,,,,,,,,,,,,,,,,,,,,,,,50.35653375000038,0.0,False,50.35672870900089,376289,001,2024-07-03_14h06.03.681,5-all in one,2024.1.4,None,2024-07-03 14h06.08.833906 +0900,
Images/Speaker1.jpg,Images/Speaker2.jpg,Images/Speaker3.jpg,Images/Speaker4.jpg,Audio/Speaker3_Per/P3-2-Per.wav,Speaker3,گوینده۳,1,78,158,41,,,,,89.16901645899998,,,,,,,,,,,,,,,,,,,,,,,,,,,,,,,,,,,,,,,,,,,,,50.37326487500104,0.0,False,50.37345991700022,376289,001,2024-07-03_14h06.03.681,5-all in one,2024.1.4,None,2024-07-03 14h06.08.833906 +0900,
Images/Speaker1.jpg,Images/Speaker2.jpg,Images/Speaker3.jpg,Images/Speaker4.jpg,Audio/Speaker4_Per/P4-10-Per.wav,Speaker4,گوینده۴,1,79,159,69,,,,,89.16901645899998,,,,,,,,,,,,,,,,,,,,,,,,,,,,,,,,,,,,,,,,,,,,,50.3895421670004,0.0,False,50.3897473750003,376289,001,2024-07-03_14h06.03.681,5-all in one,2024.1.4,None,2024-07-03 14h06.08.833906 +0900,
Images/Speaker1.jpg,Images/Speaker2.jpg,Images/Speaker3.jpg,Images/Speaker4.jpg,Audio/Speaker3_Per/P3-9-Per.wav,Speaker3,گوینده۳,2,0,160,48,,,,,89.16901645899998,,,,,,,,,,,,,,,,,,,,,,,,,,,,,,,,,,,,,,,,,,,,,50.40588575000038,0.0,False,50.4061093750006,376289,001,2024-07-03_14h06.03.681,5-all in one,2024.1.4,None,2024-07-03 14h06.08.833906 +0900,
Images/Speaker1.jpg,Images/Speaker2.jpg,Images/Speaker3.jpg,Images/Speaker4.jpg,Audio/Speaker1_Per/P1-12-Per.wav,Speaker1,گوینده ۱,2,1,161,11,,,,,89.16901645899998,,,,,,,,,,,,,,,,,,,,,,,,,,,,,,,,,,,,,,,,,,,,,50.422329749999335,0.0,False,50.422557875001075,376289,001,2024-07-03_14h06.03.681,5-all in one,2024.1.4,None,2024-07-03 14h06.08.833906 +0900,
Images/Speaker1.jpg,Images/Speaker2.jpg,Images/Speaker3.jpg,Images/Speaker4.jpg,Audio/Speaker1_Per/P1-17-Per.wav,Speaker1,گوینده ۱,2,2,162,16,,,,,89.16901645899998,,,,,,,,,,,,,,,,,,,,,,,,,,,,,,,,,,,,,,,,,,,,,50.43952887500018,0.0,False,50.43984570900102,376289,001,2024-07-03_14h06.03.681,5-all in one,2024.1.4,None,2024-07-03 14h06.08.833906 +0900,
Images/Speaker1.jpg,Images/Speaker2.jpg,Images/Speaker3.jpg,Images/Speaker4.jpg,Audio/Speaker3_Per/P3-1-Per.wav,Speaker3,گوینده۳,2,3,163,40,,,,,89.16901645899998,,,,,,,,,,,,,,,,,,,,,,,,,,,,,,,,,,,,,,,,,,,,,50.456292459000906,0.0,False,50.45654308399935,376289,001,2024-07-03_14h06.03.681,5-all in one,2024.1.4,None,2024-07-03 14h06.08.833906 +0900,
Images/Speaker1.jpg,Images/Speaker2.jpg,Images/Speaker3.jpg,Images/Speaker4.jpg,Audio/Speaker3_Per/P3-5-Per.wav,Speaker3,گوینده۳,2,4,164,44,,,,,89.16901645899998,,,,,,,,,,,,,,,,,,,,,,,,,,,,,,,,,,,,,,,,,,,,,50.47311416699995,0.0,False,50.473399500000596,376289,001,2024-07-03_14h06.03.681,5-all in one,2024.1.4,None,2024-07-03 14h06.08.833906 +0900,
Images/Speaker1.jpg,Images/Speaker2.jpg,Images/Speaker3.jpg,Images/Speaker4.jpg,Audio/Speaker2_Per/P2-5-Per.wav,Speaker2,گوینده۲,2,5,165,24,,,,,89.16901645899998,,,,,,,,,,,,,,,,,,,,,,,,,,,,,,,,,,,,,,,,,,,,,50.4895570839999,0.0,False,50.489832499999466,376289,001,2024-07-03_14h06.03.681,5-all in one,2024.1.4,None,2024-07-03 14h06.08.833906 +0900,
Images/Speaker1.jpg,Images/Speaker2.jpg,Images/Speaker3.jpg,Images/Speaker4.jpg,Audio/Speaker2_Per/P2-1-Per.wav,Speaker2,گوینده۲,2,6,166,20,,,,,89.16901645899998,,,,,,,,,,,,,,,,,,,,,,,,,,,,,,,,,,,,,,,,,,,,,50.50620433400036,0.0,False,50.506405374999304,376289,001,2024-07-03_14h06.03.681,5-all in one,2024.1.4,None,2024-07-03 14h06.08.833906 +0900,
Images/Speaker1.jpg,Images/Speaker2.jpg,Images/Speaker3.jpg,Images/Speaker4.jpg,Audio/Speaker2_Per/P2-7-Per.wav,Speaker2,گوینده۲,2,7,167,26,,,,,89.16901645899998,,,,,,,,,,,,,,,,,,,,,,,,,,,,,,,,,,,,,,,,,,,,,50.52193237500069,0.0,False,50.52216129199951,376289,001,2024-07-03_14h06.03.681,5-all in one,2024.1.4,None,2024-07-03 14h06.08.833906 +0900,
Images/Speaker1.jpg,Images/Speaker2.jpg,Images/Speaker3.jpg,Images/Speaker4.jpg,Audio/Speaker1_Per/P1-4-Per.wav,Speaker1,گوینده ۱,2,8,168,13,,,,,89.16901645899998,,,,,,,,,,,,,,,,,,,,,,,,,,,,,,,,,,,,,,,,,,,,,50.53818783399947,0.0,False,50.538395125000534,376289,001,2024-07-03_14h06.03.681,5-all in one,2024.1.4,None,2024-07-03 14h06.08.833906 +0900,
Images/Speaker1.jpg,Images/Speaker2.jpg,Images/Speaker3.jpg,Images/Speaker4.jpg,Audio/Speaker3_Per/P3-4-Per.wav,Speaker3,گوینده۳,2,9,169,43,,,,,89.16901645899998,,,,,,,,,,,,,,,,,,,,,,,,,,,,,,,,,,,,,,,,,,,,,50.55456162500013,0.0,False,50.55483883399938,376289,001,2024-07-03_14h06.03.681,5-all in one,2024.1.4,None,2024-07-03 14h06.08.833906 +0900,
Images/Speaker1.jpg,Images/Speaker2.jpg,Images/Speaker3.jpg,Images/Speaker4.jpg,Audio/Speaker1_Per/P1-6-Per.wav,Speaker1,گوینده ۱,2,10,170,5,,,,,89.16901645899998,,,,,,,,,,,,,,,,,,,,,,,,,,,,,,,,,,,,,,,,,,,,,50.57172554200042,0.0,False,50.572018625000055,376289,001,2024-07-03_14h06.03.681,5-all in one,2024.1.4,None,2024-07-03 14h06.08.833906 +0900,
Images/Speaker1.jpg,Images/Speaker2.jpg,Images/Speaker3.jpg,Images/Speaker4.jpg,Audio/Speaker4_Per/P4-11-Per.wav,Speaker4,گوینده۴,2,11,171,70,,,,,89.16901645899998,,,,,,,,,,,,,,,,,,,,,,,,,,,,,,,,,,,,,,,,,,,,,50.58767199999966,0.0,False,50.5878945000004,376289,001,2024-07-03_14h06.03.681,5-all in one,2024.1.4,None,2024-07-03 14h06.08.833906 +0900,
Images/Speaker1.jpg,Images/Speaker2.jpg,Images/Speaker3.jpg,Images/Speaker4.jpg,Audio/Speaker4_Per/P4-6-Per.wav,Speaker4,گوینده۴,2,12,172,65,,,,,89.16901645899998,,,,,,,,,,,,,,,,,,,,,,,,,,,,,,,,,,,,,,,,,,,,,50.60336074999941,0.0,False,50.60354395899958,376289,001,2024-07-03_14h06.03.681,5-all in one,2024.1.4,None,2024-07-03 14h06.08.833906 +0900,
Images/Speaker1.jpg,Images/Speaker2.jpg,Images/Speaker3.jpg,Images/Speaker4.jpg,Audio/Speaker2_Per/P2-9-Per.wav,Speaker2,گوینده۲,2,13,173,28,,,,,89.16901645899998,,,,,,,,,,,,,,,,,,,,,,,,,,,,,,,,,,,,,,,,,,,,,50.61906445900058,0.0,False,50.619257959000606,376289,001,2024-07-03_14h06.03.681,5-all in one,2024.1.4,None,2024-07-03 14h06.08.833906 +0900,
Images/Speaker1.jpg,Images/Speaker2.jpg,Images/Speaker3.jpg,Images/Speaker4.jpg,Audio/Speaker4_Per/P4-18-Per.wav,Speaker4,گوینده۴,2,14,174,77,,,,,89.16901645899998,,,,,,,,,,,,,,,,,,,,,,,,,,,,,,,,,,,,,,,,,,,,,50.63543175000086,0.0,False,50.6356644589996,376289,001,2024-07-03_14h06.03.681,5-all in one,2024.1.4,None,2024-07-03 14h06.08.833906 +0900,
Images/Speaker1.jpg,Images/Speaker2.jpg,Images/Speaker3.jpg,Images/Speaker4.jpg,Audio/Speaker1_Per/P1-8-Per.wav,Speaker1,گوینده ۱,2,15,175,7,,,,,89.16901645899998,,,,,,,,,,,,,,,,,,,,,,,,,,,,,,,,,,,,,,,,,,,,,50.65120924999974,0.0,False,50.65139470900067,376289,001,2024-07-03_14h06.03.681,5-all in one,2024.1.4,None,2024-07-03 14h06.08.833906 +0900,
Images/Speaker1.jpg,Images/Speaker2.jpg,Images/Speaker3.jpg,Images/Speaker4.jpg,Audio/Speaker1_Per/P1-11-Per.wav,Speaker1,گوینده ۱,2,16,176,10,,,,,89.16901645899998,,,,,,,,,,,,,,,,,,,,,,,,,,,,,,,,,,,,,,,,,,,,,50.66738558399993,0.0,False,50.667584584,376289,001,2024-07-03_14h06.03.681,5-all in one,2024.1.4,None,2024-07-03 14h06.08.833906 +0900,
Images/Speaker1.jpg,Images/Speaker2.jpg,Images/Speaker3.jpg,Images/Speaker4.jpg,Audio/Speaker1_Per/P1-2-Per.wav,Speaker1,گوینده ۱,2,17,177,1,,,,,89.16901645899998,,,,,,,,,,,,,,,,,,,,,,,,,,,,,,,,,,,,,,,,,,,,,50.68313195900009,0.0,False,50.6833285419998,376289,001,2024-07-03_14h06.03.681,5-all in one,2024.1.4,None,2024-07-03 14h06.08.833906 +0900,
Images/Speaker1.jpg,Images/Speaker2.jpg,Images/Speaker3.jpg,Images/Speaker4.jpg,Audio/Speaker3_Per/P3-10-Per.wav,Speaker3,گوینده۳,2,18,178,49,,,,,89.16901645899998,,,,,,,,,,,,,,,,,,,,,,,,,,,,,,,,,,,,,,,,,,,,,50.69944883400058,0.0,False,50.69962166699952,376289,001,2024-07-03_14h06.03.681,5-all in one,2024.1.4,None,2024-07-03 14h06.08.833906 +0900,
Images/Speaker1.jpg,Images/Speaker2.jpg,Images/Speaker3.jpg,Images/Speaker4.jpg,Audio/Speaker1_Per/P1-9-Per.wav,Speaker1,گوینده ۱,2,19,179,8,,,,,89.16901645899998,,,,,,,,,,,,,,,,,,,,,,,,,,,,,,,,,,,,,,,,,,,,,50.71520341699943,0.0,False,50.71537308400002,376289,001,2024-07-03_14h06.03.681,5-all in one,2024.1.4,None,2024-07-03 14h06.08.833906 +0900,
Images/Speaker1.jpg,Images/Speaker2.jpg,Images/Speaker3.jpg,Images/Speaker4.jpg,Audio/Speaker4_Per/P4-3-Per.wav,Speaker4,گوینده۴,2,20,180,62,,,,,89.16901645899998,,,,,,,,,,,,,,,,,,,,,,,,,,,,,,,,,,,,,,,,,,,,,50.730915459000244,0.0,False,50.73161695899944,376289,001,2024-07-03_14h06.03.681,5-all in one,2024.1.4,None,2024-07-03 14h06.08.833906 +0900,
Images/Speaker1.jpg,Images/Speaker2.jpg,Images/Speaker3.jpg,Images/Speaker4.jpg,Audio/Speaker4_Per/P4-5-Per.wav,Speaker4,گوینده۴,2,21,181,64,,,,,89.16901645899998,,,,,,,,,,,,,,,,,,,,,,,,,,,,,,,,,,,,,,,,,,,,,50.7473313749997,0.0,False,50.74754308400043,376289,001,2024-07-03_14h06.03.681,5-all in one,2024.1.4,None,2024-07-03 14h06.08.833906 +0900,
Images/Speaker1.jpg,Images/Speaker2.jpg,Images/Speaker3.jpg,Images/Speaker4.jpg,Audio/Speaker2_Per/P2-20-Per.wav,Speaker2,گوینده۲,2,22,182,39,,,,,89.16901645899998,,,,,,,,,,,,,,,,,,,,,,,,,,,,,,,,,,,,,,,,,,,,,50.76381924999987,0.0,False,50.76402812500055,376289,001,2024-07-03_14h06.03.681,5-all in one,2024.1.4,None,2024-07-03 14h06.08.833906 +0900,
Images/Speaker1.jpg,Images/Speaker2.jpg,Images/Speaker3.jpg,Images/Speaker4.jpg,Audio/Speaker1_Per/P1-15-Per.wav,Speaker1,گوینده ۱,2,23,183,14,,,,,89.16901645899998,,,,,,,,,,,,,,,,,,,,,,,,,,,,,,,,,,,,,,,,,,,,,50.77997520899953,0.0,False,50.780196792000424,376289,001,2024-07-03_14h06.03.681,5-all in one,2024.1.4,None,2024-07-03 14h06.08.833906 +0900,
Images/Speaker1.jpg,Images/Speaker2.jpg,Images/Speaker3.jpg,Images/Speaker4.jpg,Audio/Speaker3_Per/P3-12-Per.wav,Speaker3,گوینده۳,2,24,184,51,,,,,89.16901645899998,,,,,,,,,,,,,,,,,,,,,,,,,,,,,,,,,,,,,,,,,,,,,50.795720583999355,0.0,False,50.79603354199935,376289,001,2024-07-03_14h06.03.681,5-all in one,2024.1.4,None,2024-07-03 14h06.08.833906 +0900,
Images/Speaker1.jpg,Images/Speaker2.jpg,Images/Speaker3.jpg,Images/Speaker4.jpg,Audio/Speaker3_Per/P3-16-Per.wav,Speaker3,گوینده۳,2,25,185,55,,,,,89.16901645899998,,,,,,,,,,,,,,,,,,,,,,,,,,,,,,,,,,,,,,,,,,,,,50.81150350000098,0.0,False,50.811712791999526,376289,001,2024-07-03_14h06.03.681,5-all in one,2024.1.4,None,2024-07-03 14h06.08.833906 +0900,
Images/Speaker1.jpg,Images/Speaker2.jpg,Images/Speaker3.jpg,Images/Speaker4.jpg,Audio/Speaker3_Per/P3-11-Per.wav,Speaker3,گوینده۳,2,26,186,50,,,,,89.16901645899998,,,,,,,,,,,,,,,,,,,,,,,,,,,,,,,,,,,,,,,,,,,,,50.82797662499979,0.0,False,50.82814750000034,376289,001,2024-07-03_14h06.03.681,5-all in one,2024.1.4,None,2024-07-03 14h06.08.833906 +0900,
Images/Speaker1.jpg,Images/Speaker2.jpg,Images/Speaker3.jpg,Images/Speaker4.jpg,Audio/Speaker1_Per/P1-13-Per.wav,Speaker1,گوینده ۱,2,27,187,12,,,,,89.16901645899998,,,,,,,,,,,,,,,,,,,,,,,,,,,,,,,,,,,,,,,,,,,,,50.84362775000045,0.0,False,50.84384254200086,376289,001,2024-07-03_14h06.03.681,5-all in one,2024.1.4,None,2024-07-03 14h06.08.833906 +0900,
Images/Speaker1.jpg,Images/Speaker2.jpg,Images/Speaker3.jpg,Images/Speaker4.jpg,Audio/Speaker1_Per/P1-4-Per.wav,Speaker1,گوینده ۱,2,28,188,3,,,,,89.16901645899998,,,,,,,,,,,,,,,,,,,,,,,,,,,,,,,,,,,,,,,,,,,,,50.859375334001015,0.0,False,50.859567584000615,376289,001,2024-07-03_14h06.03.681,5-all in one,2024.1.4,None,2024-07-03 14h06.08.833906 +0900,
Images/Speaker1.jpg,Images/Speaker2.jpg,Images/Speaker3.jpg,Images/Speaker4.jpg,Audio/Speaker4_Per/P4-8-Per.wav,Speaker4,گوینده۴,2,29,189,67,,,,,89.16901645899998,,,,,,,,,,,,,,,,,,,,,,,,,,,,,,,,,,,,,,,,,,,,,50.87517420900076,0.0,False,50.87536162499964,376289,001,2024-07-03_14h06.03.681,5-all in one,2024.1.4,None,2024-07-03 14h06.08.833906 +0900,
Images/Speaker1.jpg,Images/Speaker2.jpg,Images/Speaker3.jpg,Images/Speaker4.jpg,Audio/Speaker1_Per/P1-18-Per.wav,Speaker1,گوینده ۱,2,30,190,17,,,,,89.16901645899998,,,,,,,,,,,,,,,,,,,,,,,,,,,,,,,,,,,,,,,,,,,,,50.89151091699932,0.0,False,50.891702500000974,376289,001,2024-07-03_14h06.03.681,5-all in one,2024.1.4,None,2024-07-03 14h06.08.833906 +0900,
Images/Speaker1.jpg,Images/Speaker2.jpg,Images/Speaker3.jpg,Images/Speaker4.jpg,Audio/Speaker3_Per/P3-19-Per.wav,Speaker3,گوینده۳,2,31,191,58,,,,,89.16901645899998,,,,,,,,,,,,,,,,,,,,,,,,,,,,,,,,,,,,,,,,,,,,,50.90720970899929,0.0,False,50.907419334000224,376289,001,2024-07-03_14h06.03.681,5-all in one,2024.1.4,None,2024-07-03 14h06.08.833906 +0900,
Images/Speaker1.jpg,Images/Speaker2.jpg,Images/Speaker3.jpg,Images/Speaker4.jpg,Audio/Speaker3_Per/P3-3-Per.wav,Speaker3,گوینده۳,2,32,192,42,,,,,89.16901645899998,,,,,,,,,,,,,,,,,,,,,,,,,,,,,,,,,,,,,,,,,,,,,50.922855959001026,0.0,False,50.92305191699961,376289,001,2024-07-03_14h06.03.681,5-all in one,2024.1.4,None,2024-07-03 14h06.08.833906 +0900,
Images/Speaker1.jpg,Images/Speaker2.jpg,Images/Speaker3.jpg,Images/Speaker4.jpg,Audio/Speaker4_Per/P4-14-Per.wav,Speaker4,گوینده۴,2,33,193,73,,,,,89.16901645899998,,,,,,,,,,,,,,,,,,,,,,,,,,,,,,,,,,,,,,,,,,,,,50.938510709000184,0.0,False,50.938708334000694,376289,001,2024-07-03_14h06.03.681,5-all in one,2024.1.4,None,2024-07-03 14h06.08.833906 +0900,
Images/Speaker1.jpg,Images/Speaker2.jpg,Images/Speaker3.jpg,Images/Speaker4.jpg,Audio/Speaker2_Per/P2-10-Per.wav,Speaker2,گوینده۲,2,34,194,29,,,,,89.16901645899998,,,,,,,,,,,,,,,,,,,,,,,,,,,,,,,,,,,,,,,,,,,,,50.955258459000106,0.0,False,50.95547591700051,376289,001,2024-07-03_14h06.03.681,5-all in one,2024.1.4,None,2024-07-03 14h06.08.833906 +0900,
Images/Speaker1.jpg,Images/Speaker2.jpg,Images/Speaker3.jpg,Images/Speaker4.jpg,Audio/Speaker2_Per/P2-12-Per.wav,Speaker2,گوینده۲,2,35,195,31,,,,,89.16901645899998,,,,,,,,,,,,,,,,,,,,,,,,,,,,,,,,,,,,,,,,,,,,,50.97101470900088,0.0,False,50.971227334001014,376289,001,2024-07-03_14h06.03.681,5-all in one,2024.1.4,None,2024-07-03 14h06.08.833906 +0900,
Images/Speaker1.jpg,Images/Speaker2.jpg,Images/Speaker3.jpg,Images/Speaker4.jpg,Audio/Speaker3_Per/P3-20-Per.wav,Speaker3,گوینده۳,2,36,196,59,,,,,89.16901645899998,,,,,,,,,,,,,,,,,,,,,,,,,,,,,,,,,,,,,,,,,,,,,50.986792499999865,0.0,False,50.98698887499995,376289,001,2024-07-03_14h06.03.681,5-all in one,2024.1.4,None,2024-07-03 14h06.08.833906 +0900,
Images/Speaker1.jpg,Images/Speaker2.jpg,Images/Speaker3.jpg,Images/Speaker4.jpg,Audio/Speaker2_Per/P2-18-Per.wav,Speaker2,گوینده۲,2,37,197,37,,,,,89.16901645899998,,,,,,,,,,,,,,,,,,,,,,,,,,,,,,,,,,,,,,,,,,,,,51.0025546249999,0.0,False,51.00274054200054,376289,001,2024-07-03_14h06.03.681,5-all in one,2024.1.4,None,2024-07-03 14h06.08.833906 +0900,
Images/Speaker1.jpg,Images/Speaker2.jpg,Images/Speaker3.jpg,Images/Speaker4.jpg,Audio/Speaker1_Per/P1-3-Per.wav,Speaker1,گوینده ۱,2,38,198,2,,,,,89.16901645899998,,,,,,,,,,,,,,,,,,,,,,,,,,,,,,,,,,,,,,,,,,,,,51.01885245899939,0.0,False,51.019031125000765,376289,001,2024-07-03_14h06.03.681,5-all in one,2024.1.4,None,2024-07-03 14h06.08.833906 +0900,
Images/Speaker1.jpg,Images/Speaker2.jpg,Images/Speaker3.jpg,Images/Speaker4.jpg,Audio/Speaker3_Per/P3-2-Per.wav,Speaker3,گوینده۳,2,39,199,41,,,,,89.16901645899998,,,,,,,,,,,,,,,,,,,,,,,,,,,,,,,,,,,,,,,,,,,,,51.03447333400072,0.0,False,51.03462587499962,376289,001,2024-07-03_14h06.03.681,5-all in one,2024.1.4,None,2024-07-03 14h06.08.833906 +0900,
Images/Speaker1.jpg,Images/Speaker2.jpg,Images/Speaker3.jpg,Images/Speaker4.jpg,Audio/Speaker4_Per/P4-13-Per.wav,Speaker4,گوینده۴,2,40,200,72,,,,,89.16901645899998,,,,,,,,,,,,,,,,,,,,,,,,,,,,,,,,,,,,,,,,,,,,,51.050233209,0.0,False,51.050417874999766,376289,001,2024-07-03_14h06.03.681,5-all in one,2024.1.4,None,2024-07-03 14h06.08.833906 +0900,
Images/Speaker1.jpg,Images/Speaker2.jpg,Images/Speaker3.jpg,Images/Speaker4.jpg,Audio/Speaker3_Per/P3-15-Per.wav,Speaker3,گوینده۳,2,41,201,54,,,,,89.16901645899998,,,,,,,,,,,,,,,,,,,,,,,,,,,,,,,,,,,,,,,,,,,,,51.06659700000091,0.0,False,51.0668881670008,376289,001,2024-07-03_14h06.03.681,5-all in one,2024.1.4,None,2024-07-03 14h06.08.833906 +0900,
Images/Speaker1.jpg,Images/Speaker2.jpg,Images/Speaker3.jpg,Images/Speaker4.jpg,Audio/Speaker2_Per/P2-17-Per.wav,Speaker2,گوینده۲,2,42,202,36,,,,,89.16901645899998,,,,,,,,,,,,,,,,,,,,,,,,,,,,,,,,,,,,,,,,,,,,,51.083995875000255,0.0,False,51.0842572090005,376289,001,2024-07-03_14h06.03.681,5-all in one,2024.1.4,None,2024-07-03 14h06.08.833906 +0900,
Images/Speaker1.jpg,Images/Speaker2.jpg,Images/Speaker3.jpg,Images/Speaker4.jpg,Audio/Speaker2_Per/P2-13-Per.wav,Speaker2,گوینده۲,2,43,203,32,,,,,89.16901645899998,,,,,,,,,,,,,,,,,,,,,,,,,,,,,,,,,,,,,,,,,,,,,51.1004269999994,0.0,False,51.100672292001036,376289,001,2024-07-03_14h06.03.681,5-all in one,2024.1.4,None,2024-07-03 14h06.08.833906 +0900,
Images/Speaker1.jpg,Images/Speaker2.jpg,Images/Speaker3.jpg,Images/Speaker4.jpg,Audio/Speaker4_Per/P4-12-Per.wav,Speaker4,گوینده۴,2,44,204,71,,,,,89.16901645899998,,,,,,,,,,,,,,,,,,,,,,,,,,,,,,,,,,,,,,,,,,,,,51.11691216700092,0.0,False,51.117247292000684,376289,001,2024-07-03_14h06.03.681,5-all in one,2024.1.4,None,2024-07-03 14h06.08.833906 +0900,
Images/Speaker1.jpg,Images/Speaker2.jpg,Images/Speaker3.jpg,Images/Speaker4.jpg,Audio/Speaker2_Per/P2-6-Per.wav,Speaker2,گوینده۲,2,45,205,25,,,,,89.16901645899998,,,,,,,,,,,,,,,,,,,,,,,,,,,,,,,,,,,,,,,,,,,,,51.13379729200096,0.0,False,51.13407012500102,376289,001,2024-07-03_14h06.03.681,5-all in one,2024.1.4,None,2024-07-03 14h06.08.833906 +0900,
Images/Speaker1.jpg,Images/Speaker2.jpg,Images/Speaker3.jpg,Images/Speaker4.jpg,Audio/Speaker1_Per/P1-1-Per.wav,Speaker1,گوینده ۱,2,46,206,0,,,,,89.16901645899998,,,,,,,,,,,,,,,,,,,,,,,,,,,,,,,,,,,,,,,,,,,,,51.15077233400007,0.0,False,51.150997083999755,376289,001,2024-07-03_14h06.03.681,5-all in one,2024.1.4,None,2024-07-03 14h06.08.833906 +0900,
Images/Speaker1.jpg,Images/Speaker2.jpg,Images/Speaker3.jpg,Images/Speaker4.jpg,Audio/Speaker4_Per/P4-20-Per.wav,Speaker4,گوینده۴,2,47,207,79,,,,,89.16901645899998,,,,,,,,,,,,,,,,,,,,,,,,,,,,,,,,,,,,,,,,,,,,,51.166694125000504,0.0,False,51.1668897920008,376289,001,2024-07-03_14h06.03.681,5-all in one,2024.1.4,None,2024-07-03 14h06.08.833906 +0900,
Images/Speaker1.jpg,Images/Speaker2.jpg,Images/Speaker3.jpg,Images/Speaker4.jpg,Audio/Speaker4_Per/P4-9-Per.wav,Speaker4,گوینده۴,2,48,208,68,,,,,89.16901645899998,,,,,,,,,,,,,,,,,,,,,,,,,,,,,,,,,,,,,,,,,,,,,51.18242508399999,0.0,False,51.18259412500083,376289,001,2024-07-03_14h06.03.681,5-all in one,2024.1.4,None,2024-07-03 14h06.08.833906 +0900,
Images/Speaker1.jpg,Images/Speaker2.jpg,Images/Speaker3.jpg,Images/Speaker4.jpg,Audio/Speaker2_Per/P2-14-Per.wav,Speaker2,گوینده۲,2,49,209,33,,,,,89.16901645899998,,,,,,,,,,,,,,,,,,,,,,,,,,,,,,,,,,,,,,,,,,,,,51.19814862500061,0.0,False,51.19842504200096,376289,001,2024-07-03_14h06.03.681,5-all in one,2024.1.4,None,2024-07-03 14h06.08.833906 +0900,
Images/Speaker1.jpg,Images/Speaker2.jpg,Images/Speaker3.jpg,Images/Speaker4.jpg,Audio/Speaker2_Per/P2-4-Per.wav,Speaker2,گوینده۲,2,50,210,23,,,,,89.16901645899998,,,,,,,,,,,,,,,,,,,,,,,,,,,,,,,,,,,,,,,,,,,,,51.21468825000011,0.0,False,51.21489062500041,376289,001,2024-07-03_14h06.03.681,5-all in one,2024.1.4,None,2024-07-03 14h06.08.833906 +0900,
Images/Speaker1.jpg,Images/Speaker2.jpg,Images/Speaker3.jpg,Images/Speaker4.jpg,Audio/Speaker4_Per/P4-15-Per.wav,Speaker4,گوینده۴,2,51,211,74,,,,,89.16901645899998,,,,,,,,,,,,,,,,,,,,,,,,,,,,,,,,,,,,,,,,,,,,,51.23047704199962,0.0,False,51.23067270899992,376289,001,2024-07-03_14h06.03.681,5-all in one,2024.1.4,None,2024-07-03 14h06.08.833906 +0900,
Images/Speaker1.jpg,Images/Speaker2.jpg,Images/Speaker3.jpg,Images/Speaker4.jpg,Audio/Speaker4_Per/P4-10-Per.wav,Speaker4,گوینده۴,2,52,212,69,,,,,89.16901645899998,,,,,,,,,,,,,,,,,,,,,,,,,,,,,,,,,,,,,,,,,,,,,51.24632629200096,0.0,False,51.24653175000094,376289,001,2024-07-03_14h06.03.681,5-all in one,2024.1.4,None,2024-07-03 14h06.08.833906 +0900,
Images/Speaker1.jpg,Images/Speaker2.jpg,Images/Speaker3.jpg,Images/Speaker4.jpg,Audio/Speaker3_Per/P3-17-Per.wav,Speaker3,گوینده۳,2,53,213,56,,,,,89.16901645899998,,,,,,,,,,,,,,,,,,,,,,,,,,,,,,,,,,,,,,,,,,,,,51.26214079199963,0.0,False,51.26235000000088,376289,001,2024-07-03_14h06.03.681,5-all in one,2024.1.4,None,2024-07-03 14h06.08.833906 +0900,
Images/Speaker1.jpg,Images/Speaker2.jpg,Images/Speaker3.jpg,Images/Speaker4.jpg,Audio/Speaker4_Per/P4-4-Per.wav,Speaker4,گوینده۴,2,54,214,63,,,,,89.16901645899998,,,,,,,,,,,,,,,,,,,,,,,,,,,,,,,,,,,,,,,,,,,,,51.27850758400018,0.0,False,51.278710124999634,376289,001,2024-07-03_14h06.03.681,5-all in one,2024.1.4,None,2024-07-03 14h06.08.833906 +0900,
Images/Speaker1.jpg,Images/Speaker2.jpg,Images/Speaker3.jpg,Images/Speaker4.jpg,Audio/Speaker1_Per/P1-19-Per.wav,Speaker1,گوینده ۱,2,55,215,18,,,,,89.16901645899998,,,,,,,,,,,,,,,,,,,,,,,,,,,,,,,,,,,,,,,,,,,,,51.29431620899959,0.0,False,51.29452612500063,376289,001,2024-07-03_14h06.03.681,5-all in one,2024.1.4,None,2024-07-03 14h06.08.833906 +0900,
Images/Speaker1.jpg,Images/Speaker2.jpg,Images/Speaker3.jpg,Images/Speaker4.jpg,Audio/Speaker4_Per/P4-2-Per.wav,Speaker4,گوینده۴,2,56,216,61,,,,,89.16901645899998,,,,,,,,,,,,,,,,,,,,,,,,,,,,,,,,,,,,,,,,,,,,,51.309965000000375,0.0,False,51.310156208999615,376289,001,2024-07-03_14h06.03.681,5-all in one,2024.1.4,None,2024-07-03 14h06.08.833906 +0900,
Images/Speaker1.jpg,Images/Speaker2.jpg,Images/Speaker3.jpg,Images/Speaker4.jpg,Audio/Speaker3_Per/P3-8-Per.wav,Speaker3,گوینده۳,2,57,217,47,,,,,89.16901645899998,,,,,,,,,,,,,,,,,,,,,,,,,,,,,,,,,,,,,,,,,,,,,51.325656250000975,0.0,False,51.32585704200028,376289,001,2024-07-03_14h06.03.681,5-all in one,2024.1.4,None,2024-07-03 14h06.08.833906 +0900,
Images/Speaker1.jpg,Images/Speaker2.jpg,Images/Speaker3.jpg,Images/Speaker4.jpg,Audio/Speaker1_Per/P1-10-Per.wav,Speaker1,گوینده ۱,2,58,218,9,,,,,89.16901645899998,,,,,,,,,,,,,,,,,,,,,,,,,,,,,,,,,,,,,,,,,,,,,51.34237116700024,0.0,False,51.34252679200108,376289,001,2024-07-03_14h06.03.681,5-all in one,2024.1.4,None,2024-07-03 14h06.08.833906 +0900,
Images/Speaker1.jpg,Images/Speaker2.jpg,Images/Speaker3.jpg,Images/Speaker4.jpg,Audio/Speaker2_Per/P2-16-Per.wav,Speaker2,گوینده۲,2,59,219,35,,,,,89.16901645899998,,,,,,,,,,,,,,,,,,,,,,,,,,,,,,,,,,,,,,,,,,,,,51.358056084000054,0.0,False,51.3582645839997,376289,001,2024-07-03_14h06.03.681,5-all in one,2024.1.4,None,2024-07-03 14h06.08.833906 +0900,
Images/Speaker1.jpg,Images/Speaker2.jpg,Images/Speaker3.jpg,Images/Speaker4.jpg,Audio/Speaker3_Per/P3-7-Per.wav,Speaker3,گوینده۳,2,60,220,46,,,,,89.16901645899998,,,,,,,,,,,,,,,,,,,,,,,,,,,,,,,,,,,,,,,,,,,,,51.373761209000804,0.0,False,51.37394624999979,376289,001,2024-07-03_14h06.03.681,5-all in one,2024.1.4,None,2024-07-03 14h06.08.833906 +0900,
Images/Speaker1.jpg,Images/Speaker2.jpg,Images/Speaker3.jpg,Images/Speaker4.jpg,Audio/Speaker4_Per/P4-16-Per.wav,Speaker4,گوینده۴,2,61,221,75,,,,,89.16901645899998,,,,,,,,,,,,,,,,,,,,,,,,,,,,,,,,,,,,,,,,,,,,,51.38954874999945,0.0,False,51.38974958400104,376289,001,2024-07-03_14h06.03.681,5-all in one,2024.1.4,None,2024-07-03 14h06.08.833906 +0900,
Images/Speaker1.jpg,Images/Speaker2.jpg,Images/Speaker3.jpg,Images/Speaker4.jpg,Audio/Speaker2_Per/P2-11-Per.wav,Speaker2,گوینده۲,2,62,222,30,,,,,89.16901645899998,,,,,,,,,,,,,,,,,,,,,,,,,,,,,,,,,,,,,,,,,,,,,51.405801209000856,0.0,False,51.40599266699974,376289,001,2024-07-03_14h06.03.681,5-all in one,2024.1.4,None,2024-07-03 14h06.08.833906 +0900,
Images/Speaker1.jpg,Images/Speaker2.jpg,Images/Speaker3.jpg,Images/Speaker4.jpg,Audio/Speaker4_Per/P4-7-Per.wav,Speaker4,گوینده۴,2,63,223,66,,,,,89.16901645899998,,,,,,,,,,,,,,,,,,,,,,,,,,,,,,,,,,,,,,,,,,,,,51.42153204200076,0.0,False,51.421807167000225,376289,001,2024-07-03_14h06.03.681,5-all in one,2024.1.4,None,2024-07-03 14h06.08.833906 +0900,
Images/Speaker1.jpg,Images/Speaker2.jpg,Images/Speaker3.jpg,Images/Speaker4.jpg,Audio/Speaker3_Per/P3-13-Per.wav,Speaker3,گوینده۳,2,64,224,52,,,,,89.16901645899998,,,,,,,,,,,,,,,,,,,,,,,,,,,,,,,,,,,,,,,,,,,,,51.43727462500101,0.0,False,51.437458583999614,376289,001,2024-07-03_14h06.03.681,5-all in one,2024.1.4,None,2024-07-03 14h06.08.833906 +0900,
Images/Speaker1.jpg,Images/Speaker2.jpg,Images/Speaker3.jpg,Images/Speaker4.jpg,Audio/Speaker2_Per/P2-3-Per.wav,Speaker2,گوینده۲,2,65,225,22,,,,,89.16901645899998,,,,,,,,,,,,,,,,,,,,,,,,,,,,,,,,,,,,,,,,,,,,,51.45302658400033,0.0,False,51.453195334001066,376289,001,2024-07-03_14h06.03.681,5-all in one,2024.1.4,None,2024-07-03 14h06.08.833906 +0900,
Images/Speaker1.jpg,Images/Speaker2.jpg,Images/Speaker3.jpg,Images/Speaker4.jpg,Audio/Speaker1_Per/P1-16-Per.wav,Speaker1,گوینده ۱,2,66,226,15,,,,,89.16901645899998,,,,,,,,,,,,,,,,,,,,,,,,,,,,,,,,,,,,,,,,,,,,,51.469717459000094,0.0,False,51.469930625000416,376289,001,2024-07-03_14h06.03.681,5-all in one,2024.1.4,None,2024-07-03 14h06.08.833906 +0900,
Images/Speaker1.jpg,Images/Speaker2.jpg,Images/Speaker3.jpg,Images/Speaker4.jpg,Audio/Speaker3_Per/P3-18-Per.wav,Speaker3,گوینده۳,2,67,227,57,,,,,89.16901645899998,,,,,,,,,,,,,,,,,,,,,,,,,,,,,,,,,,,,,,,,,,,,,51.48624595900037,0.0,False,51.486464292000164,376289,001,2024-07-03_14h06.03.681,5-all in one,2024.1.4,None,2024-07-03 14h06.08.833906 +0900,
Images/Speaker1.jpg,Images/Speaker2.jpg,Images/Speaker3.jpg,Images/Speaker4.jpg,Audio/Speaker2_Per/P2-19-Per.wav,Speaker2,گوینده۲,2,68,228,38,,,,,89.16901645899998,,,,,,,,,,,,,,,,,,,,,,,,,,,,,,,,,,,,,,,,,,,,,51.502052249999906,0.0,False,51.50223458400069,376289,001,2024-07-03_14h06.03.681,5-all in one,2024.1.4,None,2024-07-03 14h06.08.833906 +0900,
Images/Speaker1.jpg,Images/Speaker2.jpg,Images/Speaker3.jpg,Images/Speaker4.jpg,Audio/Speaker2_Per/P2-15-Per.wav,Speaker2,گوینده۲,2,69,229,34,,,,,89.16901645899998,,,,,,,,,,,,,,,,,,,,,,,,,,,,,,,,,,,,,,,,,,,,,51.51802183400105,0.0,False,51.518226209000204,376289,001,2024-07-03_14h06.03.681,5-all in one,2024.1.4,None,2024-07-03 14h06.08.833906 +0900,
Images/Speaker1.jpg,Images/Speaker2.jpg,Images/Speaker3.jpg,Images/Speaker4.jpg,Audio/Speaker4_Per/P4-19-Per.wav,Speaker4,گوینده۴,2,70,230,78,,,,,89.16901645899998,,,,,,,,,,,,,,,,,,,,,,,,,,,,,,,,,,,,,,,,,,,,,51.534579749999466,0.0,False,51.53476808400046,376289,001,2024-07-03_14h06.03.681,5-all in one,2024.1.4,None,2024-07-03 14h06.08.833906 +0900,
Images/Speaker1.jpg,Images/Speaker2.jpg,Images/Speaker3.jpg,Images/Speaker4.jpg,Audio/Speaker2_Per/P2-2-Per.wav,Speaker2,گوینده۲,2,71,231,21,,,,,89.16901645899998,,,,,,,,,,,,,,,,,,,,,,,,,,,,,,,,,,,,,,,,,,,,,51.55072624999957,0.0,False,51.550930458999574,376289,001,2024-07-03_14h06.03.681,5-all in one,2024.1.4,None,2024-07-03 14h06.08.833906 +0900,
Images/Speaker1.jpg,Images/Speaker2.jpg,Images/Speaker3.jpg,Images/Speaker4.jpg,Audio/Speaker3_Per/P3-14-Per.wav,Speaker3,گوینده۳,2,72,232,53,,,,,89.16901645899998,,,,,,,,,,,,,,,,,,,,,,,,,,,,,,,,,,,,,,,,,,,,,51.56664112500039,0.0,False,51.5668427920009,376289,001,2024-07-03_14h06.03.681,5-all in one,2024.1.4,None,2024-07-03 14h06.08.833906 +0900,
Images/Speaker1.jpg,Images/Speaker2.jpg,Images/Speaker3.jpg,Images/Speaker4.jpg,Audio/Speaker1_Per/P1-7-Per.wav,Speaker1,گوینده ۱,2,73,233,6,,,,,89.16901645899998,,,,,,,,,,,,,,,,,,,,,,,,,,,,,,,,,,,,,,,,,,,,,51.58276062500045,0.0,False,51.58299908399931,376289,001,2024-07-03_14h06.03.681,5-all in one,2024.1.4,None,2024-07-03 14h06.08.833906 +0900,
Images/Speaker1.jpg,Images/Speaker2.jpg,Images/Speaker3.jpg,Images/Speaker4.jpg,Audio/Speaker2_Per/P2-8-Per.wav,Speaker2,گوینده۲,2,74,234,27,,,,,89.16901645899998,,,,,,,,,,,,,,,,,,,,,,,,,,,,,,,,,,,,,,,,,,,,,51.600204917000156,0.0,False,51.600472209000145,376289,001,2024-07-03_14h06.03.681,5-all in one,2024.1.4,None,2024-07-03 14h06.08.833906 +0900,
Images/Speaker1.jpg,Images/Speaker2.jpg,Images/Speaker3.jpg,Images/Speaker4.jpg,Audio/Speaker1_Per/P1-5-Per.wav,Speaker1,گوینده ۱,2,75,235,4,,,,,89.16901645899998,,,,,,,,,,,,,,,,,,,,,,,,,,,,,,,,,,,,,,,,,,,,,51.616725875001066,0.0,False,51.61702979199981,376289,001,2024-07-03_14h06.03.681,5-all in one,2024.1.4,None,2024-07-03 14h06.08.833906 +0900,
Images/Speaker1.jpg,Images/Speaker2.jpg,Images/Speaker3.jpg,Images/Speaker4.jpg,Audio/Speaker1_Per/P1-20-Per.wav,Speaker1,گوینده ۱,2,76,236,19,,,,,89.16901645899998,,,,,,,,,,,,,,,,,,,,,,,,,,,,,,,,,,,,,,,,,,,,,51.63289900000018,0.0,False,51.63308391700048,376289,001,2024-07-03_14h06.03.681,5-all in one,2024.1.4,None,2024-07-03 14h06.08.833906 +0900,
Images/Speaker1.jpg,Images/Speaker2.jpg,Images/Speaker3.jpg,Images/Speaker4.jpg,Audio/Speaker4_Per/P4-1-Per.wav,Speaker4,گوینده۴,2,77,237,60,,,,,89.16901645899998,,,,,,,,,,,,,,,,,,,,,,,,,,,,,,,,,,,,,,,,,,,,,51.64910345899989,0.0,False,51.64935904199956,376289,001,2024-07-03_14h06.03.681,5-all in one,2024.1.4,None,2024-07-03 14h06.08.833906 +0900,
Images/Speaker1.jpg,Images/Speaker2.jpg,Images/Speaker3.jpg,Images/Speaker4.jpg,Audio/Speaker4_Per/P4-17-Per.wav,Speaker4,گوینده۴,2,78,238,76,,,,,89.16901645899998,,,,,,,,,,,,,,,,,,,,,,,,,,,,,,,,,,,,,,,,,,,,,51.66575937500056,0.0,False,51.665950250000606,376289,001,2024-07-03_14h06.03.681,5-all in one,2024.1.4,None,2024-07-03 14h06.08.833906 +0900,
Images/Speaker1.jpg,Images/Speaker2.jpg,Images/Speaker3.jpg,Images/Speaker4.jpg,Audio/Speaker3_Per/P3-6-Per.wav,Speaker3,گوینده۳,2,79,239,45,,,,,89.16901645899998,,,,,,,,,,,,,,,,,,,,,,,,,,,,,,,,,,,,,,,,,,,,,51.68174129200088,0.0,False,51.68215125000097,376289,001,2024-07-03_14h06.03.681,5-all in one,2024.1.4,None,2024-07-03 14h06.08.833906 +0900,
Images/Speaker1.jpg,Images/Speaker2.jpg,Images/Speaker3.jpg,Images/Speaker4.jpg,Audio/Speaker4_Per/P4-16-Per.wav,Speaker4,گوینده۴,3,0,240,75,,,,,89.16901645899998,,,,,,,,,,,,,,,,,,,,,,,,,,,,,,,,,,,,,,,,,,,,,51.69773625000016,0.0,False,51.69792320899978,376289,001,2024-07-03_14h06.03.681,5-all in one,2024.1.4,None,2024-07-03 14h06.08.833906 +0900,
Images/Speaker1.jpg,Images/Speaker2.jpg,Images/Speaker3.jpg,Images/Speaker4.jpg,Audio/Speaker3_Per/P3-16-Per.wav,Speaker3,گوینده۳,3,1,241,55,,,,,89.16901645899998,,,,,,,,,,,,,,,,,,,,,,,,,,,,,,,,,,,,,,,,,,,,,51.71354991699991,0.0,False,51.713753792000716,376289,001,2024-07-03_14h06.03.681,5-all in one,2024.1.4,None,2024-07-03 14h06.08.833906 +0900,
Images/Speaker1.jpg,Images/Speaker2.jpg,Images/Speaker3.jpg,Images/Speaker4.jpg,Audio/Speaker2_Per/P2-12-Per.wav,Speaker2,گوینده۲,3,2,242,31,,,,,89.16901645899998,,,,,,,,,,,,,,,,,,,,,,,,,,,,,,,,,,,,,,,,,,,,,51.72995195899966,0.0,False,51.73017437499948,376289,001,2024-07-03_14h06.03.681,5-all in one,2024.1.4,None,2024-07-03 14h06.08.833906 +0900,
Images/Speaker1.jpg,Images/Speaker2.jpg,Images/Speaker3.jpg,Images/Speaker4.jpg,Audio/Speaker4_Per/P4-20-Per.wav,Speaker4,گوینده۴,3,3,243,79,,,,,89.16901645899998,,,,,,,,,,,,,,,,,,,,,,,,,,,,,,,,,,,,,,,,,,,,,51.745948334000786,0.0,False,51.746308416999454,376289,001,2024-07-03_14h06.03.681,5-all in one,2024.1.4,None,2024-07-03 14h06.08.833906 +0900,
Images/Speaker1.jpg,Images/Speaker2.jpg,Images/Speaker3.jpg,Images/Speaker4.jpg,Audio/Speaker3_Per/P3-5-Per.wav,Speaker3,گوینده۳,3,4,244,44,,,,,89.16901645899998,,,,,,,,,,,,,,,,,,,,,,,,,,,,,,,,,,,,,,,,,,,,,51.76206045900108,0.0,False,51.76230000000032,376289,001,2024-07-03_14h06.03.681,5-all in one,2024.1.4,None,2024-07-03 14h06.08.833906 +0900,
Images/Speaker1.jpg,Images/Speaker2.jpg,Images/Speaker3.jpg,Images/Speaker4.jpg,Audio/Speaker4_Per/P4-3-Per.wav,Speaker4,گوینده۴,3,5,245,62,,,,,89.16901645899998,,,,,,,,,,,,,,,,,,,,,,,,,,,,,,,,,,,,,,,,,,,,,51.77792224999939,0.0,False,51.77816745900054,376289,001,2024-07-03_14h06.03.681,5-all in one,2024.1.4,None,2024-07-03 14h06.08.833906 +0900,
Images/Speaker1.jpg,Images/Speaker2.jpg,Images/Speaker3.jpg,Images/Speaker4.jpg,Audio/Speaker2_Per/P2-11-Per.wav,Speaker2,گوینده۲,3,6,246,30,,,,,89.16901645899998,,,,,,,,,,,,,,,,,,,,,,,,,,,,,,,,,,,,,,,,,,,,,51.79469437499938,0.0,False,51.79488516700076,376289,001,2024-07-03_14h06.03.681,5-all in one,2024.1.4,None,2024-07-03 14h06.08.833906 +0900,
Images/Speaker1.jpg,Images/Speaker2.jpg,Images/Speaker3.jpg,Images/Speaker4.jpg,Audio/Speaker2_Per/P2-5-Per.wav,Speaker2,گوینده۲,3,7,247,24,,,,,89.16901645899998,,,,,,,,,,,,,,,,,,,,,,,,,,,,,,,,,,,,,,,,,,,,,51.81048091699995,0.0,False,51.810667042000205,376289,001,2024-07-03_14h06.03.681,5-all in one,2024.1.4,None,2024-07-03 14h06.08.833906 +0900,
Images/Speaker1.jpg,Images/Speaker2.jpg,Images/Speaker3.jpg,Images/Speaker4.jpg,Audio/Speaker2_Per/P2-9-Per.wav,Speaker2,گوینده۲,3,8,248,28,,,,,89.16901645899998,,,,,,,,,,,,,,,,,,,,,,,,,,,,,,,,,,,,,,,,,,,,,51.82625745900077,0.0,False,51.826461917000415,376289,001,2024-07-03_14h06.03.681,5-all in one,2024.1.4,None,2024-07-03 14h06.08.833906 +0900,
Images/Speaker1.jpg,Images/Speaker2.jpg,Images/Speaker3.jpg,Images/Speaker4.jpg,Audio/Speaker3_Per/P3-15-Per.wav,Speaker3,گوینده۳,3,9,249,54,,,,,89.16901645899998,,,,,,,,,,,,,,,,,,,,,,,,,,,,,,,,,,,,,,,,,,,,,51.84200362500087,0.0,False,51.842194291999476,376289,001,2024-07-03_14h06.03.681,5-all in one,2024.1.4,None,2024-07-03 14h06.08.833906 +0900,
Images/Speaker1.jpg,Images/Speaker2.jpg,Images/Speaker3.jpg,Images/Speaker4.jpg,Audio/Speaker3_Per/P3-8-Per.wav,Speaker3,گوینده۳,3,10,250,47,,,,,89.16901645899998,,,,,,,,,,,,,,,,,,,,,,,,,,,,,,,,,,,,,,,,,,,,,51.85840795900003,0.0,False,51.85859675000029,376289,001,2024-07-03_14h06.03.681,5-all in one,2024.1.4,None,2024-07-03 14h06.08.833906 +0900,
Images/Speaker1.jpg,Images/Speaker2.jpg,Images/Speaker3.jpg,Images/Speaker4.jpg,Audio/Speaker4_Per/P4-5-Per.wav,Speaker4,گوینده۴,3,11,251,64,,,,,89.16901645899998,,,,,,,,,,,,,,,,,,,,,,,,,,,,,,,,,,,,,,,,,,,,,51.874180500000875,0.0,False,51.874351333999584,376289,001,2024-07-03_14h06.03.681,5-all in one,2024.1.4,None,2024-07-03 14h06.08.833906 +0900,
Images/Speaker1.jpg,Images/Speaker2.jpg,Images/Speaker3.jpg,Images/Speaker4.jpg,Audio/Speaker3_Per/P3-11-Per.wav,Speaker3,گوینده۳,3,12,252,50,,,,,89.16901645899998,,,,,,,,,,,,,,,,,,,,,,,,,,,,,,,,,,,,,,,,,,,,,51.88986004199978,0.0,False,51.890067750000526,376289,001,2024-07-03_14h06.03.681,5-all in one,2024.1.4,None,2024-07-03 14h06.08.833906 +0900,
Images/Speaker1.jpg,Images/Speaker2.jpg,Images/Speaker3.jpg,Images/Speaker4.jpg,Audio/Speaker1_Per/P1-15-Per.wav,Speaker1,گوینده ۱,3,13,253,14,,,,,89.16901645899998,,,,,,,,,,,,,,,,,,,,,,,,,,,,,,,,,,,,,,,,,,,,,51.90568291700038,0.0,False,51.90591966700049,376289,001,2024-07-03_14h06.03.681,5-all in one,2024.1.4,None,2024-07-03 14h06.08.833906 +0900,
Images/Speaker1.jpg,Images/Speaker2.jpg,Images/Speaker3.jpg,Images/Speaker4.jpg,Audio/Speaker3_Per/P3-7-Per.wav,Speaker3,گوینده۳,3,14,254,46,,,,,89.16901645899998,,,,,,,,,,,,,,,,,,,,,,,,,,,,,,,,,,,,,,,,,,,,,51.92204912499983,0.0,False,51.92222504200072,376289,001,2024-07-03_14h06.03.681,5-all in one,2024.1.4,None,2024-07-03 14h06.08.833906 +0900,
Images/Speaker1.jpg,Images/Speaker2.jpg,Images/Speaker3.jpg,Images/Speaker4.jpg,Audio/Speaker4_Per/P4-13-Per.wav,Speaker4,گوینده۴,3,15,255,72,,,,,89.16901645899998,,,,,,,,,,,,,,,,,,,,,,,,,,,,,,,,,,,,,,,,,,,,,51.937761458999375,0.0,False,51.93794012500075,376289,001,2024-07-03_14h06.03.681,5-all in one,2024.1.4,None,2024-07-03 14h06.08.833906 +0900,
Images/Speaker1.jpg,Images/Speaker2.jpg,Images/Speaker3.jpg,Images/Speaker4.jpg,Audio/Speaker2_Per/P2-20-Per.wav,Speaker2,گوینده۲,3,16,256,39,,,,,89.16901645899998,,,,,,,,,,,,,,,,,,,,,,,,,,,,,,,,,,,,,,,,,,,,,51.95353654199971,0.0,False,51.95371879199956,376289,001,2024-07-03_14h06.03.681,5-all in one,2024.1.4,None,2024-07-03 14h06.08.833906 +0900,
Images/Speaker1.jpg,Images/Speaker2.jpg,Images/Speaker3.jpg,Images/Speaker4.jpg,Audio/Speaker3_Per/P3-3-Per.wav,Speaker3,گوینده۳,3,17,257,42,,,,,89.16901645899998,,,,,,,,,,,,,,,,,,,,,,,,,,,,,,,,,,,,,,,,,,,,,51.96925191700029,0.0,False,51.969432834001054,376289,001,2024-07-03_14h06.03.681,5-all in one,2024.1.4,None,2024-07-03 14h06.08.833906 +0900,
Images/Speaker1.jpg,Images/Speaker2.jpg,Images/Speaker3.jpg,Images/Speaker4.jpg,Audio/Speaker1_Per/P1-3-Per.wav,Speaker1,گوینده ۱,3,18,258,2,,,,,89.16901645899998,,,,,,,,,,,,,,,,,,,,,,,,,,,,,,,,,,,,,,,,,,,,,51.98549558400009,0.0,False,51.9856743750006,376289,001,2024-07-03_14h06.03.681,5-all in one,2024.1.4,None,2024-07-03 14h06.08.833906 +0900,
Images/Speaker1.jpg,Images/Speaker2.jpg,Images/Speaker3.jpg,Images/Speaker4.jpg,Audio/Speaker2_Per/P2-6-Per.wav,Speaker2,گوینده۲,3,19,259,25,,,,,89.16901645899998,,,,,,,,,,,,,,,,,,,,,,,,,,,,,,,,,,,,,,,,,,,,,52.00127270899975,0.0,False,52.001468374999604,376289,001,2024-07-03_14h06.03.681,5-all in one,2024.1.4,None,2024-07-03 14h06.08.833906 +0900,
Images/Speaker1.jpg,Images/Speaker2.jpg,Images/Speaker3.jpg,Images/Speaker4.jpg,Audio/Speaker4_Per/P4-2-Per.wav,Speaker4,گوینده۴,3,20,260,61,,,,,89.16901645899998,,,,,,,,,,,,,,,,,,,,,,,,,,,,,,,,,,,,,,,,,,,,,52.017004749999614,0.0,False,52.017190083999594,376289,001,2024-07-03_14h06.03.681,5-all in one,2024.1.4,None,2024-07-03 14h06.08.833906 +0900,
Images/Speaker1.jpg,Images/Speaker2.jpg,Images/Speaker3.jpg,Images/Speaker4.jpg,Audio/Speaker2_Per/P2-2-Per.wav,Speaker2,گوینده۲,3,21,261,21,,,,,89.16901645899998,,,,,,,,,,,,,,,,,,,,,,,,,,,,,,,,,,,,,,,,,,,,,52.03286649999973,0.0,False,52.03305533400089,376289,001,2024-07-03_14h06.03.681,5-all in one,2024.1.4,None,2024-07-03 14h06.08.833906 +0900,
Images/Speaker1.jpg,Images/Speaker2.jpg,Images/Speaker3.jpg,Images/Speaker4.jpg,Audio/Speaker4_Per/P4-4-Per.wav,Speaker4,گوینده۴,3,22,262,63,,,,,89.16901645899998,,,,,,,,,,,,,,,,,,,,,,,,,,,,,,,,,,,,,,,,,,,,,52.049227666999286,0.0,False,52.04941937500007,376289,001,2024-07-03_14h06.03.681,5-all in one,2024.1.4,None,2024-07-03 14h06.08.833906 +0900,
Images/Speaker1.jpg,Images/Speaker2.jpg,Images/Speaker3.jpg,Images/Speaker4.jpg,Audio/Speaker2_Per/P2-10-Per.wav,Speaker2,گوینده۲,3,23,263,29,,,,,89.16901645899998,,,,,,,,,,,,,,,,,,,,,,,,,,,,,,,,,,,,,,,,,,,,,52.065012084000045,0.0,False,52.065195708999454,376289,001,2024-07-03_14h06.03.681,5-all in one,2024.1.4,None,2024-07-03 14h06.08.833906 +0900,
Images/Speaker1.jpg,Images/Speaker2.jpg,Images/Speaker3.jpg,Images/Speaker4.jpg,Audio/Speaker1_Per/P1-1-Per.wav,Speaker1,گوینده ۱,3,24,264,0,,,,,89.16901645899998,,,,,,,,,,,,,,,,,,,,,,,,,,,,,,,,,,,,,,,,,,,,,52.080659958999604,0.0,False,52.080867209000644,376289,001,2024-07-03_14h06.03.681,5-all in one,2024.1.4,None,2024-07-03 14h06.08.833906 +0900,
Images/Speaker1.jpg,Images/Speaker2.jpg,Images/Speaker3.jpg,Images/Speaker4.jpg,Audio/Speaker3_Per/P3-19-Per.wav,Speaker3,گوینده۳,3,25,265,58,,,,,89.16901645899998,,,,,,,,,,,,,,,,,,,,,,,,,,,,,,,,,,,,,,,,,,,,,52.096339792000435,0.0,False,52.09651591700094,376289,001,2024-07-03_14h06.03.681,5-all in one,2024.1.4,None,2024-07-03 14h06.08.833906 +0900,
Images/Speaker1.jpg,Images/Speaker2.jpg,Images/Speaker3.jpg,Images/Speaker4.jpg,Audio/Speaker3_Per/P3-10-Per.wav,Speaker3,گوینده۳,3,26,266,49,,,,,89.16901645899998,,,,,,,,,,,,,,,,,,,,,,,,,,,,,,,,,,,,,,,,,,,,,52.11264366700016,0.0,False,52.113005458999396,376289,001,2024-07-03_14h06.03.681,5-all in one,2024.1.4,None,2024-07-03 14h06.08.833906 +0900,
Images/Speaker1.jpg,Images/Speaker2.jpg,Images/Speaker3.jpg,Images/Speaker4.jpg,Audio/Speaker1_Per/P1-4-Per.wav,Speaker1,گوینده ۱,3,27,267,13,,,,,89.16901645899998,,,,,,,,,,,,,,,,,,,,,,,,,,,,,,,,,,,,,,,,,,,,,52.12850450000042,0.0,False,52.12876675000007,376289,001,2024-07-03_14h06.03.681,5-all in one,2024.1.4,None,2024-07-03 14h06.08.833906 +0900,
Images/Speaker1.jpg,Images/Speaker2.jpg,Images/Speaker3.jpg,Images/Speaker4.jpg,Audio/Speaker2_Per/P2-14-Per.wav,Speaker2,گوینده۲,3,28,268,33,,,,,89.16901645899998,,,,,,,,,,,,,,,,,,,,,,,,,,,,,,,,,,,,,,,,,,,,,52.14429050000035,0.0,False,52.14448733400059,376289,001,2024-07-03_14h06.03.681,5-all in one,2024.1.4,None,2024-07-03 14h06.08.833906 +0900,
Images/Speaker1.jpg,Images/Speaker2.jpg,Images/Speaker3.jpg,Images/Speaker4.jpg,Audio/Speaker3_Per/P3-4-Per.wav,Speaker3,گوینده۳,3,29,269,43,,,,,89.16901645899998,,,,,,,,,,,,,,,,,,,,,,,,,,,,,,,,,,,,,,,,,,,,,52.1600134170003,0.0,False,52.16022341700045,376289,001,2024-07-03_14h06.03.681,5-all in one,2024.1.4,None,2024-07-03 14h06.08.833906 +0900,
Images/Speaker1.jpg,Images/Speaker2.jpg,Images/Speaker3.jpg,Images/Speaker4.jpg,Audio/Speaker2_Per/P2-19-Per.wav,Speaker2,گوینده۲,3,30,270,38,,,,,89.16901645899998,,,,,,,,,,,,,,,,,,,,,,,,,,,,,,,,,,,,,,,,,,,,,52.17661812500046,0.0,False,52.17689537499973,376289,001,2024-07-03_14h06.03.681,5-all in one,2024.1.4,None,2024-07-03 14h06.08.833906 +0900,
Images/Speaker1.jpg,Images/Speaker2.jpg,Images/Speaker3.jpg,Images/Speaker4.jpg,Audio/Speaker1_Per/P1-18-Per.wav,Speaker1,گوینده ۱,3,31,271,17,,,,,89.16901645899998,,,,,,,,,,,,,,,,,,,,,,,,,,,,,,,,,,,,,,,,,,,,,52.19247112499943,0.0,False,52.192662417000975,376289,001,2024-07-03_14h06.03.681,5-all in one,2024.1.4,None,2024-07-03 14h06.08.833906 +0900,
Images/Speaker1.jpg,Images/Speaker2.jpg,Images/Speaker3.jpg,Images/Speaker4.jpg,Audio/Speaker2_Per/P2-3-Per.wav,Speaker2,گوینده۲,3,32,272,22,,,,,89.16901645899998,,,,,,,,,,,,,,,,,,,,,,,,,,,,,,,,,,,,,,,,,,,,,52.20820070899936,0.0,False,52.208435417000146,376289,001,2024-07-03_14h06.03.681,5-all in one,2024.1.4,None,2024-07-03 14h06.08.833906 +0900,
Images/Speaker1.jpg,Images/Speaker2.jpg,Images/Speaker3.jpg,Images/Speaker4.jpg,Audio/Speaker1_Per/P1-2-Per.wav,Speaker1,گوینده ۱,3,33,273,1,,,,,89.16901645899998,,,,,,,,,,,,,,,,,,,,,,,,,,,,,,,,,,,,,,,,,,,,,52.22386920899953,0.0,False,52.224058166999384,376289,001,2024-07-03_14h06.03.681,5-all in one,2024.1.4,None,2024-07-03 14h06.08.833906 +0900,
Images/Speaker1.jpg,Images/Speaker2.jpg,Images/Speaker3.jpg,Images/Speaker4.jpg,Audio/Speaker2_Per/P2-7-Per.wav,Speaker2,گوینده۲,3,34,274,26,,,,,89.16901645899998,,,,,,,,,,,,,,,,,,,,,,,,,,,,,,,,,,,,,,,,,,,,,52.24024500000087,0.0,False,52.24041204199966,376289,001,2024-07-03_14h06.03.681,5-all in one,2024.1.4,None,2024-07-03 14h06.08.833906 +0900,
Images/Speaker1.jpg,Images/Speaker2.jpg,Images/Speaker3.jpg,Images/Speaker4.jpg,Audio/Speaker3_Per/P3-17-Per.wav,Speaker3,گوینده۳,3,35,275,56,,,,,89.16901645899998,,,,,,,,,,,,,,,,,,,,,,,,,,,,,,,,,,,,,,,,,,,,,52.25588937500106,0.0,False,52.25607066700104,376289,001,2024-07-03_14h06.03.681,5-all in one,2024.1.4,None,2024-07-03 14h06.08.833906 +0900,
Images/Speaker1.jpg,Images/Speaker2.jpg,Images/Speaker3.jpg,Images/Speaker4.jpg,Audio/Speaker4_Per/P4-7-Per.wav,Speaker4,گوینده۴,3,36,276,66,,,,,89.16901645899998,,,,,,,,,,,,,,,,,,,,,,,,,,,,,,,,,,,,,,,,,,,,,52.271757624999736,0.0,False,52.27194570900065,376289,001,2024-07-03_14h06.03.681,5-all in one,2024.1.4,None,2024-07-03 14h06.08.833906 +0900,
Images/Speaker1.jpg,Images/Speaker2.jpg,Images/Speaker3.jpg,Images/Speaker4.jpg,Audio/Speaker3_Per/P3-1-Per.wav,Speaker3,گوینده۳,3,37,277,40,,,,,89.16901645899998,,,,,,,,,,,,,,,,,,,,,,,,,,,,,,,,,,,,,,,,,,,,,52.28734799999984,0.0,False,52.287537374999374,376289,001,2024-07-03_14h06.03.681,5-all in one,2024.1.4,None,2024-07-03 14h06.08.833906 +0900,
