SpeakerImage1,SpeakerImage2,SpeakerImage3,SpeakerImage4,TrainingSound,EnglishCorrectAnswer,PersianCorrectAnswer,repeated_TrainingLoopGroup1.thisRepN,repeated_TrainingLoopGroup1.thisTrialN,repeated_TrainingLoopGroup1.thisN,repeated_TrainingLoopGroup1.thisIndex,TrainingLoopGroup1.thisRepN,TrainingLoopGroup1.thisTrialN,TrainingLoopGroup1.thisN,TrainingLoopGroup1.thisIndex,thisRow.t,notes,trial.started,trial.stopped,GroupSelection.started,GroupInstructions.started,key_resp.started,GroupSelection.stopped,key_resp.keys,key_resp.rt,key_resp.duration,HeadphoneCheck.started,text_13.started,mouse.started,checkbox.started,HeadphoneCheck.stopped,mouse.x,mouse.y,mouse.leftButton,mouse.midButton,mouse.rightButton,mouse.time,mouse.clicked_name,Headphone_Used,Introduction.started,text_2.started,image.started,sound_8.started,text_4.started,text_2.stopped,image.stopped,text_4.stopped,image_7.started,sound_10.started,text_5.started,image_7.stopped,text_5.stopped,image_8.started,sound_12.started,text_6.started,image_8.stopped,text_6.stopped,image_9.started,sound_14.started,text_7.started,image_9.stopped,text_7.stopped,Introduction.stopped,Instructions.started,InstructionText.started,InstructionText.stopped,Instructions.stopped,InitializeExperiment.started,InitializeExperiment.stopped,TrainingGroup1.started,image_1.started,image_2.started,image_3.started,image_4.started,sound1.started,Instruction.started,ResponseKey.started,SessionNumberText.started,TrainingGroup1.stopped,feedbackText,correct_responses_group1,total_trials_group1,ResponseKey.keys,ResponseKey.rt,ResponseKey.duration,FeedbackRoutine1.started,FeedbackText.started,FeedbackRoutine1.stopped,Break.started,Break.stopped,FeedbackText.stopped,participant,session,date,expName,psychopyVersion,frameRate,expStart,
,,,,,,,,,,,,,,,,,0.008549124999262858,0.00886233300116146,,,,,,,,,,,,,,,,,,,,,,,,,,,,,,,,,,,,,,,,,,,,,,,,,,,,,,,,,,,,,,,,,,,,,,,,,393183,001,2024-08-01_15h48.48.661,5-34 ready-monolingual persian speaker,2024.1.5,None,2024-08-01 15h48.52.895279 +0900,
,,,,,,,,,,,,,,,,,,,0.008875541003362741,0.01312129099824233,0.01312129099824233,0.4548041660018498,1,0.40492445799463894,None,,,,,,,,,,,,,,,,,,,,,,,,,,,,,,,,,,,,,,,,,,,,,,,,,,,,,,,,,,,,,,,,,,393183,001,2024-08-01_15h48.48.661,5-34 ready-monolingual persian speaker,2024.1.5,None,2024-08-01 15h48.52.895279 +0900,
,,,,,,,,,,,,,,,,,,,,,,,,,,0.4548346660012612,0.4643972500052769,0.00017970899352803826,0.4643972500052769,1.223519416002091,[-0.13034623217922606],[0.26272912423625255],[1],[0],[0],[0.767993249995925],[],False,,,,,,,,,,,,,,,,,,,,,,,,,,,,,,,,,,,,,,,,,,,,,,,,,,,,,393183,001,2024-08-01_15h48.48.661,5-34 ready-monolingual persian speaker,2024.1.5,None,2024-08-01 15h48.52.895279 +0900,
,,,,,,,,,,,,,,,,,,,,,,,,,,,,,,,,,,,,,,,1.2237048329989193,1.2647847910047858,6.227901040998404,6.236386499669849,6.227901040998404,6.253426625000429,14.222899208005401,14.222899208005401,14.222899208005401,14.234989249667949,14.222899208005401,22.218858166001155,22.218858166001155,22.218858166001155,22.228375916671453,22.218858166001155,30.21676979100448,30.21676979100448,30.21676979100448,30.227782249665566,30.21676979100448,38.21404404100031,38.21404404100031,38.20381037500192,,,,,,,,,,,,,,,,,,,,,,,,,,,,,393183,001,2024-08-01_15h48.48.661,5-34 ready-monolingual persian speaker,2024.1.5,None,2024-08-01 15h48.52.895279 +0900,
,,,,,,,,,,,,,,,,,,,,,,,,,,,,,,,,,,,,,,,,,,,,,,,,,,,,,,,,,,,,,,,38.20384133300104,38.2210941250014,39.29998600000545,39.21637079100037,,,,,,,,,,,,,,,,,,,,,,,,,393183,001,2024-08-01_15h48.48.661,5-34 ready-monolingual persian speaker,2024.1.5,None,2024-08-01 15h48.52.895279 +0900,
,,,,,,,,,,,,,,,,,,,,,,,,,,,,,,,,,,,,,,,,,,,,,,,,,,,,,,,,,,,,,,,,,,,39.21638450000319,39.21652175000054,,,,,,,,,,,,,,,,,,,,,,,393183,001,2024-08-01_15h48.48.661,5-34 ready-monolingual persian speaker,2024.1.5,None,2024-08-01 15h48.52.895279 +0900,
Images/Speaker1.jpg,Images/Speaker2.jpg,Images/Speaker3.jpg,Images/Speaker4.jpg,Audio/Speaker3_Per/P3-15-Per.wav,Speaker3,گوینده۳,0,0,0,14,0,0,0,54,39.29998600000545,,,,,,,,,,,,,,,,,,,,,,,,,,,,,,,,,,,,,,,,,,,,,,,,,,,,,,39.267969874999835,39.29998600000545,39.29998600000545,39.29998600000545,39.29998600000545,39.299464874338206,39.29998600000545,39.29998600000545,39.29998600000545,41.12714062500163,نادرست! پاسخ صحیح گوینده۳ است,0,1,1,1.8134274999974878,None,41.13124775000324,41.14954500000022,43.142043749998265,43.142052082999726,43.14224337500491,,393183,001,2024-08-01_15h48.48.661,5-34 ready-monolingual persian speaker,2024.1.5,None,2024-08-01 15h48.52.895279 +0900,
Images/Speaker1.jpg,Images/Speaker2.jpg,Images/Speaker3.jpg,Images/Speaker4.jpg,Audio/Speaker1_Per/P1-13-Per.wav,Speaker1,گوینده ۱,0,0,0,14,0,1,1,12,43.16848245800065,,,,,,,,,,,,,,,,,,,,,,,,,,,,,,,,,,,,,,,,,,,,,,,,,,,,,,43.1424227910029,43.16848245800065,43.16848245800065,43.16848245800065,43.16848245800065,43.17534333333654,43.16848245800065,43.16848245800065,43.16848245800065,46.40480883300188,صحیح است,1,2,1,3.234845334001875,None,46.40502470800129,46.41514725000161,48.403438541005016,48.40346816600504,48.40375533300539,48.43731570800446,393183,001,2024-08-01_15h48.48.661,5-34 ready-monolingual persian speaker,2024.1.5,None,2024-08-01 15h48.52.895279 +0900,
Images/Speaker1.jpg,Images/Speaker2.jpg,Images/Speaker3.jpg,Images/Speaker4.jpg,Audio/Speaker2_Per/P2-15-Per.wav,Speaker2,گوینده۲,0,0,0,14,0,2,2,34,48.43731570800446,,,,,,,,,,,,,,,,,,,,,,,,,,,,,,,,,,,,,,,,,,,,,,,,,,,,,,48.404750333000266,48.43731570800446,48.43731570800446,48.43731570800446,48.43731570800446,48.435990833335865,48.43731570800446,48.43731570800446,48.43731570800446,48.94704529100272,نادرست! پاسخ صحیح گوینده۲ است,1,3,1,0.5006799170005252,None,48.95132191599987,48.9626518330042,50.957337833002384,50.957368125003995,50.95818166599929,,393183,001,2024-08-01_15h48.48.661,5-34 ready-monolingual persian speaker,2024.1.5,None,2024-08-01 15h48.52.895279 +0900,
Images/Speaker1.jpg,Images/Speaker2.jpg,Images/Speaker3.jpg,Images/Speaker4.jpg,Audio/Speaker2_Per/P2-6-Per.wav,Speaker2,گوینده۲,0,0,0,14,0,3,3,25,50.98849166600121,,,,,,,,,,,,,,,,,,,,,,,,,,,,,,,,,,,,,,,,,,,,,,,,,,,,,,50.959188125001674,50.98849166600121,50.98849166600121,50.98849166600121,50.98849166600121,50.99051154133534,50.98849166600121,50.98849166600121,50.98849166600121,51.133507833001204,نادرست! پاسخ صحیح گوینده۲ است,1,4,1,0.1429992499979562,None,51.13727720799943,51.14800166599889,53.138087416002236,53.1381330410004,53.13850975000241,53.168183250003494,393183,001,2024-08-01_15h48.48.661,5-34 ready-monolingual persian speaker,2024.1.5,None,2024-08-01 15h48.52.895279 +0900,
Images/Speaker1.jpg,Images/Speaker2.jpg,Images/Speaker3.jpg,Images/Speaker4.jpg,Audio/Speaker1_Per/P1-19-Per.wav,Speaker1,گوینده ۱,0,0,0,14,0,4,4,18,53.168183250003494,,,,,,,,,,,,,,,,,,,,,,,,,,,,,,,,,,,,,,,,,,,,,,,,,,,,,,53.139440124999965,53.168183250003494,53.168183250003494,53.168183250003494,53.168183250003494,53.17026574933746,53.168183250003494,53.168183250003494,53.168183250003494,53.27835466599936,صحیح است,2,5,1,0.10049995799636235,None,53.28257383299933,53.29069724999863,55.27636316600547,55.27637495800445,55.276535375000094,55.30324883299909,393183,001,2024-08-01_15h48.48.661,5-34 ready-monolingual persian speaker,2024.1.5,None,2024-08-01 15h48.52.895279 +0900,
Images/Speaker1.jpg,Images/Speaker2.jpg,Images/Speaker3.jpg,Images/Speaker4.jpg,Audio/Speaker3_Per/P3-13-Per.wav,Speaker3,گوینده۳,0,0,0,14,0,5,5,52,55.30324883299909,,,,,,,,,,,,,,,,,,,,,,,,,,,,,,,,,,,,,,,,,,,,,,,,,,,,,,55.2767323750013,55.30324883299909,55.30324883299909,55.30324883299909,55.30324883299909,55.30945866633604,55.30324883299909,55.30324883299909,55.30324883299909,55.517106250001234,نادرست! پاسخ صحیح گوینده۳ است,2,6,1,0.21166908300074283,None,55.52128950000042,55.53261337499862,57.52060879100463,57.52061841600516,57.52076195800328,57.54665195800044,393183,001,2024-08-01_15h48.48.661,5-34 ready-monolingual persian speaker,2024.1.5,None,2024-08-01 15h48.52.895279 +0900,
Images/Speaker1.jpg,Images/Speaker2.jpg,Images/Speaker3.jpg,Images/Speaker4.jpg,Audio/Speaker4_Per/P4-10-Per.wav,Speaker4,گوینده۴,0,0,0,14,0,6,6,69,57.54665195800044,,,,,,,,,,,,,,,,,,,,,,,,,,,,,,,,,,,,,,,,,,,,,,,,,,,,,,57.5209341660011,57.54665195800044,57.54665195800044,57.54665195800044,57.54665195800044,57.55369054133237,57.54665195800044,57.54665195800044,57.54665195800044,57.70912279099866,نادرست! پاسخ صحیح گوینده۴ است,2,7,1,0.15718300000298768,None,57.712852041004226,57.724011833000986,59.70763004100445,59.70764258300187,59.707779249998566,59.73672250000527,393183,001,2024-08-01_15h48.48.661,5-34 ready-monolingual persian speaker,2024.1.5,None,2024-08-01 15h48.52.895279 +0900,
Images/Speaker1.jpg,Images/Speaker2.jpg,Images/Speaker3.jpg,Images/Speaker4.jpg,Audio/Speaker3_Per/P3-14-Per.wav,Speaker3,گوینده۳,0,0,0,14,0,7,7,53,59.73672250000527,,,,,,,,,,,,,,,,,,,,,,,,,,,,,,,,,,,,,,,,,,,,,,,,,,,,,,59.70795412499865,59.73672250000527,59.73672250000527,59.73672250000527,59.73672250000527,59.74077945833463,59.73672250000527,59.73672250000527,59.73672250000527,60.196196458004124,نادرست! پاسخ صحیح گوینده۳ است,2,8,1,0.4555795420019422,None,60.20039783300308,60.2116678329985,62.20020220800507,62.2002122910053,62.20034637500066,62.22780266599875,393183,001,2024-08-01_15h48.48.661,5-34 ready-monolingual persian speaker,2024.1.5,None,2024-08-01 15h48.52.895279 +0900,
Images/Speaker1.jpg,Images/Speaker2.jpg,Images/Speaker3.jpg,Images/Speaker4.jpg,Audio/Speaker3_Per/P3-10-Per.wav,Speaker3,گوینده۳,0,0,0,14,0,8,8,49,62.22780266599875,,,,,,,,,,,,,,,,,,,,,,,,,,,,,,,,,,,,,,,,,,,,,,,,,,,,,,62.20052770800248,62.22780266599875,62.22780266599875,62.22780266599875,62.22780266599875,62.23331412433666,62.22780266599875,62.22780266599875,62.22780266599875,62.28306616600457,نادرست! پاسخ صحیح گوینده۳ است,2,9,1,0.04969862500001909,None,62.2869412910004,62.29844445799972,64.28530233300262,64.28531099999964,64.28547858299862,64.31148616599967,393183,001,2024-08-01_15h48.48.661,5-34 ready-monolingual persian speaker,2024.1.5,None,2024-08-01 15h48.52.895279 +0900,
Images/Speaker1.jpg,Images/Speaker2.jpg,Images/Speaker3.jpg,Images/Speaker4.jpg,Audio/Speaker1_Per/P1-6-Per.wav,Speaker1,گوینده ۱,0,0,0,14,0,9,9,5,64.31148616599967,,,,,,,,,,,,,,,,,,,,,,,,,,,,,,,,,,,,,,,,,,,,,,,,,,,,,,64.28568345800159,64.31148616599967,64.31148616599967,64.31148616599967,64.31148616599967,64.31838299933636,64.31148616599967,64.31148616599967,64.31148616599967,64.63930791600433,صحیح است,3,10,1,0.31796637500519864,None,64.64353629100515,64.65417600000364,66.64754883300338,66.64757924999867,66.64814625000145,,393183,001,2024-08-01_15h48.48.661,5-34 ready-monolingual persian speaker,2024.1.5,None,2024-08-01 15h48.52.895279 +0900,
Images/Speaker1.jpg,Images/Speaker2.jpg,Images/Speaker3.jpg,Images/Speaker4.jpg,Audio/Speaker4_Per/P4-13-Per.wav,Speaker4,گوینده۴,0,0,0,14,0,10,10,72,66.67738395799825,,,,,,,,,,,,,,,,,,,,,,,,,,,,,,,,,,,,,,,,,,,,,,,,,,,,,,66.64899375000095,66.67738395799825,66.67738395799825,66.67738395799825,66.67738395799825,66.68071374933837,66.67738395799825,66.67738395799825,66.67738395799825,66.9561955829995,نادرست! پاسخ صحیح گوینده۴ است,3,11,1,0.26689858300233027,None,66.96010454100178,66.97090112500155,68.96551325000473,68.96552366600372,68.96574816600332,,393183,001,2024-08-01_15h48.48.661,5-34 ready-monolingual persian speaker,2024.1.5,None,2024-08-01 15h48.52.895279 +0900,
Images/Speaker1.jpg,Images/Speaker2.jpg,Images/Speaker3.jpg,Images/Speaker4.jpg,Audio/Speaker3_Per/P3-9-Per.wav,Speaker3,گوینده۳,0,0,0,14,0,11,11,48,68.99098095799854,,,,,,,,,,,,,,,,,,,,,,,,,,,,,,,,,,,,,,,,,,,,,,,,,,,,,,68.96594716600521,68.99098095799854,68.99098095799854,68.99098095799854,68.99098095799854,68.99879941633165,68.99098095799854,68.99098095799854,68.99098095799854,69.22693316599907,نادرست! پاسخ صحیح گوینده۳ است,3,12,1,0.2349424169951817,None,69.23072104099992,69.24194704100228,71.22989620800217,71.22991970799922,71.23005458300031,71.25591325000278,393183,001,2024-08-01_15h48.48.661,5-34 ready-monolingual persian speaker,2024.1.5,None,2024-08-01 15h48.52.895279 +0900,
Images/Speaker1.jpg,Images/Speaker2.jpg,Images/Speaker3.jpg,Images/Speaker4.jpg,Audio/Speaker1_Per/P1-18-Per.wav,Speaker1,گوینده ۱,0,0,0,14,0,12,12,17,71.25591325000278,,,,,,,,,,,,,,,,,,,,,,,,,,,,,,,,,,,,,,,,,,,,,,,,,,,,,,71.23034129100415,71.25591325000278,71.25591325000278,71.25591325000278,71.25591325000278,71.26298904133776,71.25591325000278,71.25591325000278,71.25591325000278,71.43387695799902,صحیح است,4,13,1,0.1765809580028872,None,71.43791541600513,71.44854633299838,73.43845362499997,73.43850716599991,73.43921083299938,,393183,001,2024-08-01_15h48.48.661,5-34 ready-monolingual persian speaker,2024.1.5,None,2024-08-01 15h48.52.895279 +0900,
Images/Speaker1.jpg,Images/Speaker2.jpg,Images/Speaker3.jpg,Images/Speaker4.jpg,Audio/Speaker1_Per/P1-20-Per.wav,Speaker1,گوینده ۱,0,0,0,14,0,13,13,19,73.4681201659987,,,,,,,,,,,,,,,,,,,,,,,,,,,,,,,,,,,,,,,,,,,,,,,,,,,,,,73.44008458300232,73.4681201659987,73.4681201659987,73.4681201659987,73.4681201659987,73.47162749933389,73.4681201659987,73.4681201659987,73.4681201659987,73.65470354100398,صحیح است,5,14,1,0.1856029580012546,None,73.65888787500444,73.66954216600425,75.66245383299974,75.66246241600311,75.66260204100399,,393183,001,2024-08-01_15h48.48.661,5-34 ready-monolingual persian speaker,2024.1.5,None,2024-08-01 15h48.52.895279 +0900,
Images/Speaker1.jpg,Images/Speaker2.jpg,Images/Speaker3.jpg,Images/Speaker4.jpg,Audio/Speaker3_Per/P3-8-Per.wav,Speaker3,گوینده۳,0,0,0,14,0,14,14,47,75.6891510830028,,,,,,,,,,,,,,,,,,,,,,,,,,,,,,,,,,,,,,,,,,,,,,,,,,,,,,75.6627931250041,75.6891510830028,75.6891510830028,75.6891510830028,75.6891510830028,75.69574283333398,75.6891510830028,75.6891510830028,75.6891510830028,75.9365196660001,نادرست! پاسخ صحیح گوینده۳ است,5,15,1,0.2451611659998889,None,75.94042199999967,75.95166004099883,77.94865183300135,77.94867912500195,77.9492963330049,,393183,001,2024-08-01_15h48.48.661,5-34 ready-monolingual persian speaker,2024.1.5,None,2024-08-01 15h48.52.895279 +0900,
Images/Speaker1.jpg,Images/Speaker2.jpg,Images/Speaker3.jpg,Images/Speaker4.jpg,Audio/Speaker4_Per/P4-5-Per.wav,Speaker4,گوینده۴,0,0,0,14,0,15,15,64,77.97936270799983,,,,,,,,,,,,,,,,,,,,,,,,,,,,,,,,,,,,,,,,,,,,,,,,,,,,,,77.95031274999928,77.97936270799983,77.97936270799983,77.97936270799983,77.97936270799983,77.98179470833614,77.97936270799983,77.97936270799983,77.97936270799983,78.18184116599878,نادرست! پاسخ صحیح گوینده۴ است,5,16,1,0.19814304199826438,None,78.18586429100105,78.19709808300104,80.18618399999832,80.18620912500046,80.18678029099829,,393183,001,2024-08-01_15h48.48.661,5-34 ready-monolingual persian speaker,2024.1.5,None,2024-08-01 15h48.52.895279 +0900,
Images/Speaker1.jpg,Images/Speaker2.jpg,Images/Speaker3.jpg,Images/Speaker4.jpg,Audio/Speaker4_Per/P4-18-Per.wav,Speaker4,گوینده۴,0,0,0,14,0,16,16,77,80.21468908300449,,,,,,,,,,,,,,,,,,,,,,,,,,,,,,,,,,,,,,,,,,,,,,,,,,,,,,80.18767674999981,80.21468908300449,80.21468908300449,80.21468908300449,80.21468908300449,80.21934499933607,80.21468908300449,80.21468908300449,80.21468908300449,80.2984298750016,نادرست! پاسخ صحیح گوینده۴ است,5,17,1,0.07913437499519205,None,80.30271520800306,80.3141142500026,82.29957799999829,82.29958750000515,82.29973462500493,82.32344412500242,393183,001,2024-08-01_15h48.48.661,5-34 ready-monolingual persian speaker,2024.1.5,None,2024-08-01 15h48.52.895279 +0900,
Images/Speaker1.jpg,Images/Speaker2.jpg,Images/Speaker3.jpg,Images/Speaker4.jpg,Audio/Speaker1_Per/P1-11-Per.wav,Speaker1,گوینده ۱,0,0,0,14,0,17,17,10,82.32344412500242,,,,,,,,,,,,,,,,,,,,,,,,,,,,,,,,,,,,,,,,,,,,,,,,,,,,,,82.29990945800091,82.32344412500242,82.32344412500242,82.32344412500242,82.32344412500242,82.33264795833432,82.32344412500242,82.32344412500242,82.32344412500242,82.45260016600514,صحیح است,6,18,1,0.1225415829976555,None,82.45641120800428,82.46674433300359,84.45833004100132,84.4583391250053,84.45850604100269,,393183,001,2024-08-01_15h48.48.661,5-34 ready-monolingual persian speaker,2024.1.5,None,2024-08-01 15h48.52.895279 +0900,
Images/Speaker1.jpg,Images/Speaker2.jpg,Images/Speaker3.jpg,Images/Speaker4.jpg,Audio/Speaker4_Per/P4-9-Per.wav,Speaker4,گوینده۴,0,0,0,14,0,18,18,68,84.4832240830001,,,,,,,,,,,,,,,,,,,,,,,,,,,,,,,,,,,,,,,,,,,,,,,,,,,,,,84.45868808300293,84.4832240830001,84.4832240830001,84.4832240830001,84.4832240830001,84.49162837433735,84.4832240830001,84.4832240830001,84.4832240830001,84.9505379580005,نادرست! پاسخ صحیح گوینده۴ است,6,19,1,0.4577163330031908,None,84.95456562500476,84.96563995800534,86.9614858749992,86.96149462500034,86.96167904100002,,393183,001,2024-08-01_15h48.48.661,5-34 ready-monolingual persian speaker,2024.1.5,None,2024-08-01 15h48.52.895279 +0900,
Images/Speaker1.jpg,Images/Speaker2.jpg,Images/Speaker3.jpg,Images/Speaker4.jpg,Audio/Speaker1_Per/P1-12-Per.wav,Speaker1,گوینده ۱,0,0,0,14,0,19,19,11,86.98532870800409,,,,,,,,,,,,,,,,,,,,,,,,,,,,,,,,,,,,,,,,,,,,,,,,,,,,,,86.96184829100093,86.98532870800409,86.98532870800409,86.98532870800409,86.98532870800409,86.99477858333606,86.98532870800409,86.98532870800409,86.98532870800409,87.19771000000037,صحیح است,7,20,1,0.20958366699778708,None,87.20144220800285,87.21222370800388,89.20102837499871,89.20105945799878,89.20136674999958,89.2299885829998,393183,001,2024-08-01_15h48.48.661,5-34 ready-monolingual persian speaker,2024.1.5,None,2024-08-01 15h48.52.895279 +0900,
Images/Speaker1.jpg,Images/Speaker2.jpg,Images/Speaker3.jpg,Images/Speaker4.jpg,Audio/Speaker4_Per/P4-11-Per.wav,Speaker4,گوینده۴,0,0,0,14,0,20,20,70,89.2299885829998,,,,,,,,,,,,,,,,,,,,,,,,,,,,,,,,,,,,,,,,,,,,,,,,,,,,,,89.20185683300224,89.2299885829998,89.2299885829998,89.2299885829998,89.2299885829998,89.23347783333205,89.2299885829998,89.2299885829998,89.2299885829998,89.50036520800495,نادرست! پاسخ صحیح گوینده۴ است,7,21,1,0.26942616699670907,None,89.50427350000245,89.51555879100488,91.5075862080048,91.50759495799866,91.50774141600414,,393183,001,2024-08-01_15h48.48.661,5-34 ready-monolingual persian speaker,2024.1.5,None,2024-08-01 15h48.52.895279 +0900,
Images/Speaker1.jpg,Images/Speaker2.jpg,Images/Speaker3.jpg,Images/Speaker4.jpg,Audio/Speaker3_Per/P3-5-Per.wav,Speaker3,گوینده۳,0,0,0,14,0,21,21,44,91.53302679100307,,,,,,,,,,,,,,,,,,,,,,,,,,,,,,,,,,,,,,,,,,,,,,,,,,,,,,91.50794991599832,91.53302679100307,91.53302679100307,91.53302679100307,91.53302679100307,91.54087574933558,91.53302679100307,91.53302679100307,91.53302679100307,91.79315041600057,نادرست! پاسخ صحیح گوینده۳ است,7,22,1,0.2589368339977227,None,91.79713220800477,91.80791720800335,93.80402895800216,93.80405529100244,93.80471224999928,,393183,001,2024-08-01_15h48.48.661,5-34 ready-monolingual persian speaker,2024.1.5,None,2024-08-01 15h48.52.895279 +0900,
Images/Speaker1.jpg,Images/Speaker2.jpg,Images/Speaker3.jpg,Images/Speaker4.jpg,Audio/Speaker3_Per/P3-7-Per.wav,Speaker3,گوینده۳,0,0,0,14,0,22,22,46,93.83050370799901,,,,,,,,,,,,,,,,,,,,,,,,,,,,,,,,,,,,,,,,,,,,,,,,,,,,,,93.80564545800007,93.83050370799901,93.83050370799901,93.83050370799901,93.83050370799901,93.83717066633156,93.83050370799901,93.83050370799901,93.83050370799901,94.03957416600315,نادرست! پاسخ صحیح گوینده۳ است,7,23,1,0.20133241599978646,None,94.04366412500531,94.05229170800158,96.04046537500108,96.04047566599911,96.04062687500118,96.06551745800243,393183,001,2024-08-01_15h48.48.661,5-34 ready-monolingual persian speaker,2024.1.5,None,2024-08-01 15h48.52.895279 +0900,
Images/Speaker1.jpg,Images/Speaker2.jpg,Images/Speaker3.jpg,Images/Speaker4.jpg,Audio/Speaker4_Per/P4-4-Per.wav,Speaker4,گوینده۴,0,0,0,14,0,23,23,63,96.06551745800243,,,,,,,,,,,,,,,,,,,,,,,,,,,,,,,,,,,,,,,,,,,,,,,,,,,,,,96.04080558300484,96.06551745800243,96.06551745800243,96.06551745800243,96.06551745800243,96.07357408333385,96.06551745800243,96.06551745800243,96.06551745800243,96.14806283300277,نادرست! پاسخ صحیح گوینده۴ است,7,24,1,0.08149491700169165,None,96.15181479100283,96.16341029100295,98.14629095800046,98.14630475000013,98.14644224999938,98.17200570800196,393183,001,2024-08-01_15h48.48.661,5-34 ready-monolingual persian speaker,2024.1.5,None,2024-08-01 15h48.52.895279 +0900,
Images/Speaker1.jpg,Images/Speaker2.jpg,Images/Speaker3.jpg,Images/Speaker4.jpg,Audio/Speaker3_Per/P3-20-Per.wav,Speaker3,گوینده۳,0,0,0,14,0,24,24,59,98.17200570800196,,,,,,,,,,,,,,,,,,,,,,,,,,,,,,,,,,,,,,,,,,,,,,,,,,,,,,98.14667175000068,98.17200570800196,98.17200570800196,98.17200570800196,98.17200570800196,98.17929662433792,98.17200570800196,98.17200570800196,98.17200570800196,98.37390637500357,نادرست! پاسخ صحیح گوینده۳ است,7,25,1,0.19115070800035028,None,98.37774958299997,98.38646012500249,100.3753498330043,100.37537266599975,100.3755595410039,100.40360829100246,393183,001,2024-08-01_15h48.48.661,5-34 ready-monolingual persian speaker,2024.1.5,None,2024-08-01 15h48.52.895279 +0900,
Images/Speaker1.jpg,Images/Speaker2.jpg,Images/Speaker3.jpg,Images/Speaker4.jpg,Audio/Speaker1_Per/P1-8-Per.wav,Speaker1,گوینده ۱,0,0,0,14,0,25,25,7,100.40360829100246,,,,,,,,,,,,,,,,,,,,,,,,,,,,,,,,,,,,,,,,,,,,,,,,,,,,,,100.37577158299973,100.40360829100246,100.40360829100246,100.40360829100246,100.40360829100246,100.40807008333698,100.40360829100246,100.40360829100246,100.40360829100246,100.8814710000006,صحیح است,8,26,1,0.4761954580026213,None,100.88527529100247,100.89540391600167,102.89171358300518,102.89172300000064,102.89188375000231,,393183,001,2024-08-01_15h48.48.661,5-34 ready-monolingual persian speaker,2024.1.5,None,2024-08-01 15h48.52.895279 +0900,
Images/Speaker1.jpg,Images/Speaker2.jpg,Images/Speaker3.jpg,Images/Speaker4.jpg,Audio/Speaker3_Per/P3-1-Per.wav,Speaker3,گوینده۳,0,0,0,14,0,26,26,40,102.9171533330009,,,,,,,,,,,,,,,,,,,,,,,,,,,,,,,,,,,,,,,,,,,,,,,,,,,,,,102.89205716599827,102.9171533330009,102.9171533330009,102.9171533330009,102.9171533330009,102.92501004133422,102.9171533330009,102.9171533330009,102.9171533330009,103.30499895800313,نادرست! پاسخ صحیح گوینده۳ است,8,27,1,0.38630750000447733,None,103.30871579100494,103.31926645799831,105.30905283299944,105.30908983300469,105.3098349580032,,393183,001,2024-08-01_15h48.48.661,5-34 ready-monolingual persian speaker,2024.1.5,None,2024-08-01 15h48.52.895279 +0900,
Images/Speaker1.jpg,Images/Speaker2.jpg,Images/Speaker3.jpg,Images/Speaker4.jpg,Audio/Speaker1_Per/P1-7-Per.wav,Speaker1,گوینده ۱,0,0,0,14,0,27,27,6,105.33706308300316,,,,,,,,,,,,,,,,,,,,,,,,,,,,,,,,,,,,,,,,,,,,,,,,,,,,,,105.31046995799989,105.33706308300316,105.33706308300316,105.33706308300316,105.33706308300316,105.34219195833478,105.33706308300316,105.33706308300316,105.33706308300316,105.59765429099934,صحیح است,9,28,1,0.2593652089999523,None,105.60154275000241,105.61237841600087,107.59568358300021,107.59569762500178,107.5960425000012,107.62053887500224,393183,001,2024-08-01_15h48.48.661,5-34 ready-monolingual persian speaker,2024.1.5,None,2024-08-01 15h48.52.895279 +0900,
Images/Speaker1.jpg,Images/Speaker2.jpg,Images/Speaker3.jpg,Images/Speaker4.jpg,Audio/Speaker2_Per/P2-17-Per.wav,Speaker2,گوینده۲,0,0,0,14,0,28,28,36,107.62053887500224,,,,,,,,,,,,,,,,,,,,,,,,,,,,,,,,,,,,,,,,,,,,,,,,,,,,,,107.5962167079997,107.62053887500224,107.62053887500224,107.62053887500224,107.62053887500224,107.62881412433538,107.62053887500224,107.62053887500224,107.62053887500224,108.07950262500526,نادرست! پاسخ صحیح گوینده۲ است,9,29,1,0.45071883300261106,None,108.08375133300433,108.09299675000511,110.08466174999921,110.08469233300275,110.08536983300291,,393183,001,2024-08-01_15h48.48.661,5-34 ready-monolingual persian speaker,2024.1.5,None,2024-08-01 15h48.52.895279 +0900,
Images/Speaker1.jpg,Images/Speaker2.jpg,Images/Speaker3.jpg,Images/Speaker4.jpg,Audio/Speaker3_Per/P3-4-Per.wav,Speaker3,گوینده۳,0,0,0,14,0,29,29,43,110.11387795799965,,,,,,,,,,,,,,,,,,,,,,,,,,,,,,,,,,,,,,,,,,,,,,,,,,,,,,110.0860969580026,110.11387795799965,110.11387795799965,110.11387795799965,110.11387795799965,110.1178028333384,110.11387795799965,110.11387795799965,110.11387795799965,110.2492086659986,نادرست! پاسخ صحیح گوینده۳ است,9,30,1,0.12403291699592955,None,110.25311454100301,110.26222995800345,112.25018475000252,112.25019466600497,112.25034683300328,112.27517762500065,393183,001,2024-08-01_15h48.48.661,5-34 ready-monolingual persian speaker,2024.1.5,None,2024-08-01 15h48.52.895279 +0900,
Images/Speaker1.jpg,Images/Speaker2.jpg,Images/Speaker3.jpg,Images/Speaker4.jpg,Audio/Speaker3_Per/P3-17-Per.wav,Speaker3,گوینده۳,0,0,0,14,0,30,30,56,112.27517762500065,,,,,,,,,,,,,,,,,,,,,,,,,,,,,,,,,,,,,,,,,,,,,,,,,,,,,,112.25054208299844,112.27517762500065,112.27517762500065,112.27517762500065,112.27517762500065,112.28328745833326,112.27517762500065,112.27517762500065,112.27517762500065,112.6071609999999,نادرست! پاسخ صحیح گوینده۳ است,9,31,1,0.3217685830022674,None,112.61126166600297,112.62266741599888,114.6111782500011,114.61121791600453,114.61170354099886,114.63999366600183,393183,001,2024-08-01_15h48.48.661,5-34 ready-monolingual persian speaker,2024.1.5,None,2024-08-01 15h48.52.895279 +0900,
Images/Speaker1.jpg,Images/Speaker2.jpg,Images/Speaker3.jpg,Images/Speaker4.jpg,Audio/Speaker1_Per/P1-4-Per.wav,Speaker1,گوینده ۱,0,0,0,14,0,31,31,3,114.63999366600183,,,,,,,,,,,,,,,,,,,,,,,,,,,,,,,,,,,,,,,,,,,,,,,,,,,,,,114.61272100000497,114.63999366600183,114.63999366600183,114.63999366600183,114.63999366600183,114.64371854133836,114.63999366600183,114.63999366600183,114.63999366600183,114.86486166599934,صحیح است,10,32,1,0.221728249998705,None,114.86882124999829,114.87936374999845,116.86194162500033,116.86195125000086,116.86209462500119,116.88798208300432,393183,001,2024-08-01_15h48.48.661,5-34 ready-monolingual persian speaker,2024.1.5,None,2024-08-01 15h48.52.895279 +0900,
Images/Speaker1.jpg,Images/Speaker2.jpg,Images/Speaker3.jpg,Images/Speaker4.jpg,Audio/Speaker1_Per/P1-9-Per.wav,Speaker1,گوینده ۱,0,0,0,14,0,32,32,8,116.88798208300432,,,,,,,,,,,,,,,,,,,,,,,,,,,,,,,,,,,,,,,,,,,,,,,,,,,,,,116.86225733299943,116.88798208300432,116.88798208300432,116.88798208300432,116.88798208300432,116.8950780833334,116.88798208300432,116.88798208300432,116.88798208300432,117.0893419999993,صحیح است,11,33,1,0.19710416700399946,None,117.0934661249994,117.10437920800177,119.0914084160031,119.09141683299822,119.09159137499955,119.11727899999823,393183,001,2024-08-01_15h48.48.661,5-34 ready-monolingual persian speaker,2024.1.5,None,2024-08-01 15h48.52.895279 +0900,
Images/Speaker1.jpg,Images/Speaker2.jpg,Images/Speaker3.jpg,Images/Speaker4.jpg,Audio/Speaker4_Per/P4-15-Per.wav,Speaker4,گوینده۴,0,0,0,14,0,33,33,74,119.11727899999823,,,,,,,,,,,,,,,,,,,,,,,,,,,,,,,,,,,,,,,,,,,,,,,,,,,,,,119.09179558300093,119.11727899999823,119.11727899999823,119.11727899999823,119.11727899999823,119.12450637433406,119.11727899999823,119.11727899999823,119.11727899999823,119.46631108300062,نادرست! پاسخ صحیح گوینده۴ است,11,34,1,0.33923374999722,None,119.470093791002,119.48151887499989,121.46860045799986,121.46862304100068,121.46895820800273,121.49504995800089,393183,001,2024-08-01_15h48.48.661,5-34 ready-monolingual persian speaker,2024.1.5,None,2024-08-01 15h48.52.895279 +0900,
Images/Speaker1.jpg,Images/Speaker2.jpg,Images/Speaker3.jpg,Images/Speaker4.jpg,Audio/Speaker2_Per/P2-4-Per.wav,Speaker2,گوینده۲,0,0,0,14,0,34,34,23,121.49504995800089,,,,,,,,,,,,,,,,,,,,,,,,,,,,,,,,,,,,,,,,,,,,,,,,,,,,,,121.46977562500251,121.49504995800089,121.49504995800089,121.49504995800089,121.49504995800089,121.50112533333643,121.49504995800089,121.49504995800089,121.49504995800089,121.71073299999989,نادرست! پاسخ صحیح گوینده۲ است,11,35,1,0.20453433399961796,None,121.71505920799973,121.72644258299988,123.71168329100328,123.71169483300037,123.71184904099937,123.73788162499841,393183,001,2024-08-01_15h48.48.661,5-34 ready-monolingual persian speaker,2024.1.5,None,2024-08-01 15h48.52.895279 +0900,
Images/Speaker1.jpg,Images/Speaker2.jpg,Images/Speaker3.jpg,Images/Speaker4.jpg,Audio/Speaker2_Per/P2-12-Per.wav,Speaker2,گوینده۲,0,0,0,14,0,35,35,31,123.73788162499841,,,,,,,,,,,,,,,,,,,,,,,,,,,,,,,,,,,,,,,,,,,,,,,,,,,,,,123.71202679099952,123.73788162499841,123.73788162499841,123.73788162499841,123.73788162499841,123.7447795833364,123.73788162499841,123.73788162499841,123.73788162499841,123.93531495799834,نادرست! پاسخ صحیح گوینده۲ است,11,36,1,0.18980145800014725,None,123.93911987500178,123.95015416599927,125.94440462499915,125.94443545800459,125.94501645800483,,393183,001,2024-08-01_15h48.48.661,5-34 ready-monolingual persian speaker,2024.1.5,None,2024-08-01 15h48.52.895279 +0900,
Images/Speaker1.jpg,Images/Speaker2.jpg,Images/Speaker3.jpg,Images/Speaker4.jpg,Audio/Speaker3_Per/P3-16-Per.wav,Speaker3,گوینده۳,0,0,0,14,0,36,36,55,125.97294204100035,,,,,,,,,,,,,,,,,,,,,,,,,,,,,,,,,,,,,,,,,,,,,,,,,,,,,,125.94585658299911,125.97294204100035,125.97294204100035,125.97294204100035,125.97294204100035,125.97756566633373,125.97294204100035,125.97294204100035,125.97294204100035,126.50756358299986,نادرست! پاسخ صحیح گوینده۳ است,11,37,1,0.5280251250005676,None,126.51200337499904,126.5245331660044,128.50791991600272,128.50796020800044,128.50831587499852,128.53417733300012,393183,001,2024-08-01_15h48.48.661,5-34 ready-monolingual persian speaker,2024.1.5,None,2024-08-01 15h48.52.895279 +0900,
Images/Speaker1.jpg,Images/Speaker2.jpg,Images/Speaker3.jpg,Images/Speaker4.jpg,Audio/Speaker1_Per/P1-2-Per.wav,Speaker1,گوینده ۱,0,0,0,14,0,37,37,1,128.53417733300012,,,,,,,,,,,,,,,,,,,,,,,,,,,,,,,,,,,,,,,,,,,,,,,,,,,,,,128.50916870799847,128.53417733300012,128.53417733300012,128.53417733300012,128.53417733300012,128.540283458337,128.53417733300012,128.53417733300012,128.53417733300012,128.94165079099912,صحیح است,12,38,1,0.40301108400308294,None,128.94574658299825,128.95642954100185,130.9442800830002,130.94429141600267,130.9444333749998,130.96869529100513,393183,001,2024-08-01_15h48.48.661,5-34 ready-monolingual persian speaker,2024.1.5,None,2024-08-01 15h48.52.895279 +0900,
Images/Speaker1.jpg,Images/Speaker2.jpg,Images/Speaker3.jpg,Images/Speaker4.jpg,Audio/Speaker1_Per/P1-17-Per.wav,Speaker1,گوینده ۱,0,0,0,14,0,38,38,16,130.96869529100513,,,,,,,,,,,,,,,,,,,,,,,,,,,,,,,,,,,,,,,,,,,,,,,,,,,,,,130.94460591600364,130.96869529100513,130.96869529100513,130.96869529100513,130.96869529100513,130.9773954163325,130.96869529100513,130.96869529100513,130.96869529100513,131.50745279100374,صحیح است,13,39,1,0.5303290419979021,None,131.51165966600092,131.52230087500357,133.5072791249986,133.5072916249992,133.5074287910029,133.53329929100437,393183,001,2024-08-01_15h48.48.661,5-34 ready-monolingual persian speaker,2024.1.5,None,2024-08-01 15h48.52.895279 +0900,
,,,,,,,,,,,,,,,133.53329929100437,,,,,,,,,,,,,,,,,,,,,,,,,,,,,,,,,,,,,,,,,,,,,,,,,,,,,,133.50761883299856,133.53329929100437,133.53329929100437,133.53329929100437,133.53329929100437,133.5403577913317,133.53329929100437,133.53329929100437,133.53329929100437,134.6619458330024,نادرست! پاسخ صحیح گوینده۲ است,13,40,1,1.1184810409977217,None,134.66579083300167,134.67518141600158,136.66105049999896,136.6610753749992,,,,,,,,,,
