SpeakerImage1,SpeakerImage2,SpeakerImage3,SpeakerImage4,TrainingSound,EnglishCorrectAnswer,PersianCorrectAnswer,TrainingLoopGroup1.thisRepN,TrainingLoopGroup1.thisTrialN,TrainingLoopGroup1.thisN,TrainingLoopGroup1.thisIndex,TrainingLoopGroup2.thisRepN,TrainingLoopGroup2.thisTrialN,TrainingLoopGroup2.thisN,TrainingLoopGroup2.thisIndex,Repeat_TrainingLoopGroup3.thisRepN,Repeat_TrainingLoopGroup3.thisTrialN,Repeat_TrainingLoopGroup3.thisN,Repeat_TrainingLoopGroup3.thisIndex,TrainingLoopGroup3.thisRepN,TrainingLoopGroup3.thisTrialN,TrainingLoopGroup3.thisN,TrainingLoopGroup3.thisIndex,thisRow.t,notes,trial.started,trial.stopped,GroupSelection.started,GroupInstructions.started,key_resp.started,GroupSelection.stopped,key_resp.keys,key_resp.rt,key_resp.duration,Introduction.started,text_2.started,image.started,sound_7.started,text_4.started,text_2.stopped,sound_8.started,image.stopped,text_4.stopped,image_7.started,sound_9.started,text_5.started,sound_10.started,image_7.stopped,text_5.stopped,image_8.started,sound_11.started,text_6.started,sound_12.started,image_8.stopped,text_6.stopped,image_9.started,sound_13.started,text_7.started,sound_14.started,image_9.stopped,text_7.stopped,Introduction.stopped,Instructions.started,InstructionText.started,InstructionText.stopped,Instructions.stopped,InitializeExperiment.started,InitializeExperiment.stopped,TrainingGroup3.started,SpeakerPicture3.started,image_15.started,image_16.started,image_17.started,Sound3.started,Instruction3.started,Response3.started,TrainingGroup3.stopped,feedbackText,correct_responses_group3,total_trials_group3,Response3.keys,Response3.rt,Response3.duration,FeedbackRoutine3.started,FeedbackText3.started,FeedbackText3.stopped,FeedbackRoutine3.stopped,CheckAccuracy3.started,CheckAccuracy3.stopped,participant,session,date,expName,psychopyVersion,frameRate,expStart,
,,,,,,,,,,,,,,,,,,,,,,,,,0.00902354100071534,0.009345208000013372,,,,,,,,,,,,,,,,,,,,,,,,,,,,,,,,,,,,,,,,,,,,,,,,,,,,,,,,,,,,,,,423482,001,2024-07-01_18h56.48.139,5-26,2024.1.4,None,2024-07-01 18h56.52.675410 +0900,
,,,,,,,,,,,,,,,,,,,,,,,,,,,0.009361207999972976,0.01408462499966845,0.01408462499966845,0.49797387500075274,3,0.4483220000001893,None,,,,,,,,,,,,,,,,,,,,,,,,,,,,,,,,,,,,,,,,,,,,,,,,,,,,,,,,423482,001,2024-07-01_18h56.48.139,5-26,2024.1.4,None,2024-07-01 18h56.52.675410 +0900,
,,,,,,,,,,,,,,,,,,,,,,,,,,,,,,,,,,0.49799924999933864,0.5507227079997392,5.4894872500008205,5.49847262466598,5.4894872500008205,5.548451250000653,10.504425249666626,15.47962245800045,15.47962245800045,15.496901665999758,15.499203374665983,15.496901665999758,20.50597374966698,25.48884737499975,25.48884737499975,25.48884737499975,25.500316999667362,25.48884737499975,30.500568416666525,35.48768374999963,35.48768374999963,35.48768374999963,35.49734545766684,35.48768374999963,40.50744770766711,45.478068874999735,45.478068874999735,45.473299040999336,,,,,,,,,,,,,,,,,,,,,,,,,,,,423482,001,2024-07-01_18h56.48.139,5-26,2024.1.4,None,2024-07-01 18h56.52.675410 +0900,
,,,,,,,,,,,,,,,,,,,,,,,,,,,,,,,,,,,,,,,,,,,,,,,,,,,,,,,,,,,,,,45.473352082999554,45.49585279100029,46.585458666000704,46.48933258299985,,,,,,,,,,,,,,,,,,,,,,,,423482,001,2024-07-01_18h56.48.139,5-26,2024.1.4,None,2024-07-01 18h56.52.675410 +0900,
,,,,,,,,,,,,,,,,,,,,,,,,,,,,,,,,,,,,,,,,,,,,,,,,,,,,,,,,,,,,,,,,,,46.489347041000656,46.489494416000525,,,,,,,,,,,,,,,,,,,,,,423482,001,2024-07-01_18h56.48.139,5-26,2024.1.4,None,2024-07-01 18h56.52.675410 +0900,
Images/Speaker1.jpg,Images/Speaker2.jpg,Images/Speaker3.jpg,Images/Speaker4.jpg,Audio/Speaker1_En/P1-4-En.wav,Speaker1,گوینده ۱,,,,,,,,,0,0,0,40,0,0,0,13,46.585458666000704,,,,,,,,,,,,,,,,,,,,,,,,,,,,,,,,,,,,,,,,,,,,,46.55901387499944,46.585458666000704,46.585458666000704,46.585458666000704,46.585458666000704,46.5890832910005,46.585458666000704,46.585458666000704,48.35190308299934,Correct! صحیح است,0,2,1,1.7641874580003787,None,48.355913708001026,48.36826462499994,50.37511095800073,50.353398208000726,,,423482,001,2024-07-01_18h56.48.139,5-26,2024.1.4,None,2024-07-01 18h56.52.675410 +0900,
Images/Speaker1.jpg,Images/Speaker2.jpg,Images/Speaker3.jpg,Images/Speaker4.jpg,Audio/Speaker1_En/P1-11-En.wav,Speaker1,گوینده ۱,,,,,,,,,0,0,0,40,0,1,1,10,50.37511095800073,,,,,,,,,,,,,,,,,,,,,,,,,,,,,,,,,,,,,,,,,,,,,50.35361112499959,50.37511095800073,50.37511095800073,50.37511095800073,50.37511095800073,50.36985783266597,50.37511095800073,50.37511095800073,50.586756415999844,Correct! صحیح است,0,4,1,0.20021366699984355,None,50.590945083000406,50.59946391599988,52.604456082999604,52.5823497500005,,,423482,001,2024-07-01_18h56.48.139,5-26,2024.1.4,None,2024-07-01 18h56.52.675410 +0900,
Images/Speaker1.jpg,Images/Speaker2.jpg,Images/Speaker3.jpg,Images/Speaker4.jpg,Audio/Speaker4_En/P4-3-En.wav,Speaker4,گوینده۴,,,,,,,,,0,0,0,40,0,2,2,62,52.604456082999604,,,,,,,,,,,,,,,,,,,,,,,,,,,,,,,,,,,,,,,,,,,,,52.58251745800044,52.604456082999604,52.604456082999604,52.604456082999604,52.604456082999604,52.5987681666668,52.604456082999604,52.604456082999604,52.60505754100086,Incorrect! The correct answer is Speaker4. نادرست! پاسخ صحیح گوینده۴ است,0,6,1,2.070995459000187,None,52.60877320799955,52.61938566599929,,54.61576516599962,,,423482,001,2024-07-01_18h56.48.139,5-26,2024.1.4,None,2024-07-01 18h56.52.675410 +0900,
Images/Speaker1.jpg,Images/Speaker2.jpg,Images/Speaker3.jpg,Images/Speaker4.jpg,Audio/Speaker4_En/P4-1-En.wav,Speaker4,گوینده۴,,,,,,,,,0,0,0,40,0,3,3,60,54.640216166000755,,,,,,,,,,,,,,,,,,,,,,,,,,,,,,,,,,,,,,,,,,,,,54.61641408300056,54.640216166000755,54.640216166000755,54.640216166000755,54.640216166000755,54.64893116633405,54.640216166000755,54.640216166000755,54.640968166000675,Incorrect! The correct answer is Speaker4. نادرست! پاسخ صحیح گوینده۴ است,0,8,1,1.9228925829993386,None,54.64125458300077,54.65109841599951,56.65971874999923,56.63903562499945,,,423482,001,2024-07-01_18h56.48.139,5-26,2024.1.4,None,2024-07-01 18h56.52.675410 +0900,
Images/Speaker1.jpg,Images/Speaker2.jpg,Images/Speaker3.jpg,Images/Speaker4.jpg,Audio/Speaker1_En/P1-20-En.wav,Speaker1,گوینده ۱,,,,,,,,,0,0,0,40,0,4,4,19,56.65971874999923,,,,,,,,,,,,,,,,,,,,,,,,,,,,,,,,,,,,,,,,,,,,,56.63919625000017,56.65971874999923,56.65971874999923,56.65971874999923,56.65971874999923,56.65545045766727,56.65971874999923,56.65971874999923,56.66028195800027,Correct! صحیح است,0,10,1,1.5275367499998538,None,56.66439966600046,56.67374183299944,58.681077416000335,58.65823345799981,,,423482,001,2024-07-01_18h56.48.139,5-26,2024.1.4,None,2024-07-01 18h56.52.675410 +0900,
Images/Speaker1.jpg,Images/Speaker2.jpg,Images/Speaker3.jpg,Images/Speaker4.jpg,Audio/Speaker3_En/P3-2-En.wav,Speaker3,گوینده۳,,,,,,,,,0,0,0,40,0,5,5,41,58.681077416000335,,,,,,,,,,,,,,,,,,,,,,,,,,,,,,,,,,,,,,,,,,,,,58.6584268330007,58.681077416000335,58.681077416000335,58.681077416000335,58.681077416000335,58.67471191666688,58.681077416000335,58.681077416000335,58.74746537499959,Incorrect! The correct answer is Speaker3. نادرست! پاسخ صحیح گوینده۳ است,0,12,1,0.06395662499926402,None,58.751301791000515,58.76372312500098,60.76734254099938,60.74669233299937,,,423482,001,2024-07-01_18h56.48.139,5-26,2024.1.4,None,2024-07-01 18h56.52.675410 +0900,
Images/Speaker1.jpg,Images/Speaker2.jpg,Images/Speaker3.jpg,Images/Speaker4.jpg,Audio/Speaker3_En/P3-13-En.wav,Speaker3,گوینده۳,,,,,,,,,0,0,0,40,0,6,6,52,60.76734254099938,,,,,,,,,,,,,,,,,,,,,,,,,,,,,,,,,,,,,,,,,,,,,60.74685750000026,60.76734254099938,60.76734254099938,60.76734254099938,60.76734254099938,60.76314587466756,60.76734254099938,60.76734254099938,60.767843375000666,Incorrect! The correct answer is Speaker3. نادرست! پاسخ صحیح گوینده۳ است,0,14,1,1.8694710419986222,None,60.77191929100081,60.78221120799935,62.79025829100101,62.767483916000856,,,423482,001,2024-07-01_18h56.48.139,5-26,2024.1.4,None,2024-07-01 18h56.52.675410 +0900,
Images/Speaker1.jpg,Images/Speaker2.jpg,Images/Speaker3.jpg,Images/Speaker4.jpg,Audio/Speaker3_En/P3-4-En.wav,Speaker3,گوینده۳,,,,,,,,,0,0,0,40,0,7,7,43,62.79025829100101,,,,,,,,,,,,,,,,,,,,,,,,,,,,,,,,,,,,,,,,,,,,,62.76765250000062,62.79025829100101,62.79025829100101,62.79025829100101,62.79025829100101,62.78393112466644,62.79025829100101,62.79025829100101,62.79085670799941,Incorrect! The correct answer is Speaker3. نادرست! پاسخ صحیح گوینده۳ است,0,16,1,1.8828059999996185,None,62.79474241599928,62.80480779100071,,64.7957152910003,,,423482,001,2024-07-01_18h56.48.139,5-26,2024.1.4,None,2024-07-01 18h56.52.675410 +0900,
Images/Speaker1.jpg,Images/Speaker2.jpg,Images/Speaker3.jpg,Images/Speaker4.jpg,Audio/Speaker3_En/P3-5-En.wav,Speaker3,گوینده۳,,,,,,,,,0,0,0,40,0,8,8,44,64.81714045800072,,,,,,,,,,,,,,,,,,,,,,,,,,,,,,,,,,,,,,,,,,,,,64.79587595799967,64.81714045800072,64.81714045800072,64.81714045800072,64.81714045800072,64.8123390826661,64.81714045800072,64.81714045800072,64.8177360410009,Incorrect! The correct answer is Speaker3. نادرست! پاسخ صحیح گوینده۳ است,0,18,1,1.8136725419990398,None,64.82193466600074,64.83123399999931,66.83894887499991,66.81756495800073,,,423482,001,2024-07-01_18h56.48.139,5-26,2024.1.4,None,2024-07-01 18h56.52.675410 +0900,
Images/Speaker1.jpg,Images/Speaker2.jpg,Images/Speaker3.jpg,Images/Speaker4.jpg,Audio/Speaker1_En/P1-3-En.wav,Speaker1,گوینده ۱,,,,,,,,,0,0,0,40,0,9,9,2,66.83894887499991,,,,,,,,,,,,,,,,,,,,,,,,,,,,,,,,,,,,,,,,,,,,,66.81778883300103,66.83894887499991,66.83894887499991,66.83894887499991,66.83894887499991,66.83395704166675,66.83894887499991,66.83894887499991,66.83952900000077,Correct! صحیح است,0,20,1,1.5243796659997315,None,66.84319425000103,66.85099112500029,68.86516541600031,68.84112645800087,,,423482,001,2024-07-01_18h56.48.139,5-26,2024.1.4,None,2024-07-01 18h56.52.675410 +0900,
Images/Speaker1.jpg,Images/Speaker2.jpg,Images/Speaker3.jpg,Images/Speaker4.jpg,Audio/Speaker3_En/P3-19-En.wav,Speaker3,گوینده۳,,,,,,,,,0,0,0,40,0,10,10,58,68.86516541600031,,,,,,,,,,,,,,,,,,,,,,,,,,,,,,,,,,,,,,,,,,,,,68.84201133299939,68.86516541600031,68.86516541600031,68.86516541600031,68.86516541600031,68.87347320833263,68.86516541600031,68.86516541600031,68.86572499999966,Incorrect! The correct answer is Speaker3. نادرست! پاسخ صحیح گوینده۳ است,0,22,1,1.9336009159997047,None,68.86600904099942,68.87534016599966,70.885630666,70.86269600000014,,,423482,001,2024-07-01_18h56.48.139,5-26,2024.1.4,None,2024-07-01 18h56.52.675410 +0900,
Images/Speaker1.jpg,Images/Speaker2.jpg,Images/Speaker3.jpg,Images/Speaker4.jpg,Audio/Speaker1_En/P1-19-En.wav,Speaker1,گوینده ۱,,,,,,,,,0,0,0,40,0,11,11,18,70.885630666,,,,,,,,,,,,,,,,,,,,,,,,,,,,,,,,,,,,,,,,,,,,,70.86374774999967,70.885630666,70.885630666,70.885630666,70.885630666,70.89520216633403,70.885630666,70.885630666,71.06328029100041,Correct! صحیح است,0,24,1,0.16608683399863367,None,71.06732100000045,71.07852754099986,73.08727358299984,73.06609345800098,,,423482,001,2024-07-01_18h56.48.139,5-26,2024.1.4,None,2024-07-01 18h56.52.675410 +0900,
Images/Speaker1.jpg,Images/Speaker2.jpg,Images/Speaker3.jpg,Images/Speaker4.jpg,Audio/Speaker4_En/P4-8-En.wav,Speaker4,گوینده۴,,,,,,,,,0,0,0,40,0,12,12,67,73.08727358299984,,,,,,,,,,,,,,,,,,,,,,,,,,,,,,,,,,,,,,,,,,,,,73.06629354100005,73.08727358299984,73.08727358299984,73.08727358299984,73.08727358299984,73.08243874966708,73.08727358299984,73.08727358299984,73.27257504100089,Incorrect! The correct answer is Speaker4. نادرست! پاسخ صحیح گوینده۴ است,0,26,1,0.17156824999983655,None,73.2766951249996,73.28726779099998,,75.28129550000085,,,423482,001,2024-07-01_18h56.48.139,5-26,2024.1.4,None,2024-07-01 18h56.52.675410 +0900,
Images/Speaker1.jpg,Images/Speaker2.jpg,Images/Speaker3.jpg,Images/Speaker4.jpg,Audio/Speaker2_En/P2-13-En.wav,Speaker2,گوینده۲,,,,,,,,,0,0,0,40,0,13,13,32,75.30633645799935,,,,,,,,,,,,,,,,,,,,,,,,,,,,,,,,,,,,,,,,,,,,,75.28192720799962,75.30633645799935,75.30633645799935,75.30633645799935,75.30633645799935,75.31442654133255,75.30633645799935,75.30633645799935,75.30688849999933,Incorrect! The correct answer is Speaker2. نادرست! پاسخ صحیح گوینده۲ است,0,28,1,2.1075169169998844,None,75.30729170800078,75.31679812500079,,77.31308887500018,,,423482,001,2024-07-01_18h56.48.139,5-26,2024.1.4,None,2024-07-01 18h56.52.675410 +0900,
Images/Speaker1.jpg,Images/Speaker2.jpg,Images/Speaker3.jpg,Images/Speaker4.jpg,Audio/Speaker2_En/P2-10-En.wav,Speaker2,گوینده۲,,,,,,,,,0,0,0,40,0,14,14,29,77.33477137500086,,,,,,,,,,,,,,,,,,,,,,,,,,,,,,,,,,,,,,,,,,,,,77.31326637500024,77.33477137500086,77.33477137500086,77.33477137500086,77.33477137500086,77.32971291666605,77.33477137500086,77.33477137500086,77.49431712499972,Incorrect! The correct answer is Speaker2. نادرست! پاسخ صحیح گوینده۲ است,0,30,1,0.15824816700114752,None,77.49861458300074,77.51156912499937,79.51950445799957,79.49843720799981,,,423482,001,2024-07-01_18h56.48.139,5-26,2024.1.4,None,2024-07-01 18h56.52.675410 +0900,
Images/Speaker1.jpg,Images/Speaker2.jpg,Images/Speaker3.jpg,Images/Speaker4.jpg,Audio/Speaker1_En/P1-12-En.wav,Speaker1,گوینده ۱,,,,,,,,,0,0,0,40,0,15,15,11,79.51950445799957,,,,,,,,,,,,,,,,,,,,,,,,,,,,,,,,,,,,,,,,,,,,,79.49861270800102,79.51950445799957,79.51950445799957,79.51950445799957,79.51950445799957,79.51486908266658,79.51950445799957,79.51950445799957,79.55668170799981,Correct! صحیح است,0,32,1,0.029776458000924322,None,79.56045720800103,79.57155020800019,,81.56627929100068,,,423482,001,2024-07-01_18h56.48.139,5-26,2024.1.4,None,2024-07-01 18h56.52.675410 +0900,
Images/Speaker1.jpg,Images/Speaker2.jpg,Images/Speaker3.jpg,Images/Speaker4.jpg,Audio/Speaker1_En/P1-2-En.wav,Speaker1,گوینده ۱,,,,,,,,,0,0,0,40,0,16,16,1,81.59208083299927,,,,,,,,,,,,,,,,,,,,,,,,,,,,,,,,,,,,,,,,,,,,,81.56706887499968,81.59208083299927,81.59208083299927,81.59208083299927,81.59208083299927,81.59944874933402,81.59208083299927,81.59208083299927,81.7487462909994,Correct! صحیح است,0,34,1,0.15326837499924295,None,81.75266654100051,81.76384366599996,83.77323808300025,83.751192791,,,423482,001,2024-07-01_18h56.48.139,5-26,2024.1.4,None,2024-07-01 18h56.52.675410 +0900,
Images/Speaker1.jpg,Images/Speaker2.jpg,Images/Speaker3.jpg,Images/Speaker4.jpg,Audio/Speaker2_En/P2-3-En.wav,Speaker2,گوینده۲,,,,,,,,,0,0,0,40,0,17,17,22,83.77323808300025,,,,,,,,,,,,,,,,,,,,,,,,,,,,,,,,,,,,,,,,,,,,,83.75221237500045,83.77323808300025,83.77323808300025,83.77323808300025,83.77323808300025,83.78352645833414,83.77323808300025,83.77323808300025,83.97937270799957,Incorrect! The correct answer is Speaker2. نادرست! پاسخ صحیح گوینده۲ است,0,36,1,0.19750816600026155,None,83.98332950000076,83.99357470799987,,85.98943062500075,,,423482,001,2024-07-01_18h56.48.139,5-26,2024.1.4,None,2024-07-01 18h56.52.675410 +0900,
Images/Speaker1.jpg,Images/Speaker2.jpg,Images/Speaker3.jpg,Images/Speaker4.jpg,Audio/Speaker4_En/P4-6-En.wav,Speaker4,گوینده۴,,,,,,,,,0,0,0,40,0,18,18,65,86.01054549999935,,,,,,,,,,,,,,,,,,,,,,,,,,,,,,,,,,,,,,,,,,,,,85.98961374999999,86.01054549999935,86.01054549999935,86.01054549999935,86.01054549999935,86.00605358266718,86.01054549999935,86.01054549999935,86.12263325000094,Incorrect! The correct answer is Speaker4. نادرست! پاسخ صحیح گوینده۴ است,0,38,1,0.10458908300097391,None,86.1267566660008,86.13786312500088,88.14270450000004,88.12184825000077,,,423482,001,2024-07-01_18h56.48.139,5-26,2024.1.4,None,2024-07-01 18h56.52.675410 +0900,
Images/Speaker1.jpg,Images/Speaker2.jpg,Images/Speaker3.jpg,Images/Speaker4.jpg,Audio/Speaker4_En/P4-13-En.wav,Speaker4,گوینده۴,,,,,,,,,0,0,0,40,0,19,19,72,88.14270450000004,,,,,,,,,,,,,,,,,,,,,,,,,,,,,,,,,,,,,,,,,,,,,88.12202595800045,88.14270450000004,88.14270450000004,88.14270450000004,88.14270450000004,88.13824633266655,88.14270450000004,88.14270450000004,88.20158375000028,Incorrect! The correct answer is Speaker4. نادرست! پاسخ صحیح گوینده۴ است,0,40,1,0.054848958001457504,None,88.20579358299983,88.21810891600035,,90.20667883299939,,,423482,001,2024-07-01_18h56.48.139,5-26,2024.1.4,None,2024-07-01 18h56.52.675410 +0900,
Images/Speaker1.jpg,Images/Speaker2.jpg,Images/Speaker3.jpg,Images/Speaker4.jpg,Audio/Speaker3_En/P3-6-En.wav,Speaker3,گوینده۳,,,,,,,,,0,0,0,40,0,20,20,45,90.23236683300092,,,,,,,,,,,,,,,,,,,,,,,,,,,,,,,,,,,,,,,,,,,,,90.20731941600025,90.23236683300092,90.23236683300092,90.23236683300092,90.23236683300092,90.23983254133285,90.23236683300092,90.23236683300092,90.37135291599952,Incorrect! The correct answer is Speaker3. نادرست! پاسخ صحیح گوینده۳ است,0,42,1,0.13662037500034785,None,90.37554120800087,90.38830195800074,,92.37743562499963,,,423482,001,2024-07-01_18h56.48.139,5-26,2024.1.4,None,2024-07-01 18h56.52.675410 +0900,
Images/Speaker1.jpg,Images/Speaker2.jpg,Images/Speaker3.jpg,Images/Speaker4.jpg,Audio/Speaker2_En/P2-15-En.wav,Speaker2,گوینده۲,,,,,,,,,0,0,0,40,0,21,21,34,92.40278104100071,,,,,,,,,,,,,,,,,,,,,,,,,,,,,,,,,,,,,,,,,,,,,92.37797587500063,92.40278104100071,92.40278104100071,92.40278104100071,92.40278104100071,92.41061908333407,92.40278104100071,92.40278104100071,92.61116191600013,Incorrect! The correct answer is Speaker2. نادرست! پاسخ صحیح گوینده۲ است,0,44,1,0.2066727080000419,None,92.61492062499929,92.62788416600051,,94.62115850000009,,,423482,001,2024-07-01_18h56.48.139,5-26,2024.1.4,None,2024-07-01 18h56.52.675410 +0900,
Images/Speaker1.jpg,Images/Speaker2.jpg,Images/Speaker3.jpg,Images/Speaker4.jpg,Audio/Speaker2_En/P2-9-En.wav,Speaker2,گوینده۲,,,,,,,,,0,0,0,40,0,22,22,28,94.64199133300099,,,,,,,,,,,,,,,,,,,,,,,,,,,,,,,,,,,,,,,,,,,,,94.62132354099958,94.64199133300099,94.64199133300099,94.64199133300099,94.64199133300099,94.63778662466599,94.64199133300099,94.64199133300099,94.64255000000048,Incorrect! The correct answer is Speaker2. نادرست! پاسخ صحیح گوینده۲ است,0,46,1,2.1704777909999393,None,94.64646212499974,94.65599612500046,96.66675837500043,96.64598666600068,,,423482,001,2024-07-01_18h56.48.139,5-26,2024.1.4,None,2024-07-01 18h56.52.675410 +0900,
Images/Speaker1.jpg,Images/Speaker2.jpg,Images/Speaker3.jpg,Images/Speaker4.jpg,Audio/Speaker4_En/P4-18-En.wav,Speaker4,گوینده۴,,,,,,,,,0,0,0,40,0,23,23,77,96.66675837500043,,,,,,,,,,,,,,,,,,,,,,,,,,,,,,,,,,,,,,,,,,,,,96.64615483300076,96.66675837500043,96.66675837500043,96.66675837500043,96.66675837500043,96.66238583266592,96.66675837500043,96.66675837500043,96.66728733300079,Incorrect! The correct answer is Speaker4. نادرست! پاسخ صحیح گوینده۴ است,0,48,1,1.9568536250008037,None,96.67114891600067,96.68142645800071,98.68654166600027,98.66619829100091,,,423482,001,2024-07-01_18h56.48.139,5-26,2024.1.4,None,2024-07-01 18h56.52.675410 +0900,
Images/Speaker1.jpg,Images/Speaker2.jpg,Images/Speaker3.jpg,Images/Speaker4.jpg,Audio/Speaker1_En/P1-9-En.wav,Speaker1,گوینده ۱,,,,,,,,,0,0,0,40,0,24,24,8,98.68654166600027,,,,,,,,,,,,,,,,,,,,,,,,,,,,,,,,,,,,,,,,,,,,,98.66635233300076,98.68654166600027,98.68654166600027,98.68654166600027,98.68654166600027,98.68265474966599,98.68654166600027,98.68654166600027,98.76972979099992,Correct! صحیح است,0,50,1,0.07905537499937054,None,98.77406770800008,98.78476904099989,100.79458345800049,100.7715672079994,,,423482,001,2024-07-01_18h56.48.139,5-26,2024.1.4,None,2024-07-01 18h56.52.675410 +0900,
Images/Speaker1.jpg,Images/Speaker2.jpg,Images/Speaker3.jpg,Images/Speaker4.jpg,Audio/Speaker3_En/P3-15-En.wav,Speaker3,گوینده۳,,,,,,,,,0,0,0,40,0,25,25,54,100.79458345800049,,,,,,,,,,,,,,,,,,,,,,,,,,,,,,,,,,,,,,,,,,,,,100.77245683299952,100.79458345800049,100.79458345800049,100.79458345800049,100.79458345800049,100.80417408333281,100.79458345800049,100.79458345800049,100.8998620830007,Incorrect! The correct answer is Speaker3. نادرست! پاسخ صحیح گوینده۳ است,0,52,1,0.09585041699938301,None,100.90369166600067,100.91563337499974,,102.90556541600017,,,423482,001,2024-07-01_18h56.48.139,5-26,2024.1.4,None,2024-07-01 18h56.52.675410 +0900,
Images/Speaker1.jpg,Images/Speaker2.jpg,Images/Speaker3.jpg,Images/Speaker4.jpg,Audio/Speaker4_En/P4-9-En.wav,Speaker4,گوینده۴,,,,,,,,,0,0,0,40,0,26,26,68,102.92905475000043,,,,,,,,,,,,,,,,,,,,,,,,,,,,,,,,,,,,,,,,,,,,,102.90620954100086,102.92905475000043,102.92905475000043,102.92905475000043,102.92905475000043,102.93871087433266,102.92905475000043,102.92905475000043,102.97326745800092,Incorrect! The correct answer is Speaker4. نادرست! پاسخ صحیح گوینده۴ است,0,54,1,0.0373422920001758,None,102.97744708299979,102.99012316600056,,104.97800437499973,,,423482,001,2024-07-01_18h56.48.139,5-26,2024.1.4,None,2024-07-01 18h56.52.675410 +0900,
Images/Speaker1.jpg,Images/Speaker2.jpg,Images/Speaker3.jpg,Images/Speaker4.jpg,Audio/Speaker1_En/P1-8-En.wav,Speaker1,گوینده ۱,,,,,,,,,0,0,0,40,0,27,27,7,104.99921304100098,,,,,,,,,,,,,,,,,,,,,,,,,,,,,,,,,,,,,,,,,,,,,104.9781971249995,104.99921304100098,104.99921304100098,104.99921304100098,104.99921304100098,104.99461437466768,104.99921304100098,104.99921304100098,104.99980570799926,Correct! صحیح است,0,56,1,1.9401173329988524,None,105.00369120799951,105.01139120799962,,107.00582466600099,,,423482,001,2024-07-01_18h56.48.139,5-26,2024.1.4,None,2024-07-01 18h56.52.675410 +0900,
Images/Speaker1.jpg,Images/Speaker2.jpg,Images/Speaker3.jpg,Images/Speaker4.jpg,Audio/Speaker1_En/P1-1-En.wav,Speaker1,گوینده ۱,,,,,,,,,0,0,0,40,0,28,28,0,107.02803266599949,,,,,,,,,,,,,,,,,,,,,,,,,,,,,,,,,,,,,,,,,,,,,107.00645529100075,107.02803266599949,107.02803266599949,107.02803266599949,107.02803266599949,107.02234649966728,107.02803266599949,107.02803266599949,107.02862845799973,Correct! صحیح است,0,58,1,1.9171645410006022,None,107.03277850000086,107.04154783299964,109.05444374999934,109.03298625000025,,,423482,001,2024-07-01_18h56.48.139,5-26,2024.1.4,None,2024-07-01 18h56.52.675410 +0900,
Images/Speaker1.jpg,Images/Speaker2.jpg,Images/Speaker3.jpg,Images/Speaker4.jpg,Audio/Speaker3_En/P3-14-En.wav,Speaker3,گوینده۳,,,,,,,,,0,0,0,40,0,29,29,53,109.05444374999934,,,,,,,,,,,,,,,,,,,,,,,,,,,,,,,,,,,,,,,,,,,,,109.03314187499927,109.05444374999934,109.05444374999934,109.05444374999934,109.05444374999934,109.04941445766623,109.05444374999934,109.05444374999934,109.08710858300037,Incorrect! The correct answer is Speaker3. نادرست! پاسخ صحیح گوینده۳ است,0,60,1,0.029562375000750762,None,109.09088862499993,109.10310479100008,111.1081373750003,111.08625125000071,,,423482,001,2024-07-01_18h56.48.139,5-26,2024.1.4,None,2024-07-01 18h56.52.675410 +0900,
Images/Speaker1.jpg,Images/Speaker2.jpg,Images/Speaker3.jpg,Images/Speaker4.jpg,Audio/Speaker4_En/P4-15-En.wav,Speaker4,گوینده۴,,,,,,,,,0,0,0,40,0,30,30,74,111.1081373750003,,,,,,,,,,,,,,,,,,,,,,,,,,,,,,,,,,,,,,,,,,,,,111.08641812499991,111.1081373750003,111.1081373750003,111.1081373750003,111.1081373750003,111.10266529166644,111.1081373750003,111.1081373750003,111.55147408300036,Incorrect! The correct answer is Speaker4. نادرست! پاسخ صحیح گوینده۴ است,0,62,1,0.4411652500002674,None,111.55534724999961,111.56895037499999,,113.56455708300018,,,423482,001,2024-07-01_18h56.48.139,5-26,2024.1.4,None,2024-07-01 18h56.52.675410 +0900,
Images/Speaker1.jpg,Images/Speaker2.jpg,Images/Speaker3.jpg,Images/Speaker4.jpg,Audio/Speaker2_En/P2-1-En.wav,Speaker2,گوینده۲,,,,,,,,,0,0,0,40,0,31,31,20,113.58839816600084,,,,,,,,,,,,,,,,,,,,,,,,,,,,,,,,,,,,,,,,,,,,,113.56521741600045,113.58839816600084,113.58839816600084,113.58839816600084,113.58839816600084,113.59770412433366,113.58839816600084,113.58839816600084,113.91225987500002,Incorrect! The correct answer is Speaker2. نادرست! پاسخ صحیح گوینده۲ است,0,64,1,0.3206141669998033,None,113.91625700000077,113.92914512500101,115.93338320800103,115.91205833300046,,,423482,001,2024-07-01_18h56.48.139,5-26,2024.1.4,None,2024-07-01 18h56.52.675410 +0900,
Images/Speaker1.jpg,Images/Speaker2.jpg,Images/Speaker3.jpg,Images/Speaker4.jpg,Audio/Speaker1_En/P1-6-En.wav,Speaker1,گوینده ۱,,,,,,,,,0,0,0,40,0,32,32,5,115.93338320800103,,,,,,,,,,,,,,,,,,,,,,,,,,,,,,,,,,,,,,,,,,,,,115.9122248750009,115.93338320800103,115.93338320800103,115.93338320800103,115.93338320800103,115.92842591666728,115.93338320800103,115.93338320800103,116.20249758300088,Correct! صحیح است,0,66,1,0.262479875000281,None,116.2062703749998,116.21732595799949,118.22532616600074,118.20002354099961,,,423482,001,2024-07-01_18h56.48.139,5-26,2024.1.4,None,2024-07-01 18h56.52.675410 +0900,
Images/Speaker1.jpg,Images/Speaker2.jpg,Images/Speaker3.jpg,Images/Speaker4.jpg,Audio/Speaker4_En/P4-2-En.wav,Speaker4,گوینده۴,,,,,,,,,0,0,0,40,0,33,33,61,118.22532616600074,,,,,,,,,,,,,,,,,,,,,,,,,,,,,,,,,,,,,,,,,,,,,118.20021870799974,118.22532616600074,118.22532616600074,118.22532616600074,118.22532616600074,118.21646158266618,118.22532616600074,118.22532616600074,118.22591904100045,Incorrect! The correct answer is Speaker4. نادرست! پاسخ صحیح گوینده۴ است,0,68,1,2.270898667000438,None,118.22979391599984,118.23929474999932,,120.23072895800033,,,423482,001,2024-07-01_18h56.48.139,5-26,2024.1.4,None,2024-07-01 18h56.52.675410 +0900,
Images/Speaker1.jpg,Images/Speaker2.jpg,Images/Speaker3.jpg,Images/Speaker4.jpg,Audio/Speaker4_En/P4-16-En.wav,Speaker4,گوینده۴,,,,,,,,,0,0,0,40,0,34,34,75,120.25355300000047,,,,,,,,,,,,,,,,,,,,,,,,,,,,,,,,,,,,,,,,,,,,,120.23140208299992,120.25355300000047,120.25355300000047,120.25355300000047,120.25355300000047,120.2472108746663,120.25355300000047,120.25355300000047,120.54784350000045,Incorrect! The correct answer is Speaker4. نادرست! پاسخ صحیح گوینده۴ است,0,70,1,0.28879724999933387,None,120.55163087499932,120.564482916001,,122.55515883299995,,,423482,001,2024-07-01_18h56.48.139,5-26,2024.1.4,None,2024-07-01 18h56.52.675410 +0900,
Images/Speaker1.jpg,Images/Speaker2.jpg,Images/Speaker3.jpg,Images/Speaker4.jpg,Audio/Speaker4_En/P4-19-En.wav,Speaker4,گوینده۴,,,,,,,,,0,0,0,40,0,35,35,78,122.58088370800033,,,,,,,,,,,,,,,,,,,,,,,,,,,,,,,,,,,,,,,,,,,,,122.55578766600047,122.58088370800033,122.58088370800033,122.58088370800033,122.58088370800033,122.5883568333343,122.58088370800033,122.58088370800033,122.5815164579999,Incorrect! The correct answer is Speaker4. نادرست! پاسخ صحیح گوینده۴ است,0,72,1,2.317283166999914,None,122.58190737500081,122.59169487500003,124.60188729100082,124.57757666600082,,,423482,001,2024-07-01_18h56.48.139,5-26,2024.1.4,None,2024-07-01 18h56.52.675410 +0900,
Images/Speaker1.jpg,Images/Speaker2.jpg,Images/Speaker3.jpg,Images/Speaker4.jpg,Audio/Speaker3_En/P3-8-En.wav,Speaker3,گوینده۳,,,,,,,,,0,0,0,40,0,36,36,47,124.60188729100082,,,,,,,,,,,,,,,,,,,,,,,,,,,,,,,,,,,,,,,,,,,,,124.57776954099972,124.60188729100082,124.60188729100082,124.60188729100082,124.60188729100082,124.59396295766625,124.60188729100082,124.60188729100082,124.60254270800033,Incorrect! The correct answer is Speaker3. نادرست! پاسخ صحیح گوینده۳ است,0,74,1,2.0021999159998813,None,124.60629170799984,124.61625662500046,126.62645037500079,126.604559333,,,423482,001,2024-07-01_18h56.48.139,5-26,2024.1.4,None,2024-07-01 18h56.52.675410 +0900,
Images/Speaker1.jpg,Images/Speaker2.jpg,Images/Speaker3.jpg,Images/Speaker4.jpg,Audio/Speaker2_En/P2-12-En.wav,Speaker2,گوینده۲,,,,,,,,,0,0,0,40,0,37,37,31,126.62645037500079,,,,,,,,,,,,,,,,,,,,,,,,,,,,,,,,,,,,,,,,,,,,,126.60471400000097,126.62645037500079,126.62645037500079,126.62645037500079,126.62645037500079,126.62101091666615,126.62645037500079,126.62645037500079,126.66883075000078,Incorrect! The correct answer is Speaker2. نادرست! پاسخ صحیح گوینده۲ است,0,76,1,0.037075624999488355,None,126.67256550000093,126.68523350000032,128.69697712500056,128.6727200410005,,,423482,001,2024-07-01_18h56.48.139,5-26,2024.1.4,None,2024-07-01 18h56.52.675410 +0900,
Images/Speaker1.jpg,Images/Speaker2.jpg,Images/Speaker3.jpg,Images/Speaker4.jpg,Audio/Speaker2_En/P2-14-En.wav,Speaker2,گوینده۲,,,,,,,,,0,0,0,40,0,38,38,33,128.69697712500056,,,,,,,,,,,,,,,,,,,,,,,,,,,,,,,,,,,,,,,,,,,,,128.6732588750001,128.69697712500056,128.69697712500056,128.69697712500056,128.69697712500056,128.7050670413342,128.69697712500056,128.69697712500056,128.81239766600083,Incorrect! The correct answer is Speaker2. نادرست! پاسخ صحیح گوینده۲ است,0,78,1,0.11075949999940349,None,128.81660729100076,128.82875933300056,130.83740266600034,130.81534450000072,,,423482,001,2024-07-01_18h56.48.139,5-26,2024.1.4,None,2024-07-01 18h56.52.675410 +0900,
Images/Speaker1.jpg,Images/Speaker2.jpg,Images/Speaker3.jpg,Images/Speaker4.jpg,Audio/Speaker1_En/P1-17-En.wav,Speaker1,گوینده ۱,,,,,,,,,0,0,0,40,0,39,39,16,130.83740266600034,,,,,,,,,,,,,,,,,,,,,,,,,,,,,,,,,,,,,,,,,,,,,130.81591062500047,130.83740266600034,130.83740266600034,130.83740266600034,130.83740266600034,130.83106445766705,130.83740266600034,130.83740266600034,130.83795845799978,Correct! صحیح است,0,80,1,2.0504459169987967,None,130.8381642910008,130.84629362499982,132.85547283300002,132.83431508300055,,,423482,001,2024-07-01_18h56.48.139,5-26,2024.1.4,None,2024-07-01 18h56.52.675410 +0900,
Images/Speaker1.jpg,Images/Speaker2.jpg,Images/Speaker3.jpg,Images/Speaker4.jpg,Audio/Speaker1_En/P1-16-En.wav,Speaker1,گوینده ۱,,,,,,,,,0,0,0,40,0,40,40,15,132.85547283300002,,,,,,,,,,,,,,,,,,,,,,,,,,,,,,,,,,,,,,,,,,,,,132.83449729099993,132.85547283300002,132.85547283300002,132.85547283300002,132.85547283300002,132.85072533266637,132.85547283300002,132.85547283300002,132.90448841599937,Correct! صحیح است,0,82,1,0.04354454200074542,None,132.90856458300004,132.91960225000003,134.92811733300005,134.90705424999942,,,423482,001,2024-07-01_18h56.48.139,5-26,2024.1.4,None,2024-07-01 18h56.52.675410 +0900,
Images/Speaker1.jpg,Images/Speaker2.jpg,Images/Speaker3.jpg,Images/Speaker4.jpg,Audio/Speaker3_En/P3-10-En.wav,Speaker3,گوینده۳,,,,,,,,,0,0,0,40,0,41,41,49,134.92811733300005,,,,,,,,,,,,,,,,,,,,,,,,,,,,,,,,,,,,,,,,,,,,,134.90722958300103,134.92811733300005,134.92811733300005,134.92811733300005,134.92811733300005,134.92337754166718,134.92811733300005,134.92811733300005,134.928695083001,Incorrect! The correct answer is Speaker3. نادرست! پاسخ صحیح گوینده۳ است,0,84,1,2.0303389170003356,None,134.9328888330001,134.9428408750009,136.95644945800086,136.93218008300028,,,423482,001,2024-07-01_18h56.48.139,5-26,2024.1.4,None,2024-07-01 18h56.52.675410 +0900,
Images/Speaker1.jpg,Images/Speaker2.jpg,Images/Speaker3.jpg,Images/Speaker4.jpg,Audio/Speaker3_En/P3-7-En.wav,Speaker3,گوینده۳,,,,,,,,,0,0,0,40,0,42,42,46,136.95644945800086,,,,,,,,,,,,,,,,,,,,,,,,,,,,,,,,,,,,,,,,,,,,,136.93310162499984,136.95644945800086,136.95644945800086,136.95644945800086,136.95644945800086,136.96463466633264,136.95644945800086,136.95644945800086,136.96909683299964,Incorrect! The correct answer is Speaker3. نادرست! پاسخ صحیح گوینده۳ است,0,86,1,0.005894042000363697,None,136.97324316599952,136.98263475000022,138.993241958,138.97217412499958,,,423482,001,2024-07-01_18h56.48.139,5-26,2024.1.4,None,2024-07-01 18h56.52.675410 +0900,
Images/Speaker1.jpg,Images/Speaker2.jpg,Images/Speaker3.jpg,Images/Speaker4.jpg,Audio/Speaker4_En/P4-10-En.wav,Speaker4,گوینده۴,,,,,,,,,0,0,0,40,0,43,43,69,138.993241958,,,,,,,,,,,,,,,,,,,,,,,,,,,,,,,,,,,,,,,,,,,,,138.97234104100062,138.993241958,138.993241958,138.993241958,138.993241958,138.98862883266727,138.993241958,138.993241958,139.02968754100038,Incorrect! The correct answer is Speaker4. نادرست! پاسخ صحیح گوینده۴ است,0,88,1,0.027066791999459383,None,139.0338210000009,139.04653041600068,,141.03624112500074,,,423482,001,2024-07-01_18h56.48.139,5-26,2024.1.4,None,2024-07-01 18h56.52.675410 +0900,
Images/Speaker1.jpg,Images/Speaker2.jpg,Images/Speaker3.jpg,Images/Speaker4.jpg,Audio/Speaker3_En/P3-16-En.wav,Speaker3,گوینده۳,,,,,,,,,0,0,0,40,0,44,44,55,141.05690208300075,,,,,,,,,,,,,,,,,,,,,,,,,,,,,,,,,,,,,,,,,,,,,141.0364090410003,141.05690208300075,141.05690208300075,141.05690208300075,141.05690208300075,141.05287470766623,141.05690208300075,141.05690208300075,141.05749495800046,Incorrect! The correct answer is Speaker3. نادرست! پاسخ صحیح گوینده۳ است,0,90,1,2.032649582999511,None,141.06165412500013,141.0706659160005,143.08064412500062,143.05849333300102,,,423482,001,2024-07-01_18h56.48.139,5-26,2024.1.4,None,2024-07-01 18h56.52.675410 +0900,
Images/Speaker1.jpg,Images/Speaker2.jpg,Images/Speaker3.jpg,Images/Speaker4.jpg,Audio/Speaker4_En/P4-17-En.wav,Speaker4,گوینده۴,,,,,,,,,0,0,0,40,0,45,45,76,143.08064412500062,,,,,,,,,,,,,,,,,,,,,,,,,,,,,,,,,,,,,,,,,,,,,143.05938279099973,143.08064412500062,143.08064412500062,143.08064412500062,143.08064412500062,143.09086733333294,143.08064412500062,143.08064412500062,143.10768074999942,Incorrect! The correct answer is Speaker4. نادرست! پاسخ صحیح گوینده۴ است,0,92,1,0.024088709000352537,None,143.11170233300072,143.12395741600085,145.1351748750003,145.1119687499995,,,423482,001,2024-07-01_18h56.48.139,5-26,2024.1.4,None,2024-07-01 18h56.52.675410 +0900,
Images/Speaker1.jpg,Images/Speaker2.jpg,Images/Speaker3.jpg,Images/Speaker4.jpg,Audio/Speaker4_En/P4-5-En.wav,Speaker4,گوینده۴,,,,,,,,,0,0,0,40,0,46,46,64,145.1351748750003,,,,,,,,,,,,,,,,,,,,,,,,,,,,,,,,,,,,,,,,,,,,,145.11219987500044,145.1351748750003,145.1351748750003,145.1351748750003,145.1351748750003,145.14501449933283,145.1351748750003,145.1351748750003,145.2234167080005,Incorrect! The correct answer is Speaker4. نادرست! پاسخ صحیح گوینده۴ است,0,94,1,0.08512616599909961,None,145.22734912499982,145.23971045799954,147.24529099999927,147.2242019160003,,,423482,001,2024-07-01_18h56.48.139,5-26,2024.1.4,None,2024-07-01 18h56.52.675410 +0900,
Images/Speaker1.jpg,Images/Speaker2.jpg,Images/Speaker3.jpg,Images/Speaker4.jpg,Audio/Speaker4_En/P4-12-En.wav,Speaker4,گوینده۴,,,,,,,,,0,0,0,40,0,47,47,71,147.24529099999927,,,,,,,,,,,,,,,,,,,,,,,,,,,,,,,,,,,,,,,,,,,,,147.22442387500087,147.24529099999927,147.24529099999927,147.24529099999927,147.24529099999927,147.24058020766668,147.24529099999927,147.24529099999927,147.40555720799966,Incorrect! The correct answer is Speaker4. نادرست! پاسخ صحیح گوینده۴ است,0,96,1,0.14952270799949474,None,147.40987745799976,147.42263966599967,,149.41482237499986,,,423482,001,2024-07-01_18h56.48.139,5-26,2024.1.4,None,2024-07-01 18h56.52.675410 +0900,
Images/Speaker1.jpg,Images/Speaker2.jpg,Images/Speaker3.jpg,Images/Speaker4.jpg,Audio/Speaker2_En/P2-16-En.wav,Speaker2,گوینده۲,,,,,,,,,0,0,0,40,0,48,48,35,149.44026720799957,,,,,,,,,,,,,,,,,,,,,,,,,,,,,,,,,,,,,,,,,,,,,149.41546158299934,149.44026720799957,149.44026720799957,149.44026720799957,149.44026720799957,149.44795520833264,149.44026720799957,149.44026720799957,149.6930438750005,Incorrect! The correct answer is Speaker2. نادرست! پاسخ صحیح گوینده۲ است,0,98,1,0.2504534589988907,None,149.69734708299984,149.70990020799945,,151.70625875000042,,,423482,001,2024-07-01_18h56.48.139,5-26,2024.1.4,None,2024-07-01 18h56.52.675410 +0900,
Images/Speaker1.jpg,Images/Speaker2.jpg,Images/Speaker3.jpg,Images/Speaker4.jpg,Audio/Speaker3_En/P3-18-En.wav,Speaker3,گوینده۳,,,,,,,,,0,0,0,40,0,49,49,57,151.73099708299924,,,,,,,,,,,,,,,,,,,,,,,,,,,,,,,,,,,,,,,,,,,,,151.70690599999944,151.73099708299924,151.73099708299924,151.73099708299924,151.73099708299924,151.7393929163341,151.73099708299924,151.73099708299924,151.73165358299957,Incorrect! The correct answer is Speaker3. نادرست! پاسخ صحیح گوینده۳ است,0,100,1,2.2062556669989135,None,151.73200966600052,151.74080595799933,153.74845962499967,153.72605254100017,,,423482,001,2024-07-01_18h56.48.139,5-26,2024.1.4,None,2024-07-01 18h56.52.675410 +0900,
Images/Speaker1.jpg,Images/Speaker2.jpg,Images/Speaker3.jpg,Images/Speaker4.jpg,Audio/Speaker4_En/P4-7-En.wav,Speaker4,گوینده۴,,,,,,,,,0,0,0,40,0,50,50,66,153.74845962499967,,,,,,,,,,,,,,,,,,,,,,,,,,,,,,,,,,,,,,,,,,,,,153.7270117909993,153.74845962499967,153.74845962499967,153.74845962499967,153.74845962499967,153.75840754133293,153.74845962499967,153.74845962499967,153.90590375000102,Incorrect! The correct answer is Speaker4. نادرست! پاسخ صحیح گوینده۴ است,0,102,1,0.14753179200124578,None,153.91018962499948,153.92310983300013,,155.91775708299974,,,423482,001,2024-07-01_18h56.48.139,5-26,2024.1.4,None,2024-07-01 18h56.52.675410 +0900,
Images/Speaker1.jpg,Images/Speaker2.jpg,Images/Speaker3.jpg,Images/Speaker4.jpg,Audio/Speaker2_En/P2-20-En.wav,Speaker2,گوینده۲,,,,,,,,,0,0,0,40,0,51,51,39,155.94198816599965,,,,,,,,,,,,,,,,,,,,,,,,,,,,,,,,,,,,,,,,,,,,,155.9183535409993,155.94198816599965,155.94198816599965,155.94198816599965,155.94198816599965,155.9509297913342,155.94198816599965,155.94198816599965,156.053471833,Incorrect! The correct answer is Speaker2. نادرست! پاسخ صحیح گوینده۲ است,0,104,1,0.10408954199920117,None,156.05736358300055,156.0673335829997,158.0827863329996,158.05679562499972,,,423482,001,2024-07-01_18h56.48.139,5-26,2024.1.4,None,2024-07-01 18h56.52.675410 +0900,
Images/Speaker1.jpg,Images/Speaker2.jpg,Images/Speaker3.jpg,Images/Speaker4.jpg,Audio/Speaker3_En/P3-11-En.wav,Speaker3,گوینده۳,,,,,,,,,0,0,0,40,0,52,52,50,158.0827863329996,,,,,,,,,,,,,,,,,,,,,,,,,,,,,,,,,,,,,,,,,,,,,158.0574740409993,158.0827863329996,158.0827863329996,158.0827863329996,158.0827863329996,158.08907774933374,158.0827863329996,158.0827863329996,158.09450475000085,Incorrect! The correct answer is Speaker3. نادرست! پاسخ صحیح گوینده۳ است,0,106,1,0.009726083000714425,None,158.09863287500048,158.11087724999925,,160.09961270799977,,,423482,001,2024-07-01_18h56.48.139,5-26,2024.1.4,None,2024-07-01 18h56.52.675410 +0900,
Images/Speaker1.jpg,Images/Speaker2.jpg,Images/Speaker3.jpg,Images/Speaker4.jpg,Audio/Speaker2_En/P2-5-En.wav,Speaker2,گوینده۲,,,,,,,,,0,0,0,40,0,53,53,24,160.122507125001,,,,,,,,,,,,,,,,,,,,,,,,,,,,,,,,,,,,,,,,,,,,,160.10025674999997,160.122507125001,160.122507125001,160.122507125001,160.122507125001,160.13275333333382,160.122507125001,160.122507125001,160.12309037500017,Incorrect! The correct answer is Speaker2. نادرست! پاسخ صحیح گوینده۲ است,0,108,1,1.9733267080009682,None,160.12331166600052,160.13255316600043,162.1504480830008,162.12404174999938,,,423482,001,2024-07-01_18h56.48.139,5-26,2024.1.4,None,2024-07-01 18h56.52.675410 +0900,
Images/Speaker1.jpg,Images/Speaker2.jpg,Images/Speaker3.jpg,Images/Speaker4.jpg,Audio/Speaker4_En/P4-4-En.wav,Speaker4,گوینده۴,,,,,,,,,0,0,0,40,0,54,54,63,162.1504480830008,,,,,,,,,,,,,,,,,,,,,,,,,,,,,,,,,,,,,,,,,,,,,162.12484675000087,162.1504480830008,162.1504480830008,162.1504480830008,162.1504480830008,162.15645799933424,162.1504480830008,162.1504480830008,162.15107129100033,Incorrect! The correct answer is Speaker4. نادرست! پاسخ صحیح گوینده۴ است,0,110,1,1.9134703330000775,None,162.15147041599994,162.16156916600085,164.17133325000032,164.14585445800003,,,423482,001,2024-07-01_18h56.48.139,5-26,2024.1.4,None,2024-07-01 18h56.52.675410 +0900,
Images/Speaker1.jpg,Images/Speaker2.jpg,Images/Speaker3.jpg,Images/Speaker4.jpg,Audio/Speaker4_En/P4-11-En.wav,Speaker4,گوینده۴,,,,,,,,,0,0,0,40,0,55,55,70,164.17133325000032,,,,,,,,,,,,,,,,,,,,,,,,,,,,,,,,,,,,,,,,,,,,,164.14679820799938,164.17133325000032,164.17133325000032,164.17133325000032,164.17133325000032,164.1782660413342,164.17133325000032,164.17133325000032,164.17192191600043,Incorrect! The correct answer is Speaker4. نادرست! پاسخ صحیح گوینده۴ است,0,112,1,1.8777841669998452,None,164.1724111250005,164.18226066600073,166.19735579100052,166.17273012499936,,,423482,001,2024-07-01_18h56.48.139,5-26,2024.1.4,None,2024-07-01 18h56.52.675410 +0900,
Images/Speaker1.jpg,Images/Speaker2.jpg,Images/Speaker3.jpg,Images/Speaker4.jpg,Audio/Speaker2_En/P2-2-En.wav,Speaker2,گوینده۲,,,,,,,,,0,0,0,40,0,56,56,21,166.19735579100052,,,,,,,,,,,,,,,,,,,,,,,,,,,,,,,,,,,,,,,,,,,,,166.17322437499934,166.19735579100052,166.19735579100052,166.19735579100052,166.19735579100052,166.20509783333415,166.19735579100052,166.19735579100052,166.2182995410003,Incorrect! The correct answer is Speaker2. نادرست! پاسخ صحیح گوینده۲ است,0,114,1,0.01814308400025766,None,166.22221895800067,166.23470745799932,168.24198075000095,168.2219545829994,,,423482,001,2024-07-01_18h56.48.139,5-26,2024.1.4,None,2024-07-01 18h56.52.675410 +0900,
Images/Speaker1.jpg,Images/Speaker2.jpg,Images/Speaker3.jpg,Images/Speaker4.jpg,Audio/Speaker2_En/P2-19-En.wav,Speaker2,گوینده۲,,,,,,,,,0,0,0,40,0,57,57,38,168.24198075000095,,,,,,,,,,,,,,,,,,,,,,,,,,,,,,,,,,,,,,,,,,,,,168.22211112500008,168.24198075000095,168.24198075000095,168.24198075000095,168.24198075000095,168.23839683266695,168.24198075000095,168.24198075000095,168.24260937500003,Incorrect! The correct answer is Speaker2. نادرست! پاسخ صحیح گوینده۲ است,0,116,1,1.935106959001132,None,168.2464966660009,168.2556784160006,170.26797933300077,170.24058983299983,,,423482,001,2024-07-01_18h56.48.139,5-26,2024.1.4,None,2024-07-01 18h56.52.675410 +0900,
Images/Speaker1.jpg,Images/Speaker2.jpg,Images/Speaker3.jpg,Images/Speaker4.jpg,Audio/Speaker2_En/P2-6-En.wav,Speaker2,گوینده۲,,,,,,,,,0,0,0,40,0,58,58,25,170.26797933300077,,,,,,,,,,,,,,,,,,,,,,,,,,,,,,,,,,,,,,,,,,,,,170.24129250000078,170.26797933300077,170.26797933300077,170.26797933300077,170.26797933300077,170.27287520833357,170.26797933300077,170.26797933300077,170.26855554100075,Incorrect! The correct answer is Speaker2. نادرست! پاسخ صحیح گوینده۲ است,0,118,1,1.884742375001224,None,170.2690043750008,170.27909745800025,172.28615575000003,172.2654348750002,,,423482,001,2024-07-01_18h56.48.139,5-26,2024.1.4,None,2024-07-01 18h56.52.675410 +0900,
Images/Speaker1.jpg,Images/Speaker2.jpg,Images/Speaker3.jpg,Images/Speaker4.jpg,Audio/Speaker2_En/P2-17-En.wav,Speaker2,گوینده۲,,,,,,,,,0,0,0,40,0,59,59,36,172.28615575000003,,,,,,,,,,,,,,,,,,,,,,,,,,,,,,,,,,,,,,,,,,,,,172.26559816600093,172.28615575000003,172.28615575000003,172.28615575000003,172.28615575000003,172.28185579166737,172.28615575000003,172.28615575000003,172.28677229099958,Incorrect! The correct answer is Speaker2. نادرست! پاسخ صحیح گوینده۲ است,0,120,1,1.9027756670002418,None,172.29088141600005,172.2998588749997,174.30664358300055,174.28458354100076,,,423482,001,2024-07-01_18h56.48.139,5-26,2024.1.4,None,2024-07-01 18h56.52.675410 +0900,
Images/Speaker1.jpg,Images/Speaker2.jpg,Images/Speaker3.jpg,Images/Speaker4.jpg,Audio/Speaker3_En/P3-17-En.wav,Speaker3,گوینده۳,,,,,,,,,0,0,0,40,0,60,60,56,174.30664358300055,,,,,,,,,,,,,,,,,,,,,,,,,,,,,,,,,,,,,,,,,,,,,174.28559270799997,174.30664358300055,174.30664358300055,174.30664358300055,174.30664358300055,174.30027124966753,174.30664358300055,174.30664358300055,174.30720670799928,Incorrect! The correct answer is Speaker3. نادرست! پاسخ صحیح گوینده۳ است,0,122,1,1.9103926669995417,None,174.30744141600007,174.3180452910001,176.3223185829993,176.30175812500056,,,423482,001,2024-07-01_18h56.48.139,5-26,2024.1.4,None,2024-07-01 18h56.52.675410 +0900,
Images/Speaker1.jpg,Images/Speaker2.jpg,Images/Speaker3.jpg,Images/Speaker4.jpg,Audio/Speaker1_En/P1-7-En.wav,Speaker1,گوینده ۱,,,,,,,,,0,0,0,40,0,61,61,6,176.3223185829993,,,,,,,,,,,,,,,,,,,,,,,,,,,,,,,,,,,,,,,,,,,,,176.3019507909994,176.3223185829993,176.3223185829993,176.3223185829993,176.3223185829993,176.31822091666643,176.3223185829993,176.3223185829993,176.32294212499983,Correct! صحیح است,0,124,1,1.7737217920002877,None,176.32716895799967,176.33530774999963,,178.32836700000007,,,423482,001,2024-07-01_18h56.48.139,5-26,2024.1.4,None,2024-07-01 18h56.52.675410 +0900,
Images/Speaker1.jpg,Images/Speaker2.jpg,Images/Speaker3.jpg,Images/Speaker4.jpg,Audio/Speaker1_En/P1-13-En.wav,Speaker1,گوینده ۱,,,,,,,,,0,0,0,40,0,62,62,12,178.35220375000063,,,,,,,,,,,,,,,,,,,,,,,,,,,,,,,,,,,,,,,,,,,,,178.32894908299932,178.35220375000063,178.35220375000063,178.35220375000063,178.35220375000063,178.3615454163342,178.35220375000063,178.35220375000063,178.35276733300088,Correct! صحیح است,0,126,1,1.7149864999992133,None,178.35310500000014,178.36031816600007,180.37428108300082,180.35130974999993,,,423482,001,2024-07-01_18h56.48.139,5-26,2024.1.4,None,2024-07-01 18h56.52.675410 +0900,
Images/Speaker1.jpg,Images/Speaker2.jpg,Images/Speaker3.jpg,Images/Speaker4.jpg,Audio/Speaker4_En/P4-14-En.wav,Speaker4,گوینده۴,,,,,,,,,0,0,0,40,0,63,63,73,180.37428108300082,,,,,,,,,,,,,,,,,,,,,,,,,,,,,,,,,,,,,,,,,,,,,180.35157041599996,180.37428108300082,180.37428108300082,180.37428108300082,180.37428108300082,180.38128408333301,180.37428108300082,180.37428108300082,180.37483749999956,Incorrect! The correct answer is Speaker4. نادرست! پاسخ صحیح گوینده۴ است,0,128,1,0.09711991600124747,None,180.3752907500002,180.3851305829994,182.39281529099935,182.3718459160009,,,423482,001,2024-07-01_18h56.48.139,5-26,2024.1.4,None,2024-07-01 18h56.52.675410 +0900,
Images/Speaker1.jpg,Images/Speaker2.jpg,Images/Speaker3.jpg,Images/Speaker4.jpg,Audio/Speaker3_En/P3-9-En.wav,Speaker3,گوینده۳,,,,,,,,,0,0,0,40,0,64,64,48,182.39281529099935,,,,,,,,,,,,,,,,,,,,,,,,,,,,,,,,,,,,,,,,,,,,,182.37203504100034,182.39281529099935,182.39281529099935,182.39281529099935,182.39281529099935,182.38830399966744,182.39281529099935,182.39281529099935,182.3934369159997,Incorrect! The correct answer is Speaker3. نادرست! پاسخ صحیح گوینده۳ است,0,130,1,0.08593554199978826,None,182.397216708001,182.40641233300084,184.4105677080006,184.38988516599966,,,423482,001,2024-07-01_18h56.48.139,5-26,2024.1.4,None,2024-07-01 18h56.52.675410 +0900,
Images/Speaker1.jpg,Images/Speaker2.jpg,Images/Speaker3.jpg,Images/Speaker4.jpg,Audio/Speaker1_En/P1-18-En.wav,Speaker1,گوینده ۱,,,,,,,,,0,0,0,40,0,65,65,17,184.4105677080006,,,,,,,,,,,,,,,,,,,,,,,,,,,,,,,,,,,,,,,,,,,,,184.39006683300067,184.4105677080006,184.4105677080006,184.4105677080006,184.4105677080006,184.40631433266597,184.4105677080006,184.4105677080006,184.41117745799966,Correct! صحیح است,0,132,1,0.09798416700141388,None,184.41501037499984,184.4228393329995,186.43208783299997,186.41035612499945,,,423482,001,2024-07-01_18h56.48.139,5-26,2024.1.4,None,2024-07-01 18h56.52.675410 +0900,
Images/Speaker1.jpg,Images/Speaker2.jpg,Images/Speaker3.jpg,Images/Speaker4.jpg,Audio/Speaker1_En/P1-15-En.wav,Speaker1,گوینده ۱,,,,,,,,,0,0,0,40,0,66,66,14,186.43208783299997,,,,,,,,,,,,,,,,,,,,,,,,,,,,,,,,,,,,,,,,,,,,,186.4105601249994,186.43208783299997,186.43208783299997,186.43208783299997,186.43208783299997,186.4267559996663,186.43208783299997,186.43208783299997,186.4326838750003,Correct! صحیح است,0,134,1,0.07202549999965413,None,186.4365815830006,186.44402187500054,,188.4388998329996,,,423482,001,2024-07-01_18h56.48.139,5-26,2024.1.4,None,2024-07-01 18h56.52.675410 +0900,
Images/Speaker1.jpg,Images/Speaker2.jpg,Images/Speaker3.jpg,Images/Speaker4.jpg,Audio/Speaker1_En/P1-5-En.wav,Speaker1,گوینده ۱,,,,,,,,,0,0,0,40,0,67,67,4,188.46148245800032,,,,,,,,,,,,,,,,,,,,,,,,,,,,,,,,,,,,,,,,,,,,,188.4396447500003,188.46148245800032,188.46148245800032,188.46148245800032,188.46148245800032,188.45540274966723,188.46148245800032,188.46148245800032,188.46215166600086,Correct! صحیح است,0,136,1,1.953779833000226,None,188.46597500000098,188.47347754099974,190.48237675000018,190.4584388330004,,,423482,001,2024-07-01_18h56.48.139,5-26,2024.1.4,None,2024-07-01 18h56.52.675410 +0900,
Images/Speaker1.jpg,Images/Speaker2.jpg,Images/Speaker3.jpg,Images/Speaker4.jpg,Audio/Speaker2_En/P2-4-En.wav,Speaker2,گوینده۲,,,,,,,,,0,0,0,40,0,68,68,23,190.48237675000018,,,,,,,,,,,,,,,,,,,,,,,,,,,,,,,,,,,,,,,,,,,,,190.45861666600103,190.48237675000018,190.48237675000018,190.48237675000018,190.48237675000018,190.47489649966727,190.48237675000018,190.48237675000018,190.48299816600047,Incorrect! The correct answer is Speaker2. نادرست! پاسخ صحیح گوینده۲ است,0,138,1,2.0053468340011023,None,190.48721970800034,190.49643629099955,192.50307050000083,192.4796907079999,,,423482,001,2024-07-01_18h56.48.139,5-26,2024.1.4,None,2024-07-01 18h56.52.675410 +0900,
Images/Speaker1.jpg,Images/Speaker2.jpg,Images/Speaker3.jpg,Images/Speaker4.jpg,Audio/Speaker3_En/P3-3-En.wav,Speaker3,گوینده۳,,,,,,,,,0,0,0,40,0,69,69,42,192.50307050000083,,,,,,,,,,,,,,,,,,,,,,,,,,,,,,,,,,,,,,,,,,,,,192.47987004099923,192.50307050000083,192.50307050000083,192.50307050000083,192.50307050000083,192.49612454166734,192.50307050000083,192.50307050000083,192.9485682909999,Incorrect! The correct answer is Speaker3. نادرست! پاسخ صحیح گوینده۳ است,0,140,1,0.44293775000005553,None,192.952602708001,192.9648526660003,194.975079541,194.95212999999967,,,423482,001,2024-07-01_18h56.48.139,5-26,2024.1.4,None,2024-07-01 18h56.52.675410 +0900,
Images/Speaker1.jpg,Images/Speaker2.jpg,Images/Speaker3.jpg,Images/Speaker4.jpg,Audio/Speaker3_En/P3-1-En.wav,Speaker3,گوینده۳,,,,,,,,,0,0,0,40,0,70,70,40,194.975079541,,,,,,,,,,,,,,,,,,,,,,,,,,,,,,,,,,,,,,,,,,,,,194.95232233299976,194.975079541,194.975079541,194.975079541,194.975079541,194.98515966633437,194.975079541,194.975079541,195.1258641250006,Incorrect! The correct answer is Speaker3. نادرست! پاسخ صحیح گوینده۳ است,0,142,1,0.14768379199995252,None,195.12975479099987,195.14242312500028,,197.13280587500049,,,423482,001,2024-07-01_18h56.48.139,5-26,2024.1.4,None,2024-07-01 18h56.52.675410 +0900,
Images/Speaker1.jpg,Images/Speaker2.jpg,Images/Speaker3.jpg,Images/Speaker4.jpg,Audio/Speaker3_En/P3-20-En.wav,Speaker3,گوینده۳,,,,,,,,,0,0,0,40,0,71,71,59,197.1533482499999,,,,,,,,,,,,,,,,,,,,,,,,,,,,,,,,,,,,,,,,,,,,,197.13299441600066,197.1533482499999,197.1533482499999,197.1533482499999,197.1533482499999,197.14942229166653,197.1533482499999,197.1533482499999,197.15398987499975,Incorrect! The correct answer is Speaker3. نادرست! پاسخ صحیح گوینده۳ است,0,144,1,2.058537625000099,None,197.15818512499936,197.16740475000006,199.1800595830009,199.1561760000004,,,423482,001,2024-07-01_18h56.48.139,5-26,2024.1.4,None,2024-07-01 18h56.52.675410 +0900,
Images/Speaker1.jpg,Images/Speaker2.jpg,Images/Speaker3.jpg,Images/Speaker4.jpg,Audio/Speaker1_En/P1-10-En.wav,Speaker1,گوینده ۱,,,,,,,,,0,0,0,40,0,72,72,9,199.1800595830009,,,,,,,,,,,,,,,,,,,,,,,,,,,,,,,,,,,,,,,,,,,,,199.15635704099986,199.1800595830009,199.1800595830009,199.1800595830009,199.1800595830009,199.17214754166733,199.1800595830009,199.1800595830009,199.180740916001,Correct! صحیح است,0,146,1,1.9993570419992466,None,199.184461791001,199.19221495800048,201.20098620799945,201.17903695799941,,,423482,001,2024-07-01_18h56.48.139,5-26,2024.1.4,None,2024-07-01 18h56.52.675410 +0900,
Images/Speaker1.jpg,Images/Speaker2.jpg,Images/Speaker3.jpg,Images/Speaker4.jpg,Audio/Speaker2_En/P2-11-En.wav,Speaker2,گوینده۲,,,,,,,,,0,0,0,40,0,73,73,30,201.20098620799945,,,,,,,,,,,,,,,,,,,,,,,,,,,,,,,,,,,,,,,,,,,,,201.17919841600087,201.20098620799945,201.20098620799945,201.20098620799945,201.20098620799945,201.19537474966663,201.20098620799945,201.20098620799945,201.3892215830001,Incorrect! The correct answer is Speaker2. نادرست! پاسخ صحیح گوینده۲ است,0,148,1,0.18524941699979536,None,201.3929255410003,201.40526379100083,,203.39825349999956,,,423482,001,2024-07-01_18h56.48.139,5-26,2024.1.4,None,2024-07-01 18h56.52.675410 +0900,
Images/Speaker1.jpg,Images/Speaker2.jpg,Images/Speaker3.jpg,Images/Speaker4.jpg,Audio/Speaker2_En/P2-8-En.wav,Speaker2,گوینده۲,,,,,,,,,0,0,0,40,0,74,74,27,203.4217268329994,,,,,,,,,,,,,,,,,,,,,,,,,,,,,,,,,,,,,,,,,,,,,203.398905,203.4217268329994,203.4217268329994,203.4217268329994,203.4217268329994,203.43137608333433,203.4217268329994,203.4217268329994,203.45965158299987,Incorrect! The correct answer is Speaker2. نادرست! پاسخ صحیح گوینده۲ است,0,150,1,0.03638045800107648,None,203.46385704100067,203.47714529100085,,205.46413358300015,,,423482,001,2024-07-01_18h56.48.139,5-26,2024.1.4,None,2024-07-01 18h56.52.675410 +0900,
Images/Speaker1.jpg,Images/Speaker2.jpg,Images/Speaker3.jpg,Images/Speaker4.jpg,Audio/Speaker2_En/P2-7-En.wav,Speaker2,گوینده۲,,,,,,,,,0,0,0,40,0,75,75,26,205.4874224159994,,,,,,,,,,,,,,,,,,,,,,,,,,,,,,,,,,,,,,,,,,,,,205.4648898329997,205.4874224159994,205.4874224159994,205.4874224159994,205.4874224159994,205.49729929133406,205.4874224159994,205.4874224159994,205.5197951249993,Incorrect! The correct answer is Speaker2. نادرست! پاسخ صحیح گوینده۲ است,0,152,1,0.02895524999985355,None,205.5235714999999,205.5366255000008,,207.52467316600087,,,423482,001,2024-07-01_18h56.48.139,5-26,2024.1.4,None,2024-07-01 18h56.52.675410 +0900,
Images/Speaker1.jpg,Images/Speaker2.jpg,Images/Speaker3.jpg,Images/Speaker4.jpg,Audio/Speaker1_En/P1-4-En.wav,Speaker1,گوینده ۱,,,,,,,,,0,0,0,40,0,76,76,3,207.55026050000015,,,,,,,,,,,,,,,,,,,,,,,,,,,,,,,,,,,,,,,,,,,,,207.52530779100016,207.55026050000015,207.55026050000015,207.55026050000015,207.55026050000015,207.5578546663333,207.55026050000015,207.55026050000015,207.7292797909995,Correct! صحیح است,0,154,1,0.17676654100068845,None,207.73340074999942,207.74590983300004,,209.7389978329993,,,423482,001,2024-07-01_18h56.48.139,5-26,2024.1.4,None,2024-07-01 18h56.52.675410 +0900,
Images/Speaker1.jpg,Images/Speaker2.jpg,Images/Speaker3.jpg,Images/Speaker4.jpg,Audio/Speaker4_En/P4-20-En.wav,Speaker4,گوینده۴,,,,,,,,,0,0,0,40,0,77,77,79,209.76157504100047,,,,,,,,,,,,,,,,,,,,,,,,,,,,,,,,,,,,,,,,,,,,,209.73976058299922,209.76157504100047,209.76157504100047,209.76157504100047,209.76157504100047,209.75549083266768,209.76157504100047,209.76157504100047,209.92978491599933,Incorrect! The correct answer is Speaker4. نادرست! پاسخ صحیح گوینده۴ است,0,156,1,None,None,209.9337180830007,209.94460012499985,,211.93822287500006,,,423482,001,2024-07-01_18h56.48.139,5-26,2024.1.4,None,2024-07-01 18h56.52.675410 +0900,
Images/Speaker1.jpg,Images/Speaker2.jpg,Images/Speaker3.jpg,Images/Speaker4.jpg,Audio/Speaker2_En/P2-18-En.wav,Speaker2,گوینده۲,,,,,,,,,0,0,0,40,0,78,78,37,211.96164770799987,,,,,,,,,,,,,,,,,,,,,,,,,,,,,,,,,,,,,,,,,,,,,211.93877066599998,211.96164770799987,211.96164770799987,211.96164770799987,211.96164770799987,211.97140337433353,211.96164770799987,211.96164770799987,212.061465666,Incorrect! The correct answer is Speaker2. نادرست! پاسخ صحیح گوینده۲ است,0,158,1,0.0977397499991639,None,212.06546750000052,212.07812479099994,,214.06612725000014,,,423482,001,2024-07-01_18h56.48.139,5-26,2024.1.4,None,2024-07-01 18h56.52.675410 +0900,
Images/Speaker1.jpg,Images/Speaker2.jpg,Images/Speaker3.jpg,Images/Speaker4.jpg,Audio/Speaker3_En/P3-12-En.wav,Speaker3,گوینده۳,,,,,,,,,0,0,0,40,0,79,79,51,214.08677441600048,,,,,,,,,,,,,,,,,,,,,,,,,,,,,,,,,,,,,,,,,,,,,214.06632225000067,214.08677441600048,214.08677441600048,214.08677441600048,214.08677441600048,214.08272366666668,214.08677441600048,214.08677441600048,214.20159287500064,Incorrect! The correct answer is Speaker3. نادرست! پاسخ صحیح گوینده۳ است,0,160,1,0.11172299999998359,None,214.20546329100034,214.21780175000094,,216.20771112500006,,,423482,001,2024-07-01_18h56.48.139,5-26,2024.1.4,None,2024-07-01 18h56.52.675410 +0900,
,,,,,,,,,,,,,,,,,,,,,,,,,,,,,,,,,,,,,,,,,,,,,,,,,,,,,,,,,,,,,,,,,,,,,,,,,,,,,,,,,,,,,,,216.20795612499933,216.20894329099974,,,,,,,,
