SpeakerImage1,SpeakerImage2,SpeakerImage3,SpeakerImage4,TrainingSound,EnglishCorrectAnswer,PersianCorrectAnswer,SpeakerPhoto1,SpeakerPhoto2,SpeakerPhoto3,SpeakerPhoto4,TestingSound,EnglishCorrectResponse,PersianCorrectResponse,repeated_TrainingLoopGroup2.thisRepN,repeated_TrainingLoopGroup2.thisTrialN,repeated_TrainingLoopGroup2.thisN,repeated_TrainingLoopGroup2.thisIndex,TrainingLoopGroup2.thisRepN,TrainingLoopGroup2.thisTrialN,TrainingLoopGroup2.thisN,TrainingLoopGroup2.thisIndex,testPhase2Loop.thisRepN,testPhase2Loop.thisTrialN,testPhase2Loop.thisN,testPhase2Loop.thisIndex,thisRow.t,notes,trial.started,trial.stopped,GroupSelection.started,GroupInstructions.started,key_resp.started,GroupSelection.stopped,key_resp.keys,key_resp.rt,key_resp.duration,Introduction.started,text_2.started,image.started,sound_7.started,text_4.started,text_2.stopped,sound_8.started,image.stopped,text_4.stopped,image_7.started,sound_9.started,text_5.started,sound_10.started,image_7.stopped,text_5.stopped,image_8.started,sound_11.started,text_6.started,sound_12.started,image_8.stopped,text_6.stopped,image_9.started,sound_13.started,text_7.started,sound_14.started,image_9.stopped,text_7.stopped,Introduction.stopped,Instructions.started,InstructionText.started,InstructionText.stopped,Instructions.stopped,InitializeExperiment.started,InitializeExperiment.stopped,TrainingGroup2.started,image_11.started,SpeakerPicture2.started,image_5.started,image_6.started,Sound2.started,Instruction2.started,Response2.started,TrainingGroup2.stopped,feedbackText,correct_responses_group2,total_trials_group2,Response2.keys,Response2.rt,Response2.duration,FeedbackRoutine2.started,FeedbackText2.started,FeedbackRoutine2.stopped,FeedbackText2.stopped,CheckAccuracy2.started,accuracy_group3,proceed_to_test,CheckAccuracy2.stopped,WelcomeTest.started,text_12.started,text_12.stopped,WelcomeTest.stopped,TestPhase2.started,test2_image1.started,test2_image2.started,test2_image3.started,test2_image4.started,test2_sound.started,text_8.started,test2_response_keyboard.started,TestPhase2.stopped,test2_response_keyboard.keys,test2_response_keyboard.rt,test2_response_keyboard.duration,test2_response,test2_image_file1,test2_image_file2,test2_image_file3,test2_image_file4,test2_sound_file,english_correct_answer,persian_correct_answer,participant,session,date,expName,psychopyVersion,frameRate,expStart,
,,,,,,,,,,,,,,,,,,,,,,,,,,,,0.010122083003807347,0.010416333003377076,,,,,,,,,,,,,,,,,,,,,,,,,,,,,,,,,,,,,,,,,,,,,,,,,,,,,,,,,,,,,,,,,,,,,,,,,,,,,,,,,,,,,,,,,445052,001,2024-07-02_19h52.56.848,5-35,2024.1.4,None,2024-07-02 19h53.02.186390 +0900,
,,,,,,,,,,,,,,,,,,,,,,,,,,,,,,0.010430125003040303,0.014838625000265893,0.014838625000265893,1.7665508330028388,2,1.7137025829943013,None,,,,,,,,,,,,,,,,,,,,,,,,,,,,,,,,,,,,,,,,,,,,,,,,,,,,,,,,,,,,,,,,,,,,,,,,,,,,,,,,,,445052,001,2024-07-02_19h52.56.848,5-35,2024.1.4,None,2024-07-02 19h53.02.186390 +0900,
,,,,,,,,,,,,,,,,,,,,,,,,,,,,,,,,,,,,,1.7665797919980832,1.8240942080010427,6.765500542001973,6.7719889996699445,6.765500542001973,6.820977583003696,11.766027458670822,16.761115000001155,16.761115000001155,16.761115000001155,16.76714033366831,16.761115000001155,21.77251324966734,26.750766333003412,26.750766333003412,26.761901124998985,26.767432999670078,26.761901124998985,31.770397666663726,36.748677249997854,36.748677249997854,36.76796558299975,36.77965845866517,36.76796558299975,41.77205741667082,46.76390533299855,46.76390533299855,46.75205383299908,,,,,,,,,,,,,,,,,,,,,,,,,,,,,,,,,,,,,,,,,,,,,,,,,,,,,,445052,001,2024-07-02_19h52.56.848,5-35,2024.1.4,None,2024-07-02 19h53.02.186390 +0900,
,,,,,,,,,,,,,,,,,,,,,,,,,,,,,,,,,,,,,,,,,,,,,,,,,,,,,,,,,,,,,,,,,46.75207395799953,46.76390533299855,47.831363375000365,47.75346970799728,,,,,,,,,,,,,,,,,,,,,,,,,,,,,,,,,,,,,,,,,,,,,,,,,,445052,001,2024-07-02_19h52.56.848,5-35,2024.1.4,None,2024-07-02 19h53.02.186390 +0900,
,,,,,,,,,,,,,,,,,,,,,,,,,,,,,,,,,,,,,,,,,,,,,,,,,,,,,,,,,,,,,,,,,,,,,47.753484207998554,47.75363854200259,,,,,,,,,,,,,,,,,,,,,,,,,,,,,,,,,,,,,,,,,,,,,,,,445052,001,2024-07-02_19h52.56.848,5-35,2024.1.4,None,2024-07-02 19h53.02.186390 +0900,
Images/Speaker1.jpg,Images/Speaker2.jpg,Images/Speaker3.jpg,Images/Speaker4.jpg,Audio/Speaker2_Per/P2-12-Per.wav,Speaker2,گوینده۲,,,,,,,,0,0,0,71,0,0,0,31,,,,,47.831363375000365,,,,,,,,,,,,,,,,,,,,,,,,,,,,,,,,,,,,,,,,,,,,,47.805807124997955,47.831363375000365,47.831363375000365,47.831363375000365,47.831363375000365,47.836589583331566,47.831363375000365,47.831363375000365,49.21387187499931,Incorrect! The correct answer is Speaker2. نادرست! پاسخ صحیح گوینده۲ است,0,1,1,1.3798599999936414,None,49.21823170800053,49.23152695799945,51.225408833000984,,,,,,,,,,,,,,,,,,,,,,,,,,,,,,445052,001,2024-07-02_19h52.56.848,5-35,2024.1.4,None,2024-07-02 19h53.02.186390 +0900,
Images/Speaker1.jpg,Images/Speaker2.jpg,Images/Speaker3.jpg,Images/Speaker4.jpg,Audio/Speaker3_Per/P3-20-Per.wav,Speaker3,گوینده۳,,,,,,,,0,0,0,71,0,1,1,59,,,,,51.24967887499952,,,,,,,,,,,,,,,,,,,,,,,,,,,,,,,,,,,,,,,,,,,,,51.22614458300086,51.24967887499952,51.24967887499952,51.24967887499952,51.24967887499952,51.258542583331774,51.24967887499952,51.24967887499952,51.439229542003886,Incorrect! The correct answer is Speaker3. نادرست! پاسخ صحیح گوینده۳ است,0,1,1,0.18604254199453862,None,51.442993875003594,51.455646250004065,53.44106974999886,53.46267049999733,,,,,,,,,,,,,,,,,,,,,,,,,,,,,445052,001,2024-07-02_19h52.56.848,5-35,2024.1.4,None,2024-07-02 19h53.02.186390 +0900,
Images/Speaker1.jpg,Images/Speaker2.jpg,Images/Speaker3.jpg,Images/Speaker4.jpg,Audio/Speaker4_Per/P4-9-Per.wav,Speaker4,گوینده۴,,,,,,,,0,0,0,71,0,2,2,68,,,,,53.46267049999733,,,,,,,,,,,,,,,,,,,,,,,,,,,,,,,,,,,,,,,,,,,,,53.44125962500402,53.46267049999733,53.46267049999733,53.46267049999733,53.46267049999733,53.45748158366429,53.46267049999733,53.46267049999733,53.642071417001716,Incorrect! The correct answer is Speaker4. نادرست! پاسخ صحیح گوینده۴ است,0,1,1,0.17428162499709288,None,53.645812957998714,53.65841758299939,55.64599283300049,,,,,,,,,,,,,,,,,,,,,,,,,,,,,,445052,001,2024-07-02_19h52.56.848,5-35,2024.1.4,None,2024-07-02 19h53.02.186390 +0900,
Images/Speaker1.jpg,Images/Speaker2.jpg,Images/Speaker3.jpg,Images/Speaker4.jpg,Audio/Speaker1_Per/P1-4-Per.wav,Speaker1,گوینده ۱,,,,,,,,0,0,0,71,0,3,3,13,,,,,55.669750458000635,,,,,,,,,,,,,,,,,,,,,,,,,,,,,,,,,,,,,,,,,,,,,55.64663033300167,55.669750458000635,55.669750458000635,55.669750458000635,55.669750458000635,55.67918066633186,55.669750458000635,55.669750458000635,55.80808133300161,Correct! صحیح است,1,1,1,0.13536054200085346,None,55.81173479199788,55.823594250003225,57.80796670800191,57.828823042000295,,,,,,,,,,,,,,,,,,,,,,,,,,,,,445052,001,2024-07-02_19h52.56.848,5-35,2024.1.4,None,2024-07-02 19h53.02.186390 +0900,
Images/Speaker1.jpg,Images/Speaker2.jpg,Images/Speaker3.jpg,Images/Speaker4.jpg,Audio/Speaker4_Per/P4-19-Per.wav,Speaker4,گوینده۴,,,,,,,,0,0,0,71,0,4,4,78,,,,,57.828823042000295,,,,,,,,,,,,,,,,,,,,,,,,,,,,,,,,,,,,,,,,,,,,,57.8081397920032,57.828823042000295,57.828823042000295,57.828823042000295,57.828823042000295,57.82443608366545,57.828823042000295,57.828823042000295,57.95509616700292,Incorrect! The correct answer is Speaker4. نادرست! پاسخ صحیح گوینده۴ است,0,1,1,0.12377654100419022,None,57.958950708001794,57.97099554200395,59.96074958299869,,,,,,,,,,,,,,,,,,,,,,,,,,,,,,445052,001,2024-07-02_19h52.56.848,5-35,2024.1.4,None,2024-07-02 19h53.02.186390 +0900,
Images/Speaker1.jpg,Images/Speaker2.jpg,Images/Speaker3.jpg,Images/Speaker4.jpg,Audio/Speaker4_Per/P4-17-Per.wav,Speaker4,گوینده۴,,,,,,,,0,0,0,71,0,5,5,76,,,,,59.98443687499821,,,,,,,,,,,,,,,,,,,,,,,,,,,,,,,,,,,,,,,,,,,,,59.96133874999941,59.98443687499821,59.98443687499821,59.98443687499821,59.98443687499821,59.99392404133735,59.98443687499821,59.98443687499821,60.07163608299743,Incorrect! The correct answer is Speaker4. نادرست! پاسخ صحیح گوینده۴ است,0,1,1,0.08468162499775644,None,60.0758272919993,60.08863179200125,62.07635445800406,62.10008483300044,,,,,,,,,,,,,,,,,,,,,,,,,,,,,445052,001,2024-07-02_19h52.56.848,5-35,2024.1.4,None,2024-07-02 19h53.02.186390 +0900,
Images/Speaker1.jpg,Images/Speaker2.jpg,Images/Speaker3.jpg,Images/Speaker4.jpg,Audio/Speaker4_Per/P4-18-Per.wav,Speaker4,گوینده۴,,,,,,,,0,0,0,71,0,6,6,77,,,,,62.10008483300044,,,,,,,,,,,,,,,,,,,,,,,,,,,,,,,,,,,,,,,,,,,,,62.076859291999426,62.10008483300044,62.10008483300044,62.10008483300044,62.10008483300044,62.108707750333025,62.10008483300044,62.10008483300044,62.1561124170039,Incorrect! The correct answer is Speaker4. نادرست! پاسخ صحیح گوینده۴ است,0,1,1,0.055060542006685864,None,62.16023070800293,62.17331366700091,64.15683116699802,64.1778326249987,,,,,,,,,,,,,,,,,,,,,,,,,,,,,445052,001,2024-07-02_19h52.56.848,5-35,2024.1.4,None,2024-07-02 19h53.02.186390 +0900,
Images/Speaker1.jpg,Images/Speaker2.jpg,Images/Speaker3.jpg,Images/Speaker4.jpg,Audio/Speaker1_Per/P1-13-Per.wav,Speaker1,گوینده ۱,,,,,,,,0,0,0,71,0,7,7,12,,,,,64.1778326249987,,,,,,,,,,,,,,,,,,,,,,,,,,,,,,,,,,,,,,,,,,,,,64.15703495799971,64.1778326249987,64.1778326249987,64.1778326249987,64.1778326249987,64.17328887466671,64.1778326249987,64.1778326249987,64.32174749999831,Correct! صحیح است,1,1,1,0.14290816699940478,None,64.32550554200134,64.33649916700233,66.3260795419992,,,,,,,,,,,,,,,,,,,,,,,,,,,,,,445052,001,2024-07-02_19h52.56.848,5-35,2024.1.4,None,2024-07-02 19h53.02.186390 +0900,
Images/Speaker1.jpg,Images/Speaker2.jpg,Images/Speaker3.jpg,Images/Speaker4.jpg,Audio/Speaker3_Per/P3-9-Per.wav,Speaker3,گوینده۳,,,,,,,,0,0,0,71,0,8,8,48,,,,,66.34988054200221,,,,,,,,,,,,,,,,,,,,,,,,,,,,,,,,,,,,,,,,,,,,,66.3267641670027,66.34988054200221,66.34988054200221,66.34988054200221,66.34988054200221,66.359257875331,66.34988054200221,66.34988054200221,66.35056637500384,Incorrect! The correct answer is Speaker3. نادرست! پاسخ صحیح گوینده۳ است,0,1,1,2.0761407500031055,None,66.35082366700226,66.36080845799734,68.34616229200037,68.37211787499837,,,,,,,,,,,,,,,,,,,,,,,,,,,,,445052,001,2024-07-02_19h52.56.848,5-35,2024.1.4,None,2024-07-02 19h53.02.186390 +0900,
Images/Speaker1.jpg,Images/Speaker2.jpg,Images/Speaker3.jpg,Images/Speaker4.jpg,Audio/Speaker3_Per/P3-18-Per.wav,Speaker3,گوینده۳,,,,,,,,0,0,0,71,0,9,9,57,,,,,68.37211787499837,,,,,,,,,,,,,,,,,,,,,,,,,,,,,,,,,,,,,,,,,,,,,68.34708600000158,68.37211787499837,68.37211787499837,68.37211787499837,68.37211787499837,68.37858179133084,68.37211787499837,68.37211787499837,68.37268904200027,Incorrect! The correct answer is Speaker3. نادرست! پاسخ صحیح گوینده۳ است,0,1,1,1.945879666993278,None,68.37304874999973,68.3826125830019,70.37339758300368,,,,,,,,,,,,,,,,,,,,,,,,,,,,,,445052,001,2024-07-02_19h52.56.848,5-35,2024.1.4,None,2024-07-02 19h53.02.186390 +0900,
Images/Speaker1.jpg,Images/Speaker2.jpg,Images/Speaker3.jpg,Images/Speaker4.jpg,Audio/Speaker3_Per/P3-4-Per.wav,Speaker3,گوینده۳,,,,,,,,0,0,0,71,0,10,10,43,,,,,70.39795925000362,,,,,,,,,,,,,,,,,,,,,,,,,,,,,,,,,,,,,,,,,,,,,70.37400024999806,70.39795925000362,70.39795925000362,70.39795925000362,70.39795925000362,70.40655854133414,70.39795925000362,70.39795925000362,70.64589158300078,Incorrect! The correct answer is Speaker3. نادرست! پاسخ صحیح گوینده۳ است,0,1,1,0.24570987500192132,None,70.6496605420034,70.66256783300196,72.64604237500316,72.66637516699848,,,,,,,,,,,,,,,,,,,,,,,,,,,,,445052,001,2024-07-02_19h52.56.848,5-35,2024.1.4,None,2024-07-02 19h53.02.186390 +0900,
Images/Speaker1.jpg,Images/Speaker2.jpg,Images/Speaker3.jpg,Images/Speaker4.jpg,Audio/Speaker2_Per/P2-1-Per.wav,Speaker2,گوینده۲,,,,,,,,0,0,0,71,0,11,11,20,,,,,72.66637516699848,,,,,,,,,,,,,,,,,,,,,,,,,,,,,,,,,,,,,,,,,,,,,72.64620512499823,72.66637516699848,72.66637516699848,72.66637516699848,72.66637516699848,72.66249633366921,72.66637516699848,72.66637516699848,72.66702100000111,Incorrect! The correct answer is Speaker2. نادرست! پاسخ صحیح گوینده۲ است,0,1,1,2.1707933330035303,None,72.67118112499884,72.6809625829992,74.67223141700379,,,,,,,,,,,,,,,,,,,,,,,,,,,,,,445052,001,2024-07-02_19h52.56.848,5-35,2024.1.4,None,2024-07-02 19h53.02.186390 +0900,
Images/Speaker1.jpg,Images/Speaker2.jpg,Images/Speaker3.jpg,Images/Speaker4.jpg,Audio/Speaker2_Per/P2-19-Per.wav,Speaker2,گوینده۲,,,,,,,,0,0,0,71,0,12,12,38,,,,,74.6960962919984,,,,,,,,,,,,,,,,,,,,,,,,,,,,,,,,,,,,,,,,,,,,,74.67285516700213,74.6960962919984,74.6960962919984,74.6960962919984,74.6960962919984,74.70534966633616,74.6960962919984,74.6960962919984,74.69684004200099,Incorrect! The correct answer is Speaker2. نادرست! پاسخ صحیح گوینده۲ است,0,1,1,1.9016133330005687,None,74.6971269170026,74.7069409579999,76.69827545800217,,,,,,,,,,,,,,,,,,,,,,,,,,,,,,445052,001,2024-07-02_19h52.56.848,5-35,2024.1.4,None,2024-07-02 19h53.02.186390 +0900,
Images/Speaker1.jpg,Images/Speaker2.jpg,Images/Speaker3.jpg,Images/Speaker4.jpg,Audio/Speaker2_Per/P2-20-Per.wav,Speaker2,گوینده۲,,,,,,,,0,0,0,71,0,13,13,39,,,,,76.72200737499952,,,,,,,,,,,,,,,,,,,,,,,,,,,,,,,,,,,,,,,,,,,,,76.69888433300366,76.72200737499952,76.72200737499952,76.72200737499952,76.72200737499952,76.73146662533739,76.72200737499952,76.72200737499952,76.772449666998,Incorrect! The correct answer is Speaker2. نادرست! پاسخ صحیح گوینده۲ است,0,1,1,0.04342962500231806,None,76.77652099999978,76.78614050000033,78.77889362499991,,,,,,,,,,,,,,,,,,,,,,,,,,,,,,445052,001,2024-07-02_19h52.56.848,5-35,2024.1.4,None,2024-07-02 19h53.02.186390 +0900,
Images/Speaker1.jpg,Images/Speaker2.jpg,Images/Speaker3.jpg,Images/Speaker4.jpg,Audio/Speaker4_Per/P4-2-Per.wav,Speaker4,گوینده۴,,,,,,,,0,0,0,71,0,14,14,61,,,,,78.80123129200365,,,,,,,,,,,,,,,,,,,,,,,,,,,,,,,,,,,,,,,,,,,,,78.77905900000042,78.80123129200365,78.80123129200365,78.80123129200365,78.80123129200365,78.79552941666431,78.80123129200365,78.80123129200365,78.80181916699803,Incorrect! The correct answer is Speaker4. نادرست! پاسخ صحیح گوینده۴ است,0,1,1,1.9928582920038025,None,78.80590374999883,78.81533433299774,80.80549941700156,80.82962404200225,,,,,,,,,,,,,,,,,,,,,,,,,,,,,445052,001,2024-07-02_19h52.56.848,5-35,2024.1.4,None,2024-07-02 19h53.02.186390 +0900,
Images/Speaker1.jpg,Images/Speaker2.jpg,Images/Speaker3.jpg,Images/Speaker4.jpg,Audio/Speaker3_Per/P3-7-Per.wav,Speaker3,گوینده۳,,,,,,,,0,0,0,71,0,15,15,46,,,,,80.82962404200225,,,,,,,,,,,,,,,,,,,,,,,,,,,,,,,,,,,,,,,,,,,,,80.80565520800155,80.82962404200225,80.82962404200225,80.82962404200225,80.82962404200225,80.82191112466923,80.82962404200225,80.82962404200225,80.83025779200398,Incorrect! The correct answer is Speaker3. نادرست! پاسخ صحیح گوینده۳ است,0,1,1,2.0102291250004782,None,80.83436820800125,80.84400791700318,82.83030737499939,82.85513958299998,,,,,,,,,,,,,,,,,,,,,,,,,,,,,445052,001,2024-07-02_19h52.56.848,5-35,2024.1.4,None,2024-07-02 19h53.02.186390 +0900,
Images/Speaker1.jpg,Images/Speaker2.jpg,Images/Speaker3.jpg,Images/Speaker4.jpg,Audio/Speaker4_Per/P4-5-Per.wav,Speaker4,گوینده۴,,,,,,,,0,0,0,71,0,16,16,64,,,,,82.85513958299998,,,,,,,,,,,,,,,,,,,,,,,,,,,,,,,,,,,,,,,,,,,,,82.831325207997,82.85513958299998,82.85513958299998,82.85513958299998,82.85513958299998,82.86271012533737,82.85513958299998,82.85513958299998,82.86596891700174,Incorrect! The correct answer is Speaker4. نادرست! پاسخ صحیح گوینده۴ است,0,1,1,0.007314999995287508,None,82.8699685419997,82.88262337500055,84.86710912499984,84.88764191699738,,,,,,,,,,,,,,,,,,,,,,,,,,,,,445052,001,2024-07-02_19h52.56.848,5-35,2024.1.4,None,2024-07-02 19h53.02.186390 +0900,
Images/Speaker1.jpg,Images/Speaker2.jpg,Images/Speaker3.jpg,Images/Speaker4.jpg,Audio/Speaker1_Per/P1-18-Per.wav,Speaker1,گوینده ۱,,,,,,,,0,0,0,71,0,17,17,17,,,,,84.88764191699738,,,,,,,,,,,,,,,,,,,,,,,,,,,,,,,,,,,,,,,,,,,,,84.86733000000095,84.88764191699738,84.88764191699738,84.88764191699738,84.88764191699738,84.88353924966601,84.88764191699738,84.88764191699738,84.88822737499868,Correct! صحیح است,1,1,1,1.9597806659949129,None,84.89218741699733,84.90025508299732,86.88399049999862,86.90877895800077,,,,,,,,,,,,,,,,,,,,,,,,,,,,,445052,001,2024-07-02_19h52.56.848,5-35,2024.1.4,None,2024-07-02 19h53.02.186390 +0900,
Images/Speaker1.jpg,Images/Speaker2.jpg,Images/Speaker3.jpg,Images/Speaker4.jpg,Audio/Speaker1_Per/P1-10-Per.wav,Speaker1,گوینده ۱,,,,,,,,0,0,0,71,0,18,18,9,,,,,86.90877895800077,,,,,,,,,,,,,,,,,,,,,,,,,,,,,,,,,,,,,,,,,,,,,86.88490587499837,86.90877895800077,86.90877895800077,86.90877895800077,86.90877895800077,86.91640537533434,86.90877895800077,86.90877895800077,86.90935449999961,Correct! صحیح است,1,1,1,1.9157006660025218,None,86.90966537500208,86.91816149999795,88.9027031250007,88.92572945800202,,,,,,,,,,,,,,,,,,,,,,,,,,,,,445052,001,2024-07-02_19h52.56.848,5-35,2024.1.4,None,2024-07-02 19h53.02.186390 +0900,
Images/Speaker1.jpg,Images/Speaker2.jpg,Images/Speaker3.jpg,Images/Speaker4.jpg,Audio/Speaker3_Per/P3-11-Per.wav,Speaker3,گوینده۳,,,,,,,,0,0,0,71,0,19,19,50,,,,,88.92572945800202,,,,,,,,,,,,,,,,,,,,,,,,,,,,,,,,,,,,,,,,,,,,,88.90286841699708,88.92572945800202,88.92572945800202,88.92572945800202,88.92572945800202,88.91910512466372,88.92572945800202,88.92572945800202,88.92623766700126,Incorrect! The correct answer is Speaker3. نادرست! پاسخ صحیح گوینده۳ است,0,1,1,1.8364306669973303,None,88.93001170799835,88.93909108299704,90.9251400830035,90.94674891699833,,,,,,,,,,,,,,,,,,,,,,,,,,,,,445052,001,2024-07-02_19h52.56.848,5-35,2024.1.4,None,2024-07-02 19h53.02.186390 +0900,
Images/Speaker1.jpg,Images/Speaker2.jpg,Images/Speaker3.jpg,Images/Speaker4.jpg,Audio/Speaker1_Per/P1-2-Per.wav,Speaker1,گوینده ۱,,,,,,,,0,0,0,71,0,20,20,1,,,,,90.94674891699833,,,,,,,,,,,,,,,,,,,,,,,,,,,,,,,,,,,,,,,,,,,,,90.92531645800045,90.94674891699833,90.94674891699833,90.94674891699833,90.94674891699833,90.94112849966429,90.94674891699833,90.94674891699833,90.94730908299971,Correct! صحیح است,1,1,1,1.9931467499991413,None,90.95129616699705,90.95965204200184,92.95303737500217,,,,,,,,,,,,,,,,,,,,,,,,,,,,,,445052,001,2024-07-02_19h52.56.848,5-35,2024.1.4,None,2024-07-02 19h53.02.186390 +0900,
Images/Speaker1.jpg,Images/Speaker2.jpg,Images/Speaker3.jpg,Images/Speaker4.jpg,Audio/Speaker3_Per/P3-17-Per.wav,Speaker3,گوینده۳,,,,,,,,0,0,0,71,0,21,21,56,,,,,92.97666245800065,,,,,,,,,,,,,,,,,,,,,,,,,,,,,,,,,,,,,,,,,,,,,92.95362370800285,92.97666245800065,92.97666245800065,92.97666245800065,92.97666245800065,92.98621904133373,92.97666245800065,92.97666245800065,92.97719504200359,Incorrect! The correct answer is Speaker3. نادرست! پاسخ صحیح گوینده۳ است,0,1,1,1.7815038749977248,None,92.97753658299916,92.98659116699855,94.97810341700097,,,,,,,,,,,,,,,,,,,,,,,,,,,,,,445052,001,2024-07-02_19h52.56.848,5-35,2024.1.4,None,2024-07-02 19h53.02.186390 +0900,
Images/Speaker1.jpg,Images/Speaker2.jpg,Images/Speaker3.jpg,Images/Speaker4.jpg,Audio/Speaker1_Per/P1-6-Per.wav,Speaker1,گوینده ۱,,,,,,,,0,0,0,71,0,22,22,5,,,,,94.9995503329992,,,,,,,,,,,,,,,,,,,,,,,,,,,,,,,,,,,,,,,,,,,,,94.97828675000346,94.9995503329992,94.9995503329992,94.9995503329992,94.9995503329992,94.99473099966805,94.9995503329992,94.9995503329992,95.0001590000029,Correct! صحیح است,1,1,1,0.11859458399703726,None,95.00409554199723,95.012369707998,96.99721029200009,97.0200166249997,,,,,,,,,,,,,,,,,,,,,,,,,,,,,445052,001,2024-07-02_19h52.56.848,5-35,2024.1.4,None,2024-07-02 19h53.02.186390 +0900,
Images/Speaker1.jpg,Images/Speaker2.jpg,Images/Speaker3.jpg,Images/Speaker4.jpg,Audio/Speaker1_Per/P1-12-Per.wav,Speaker1,گوینده ۱,,,,,,,,0,0,0,71,0,23,23,11,,,,,97.0200166249997,,,,,,,,,,,,,,,,,,,,,,,,,,,,,,,,,,,,,,,,,,,,,96.99737529199774,97.0200166249997,97.0200166249997,97.0200166249997,97.0200166249997,97.01362466667003,97.0200166249997,97.0200166249997,97.02059137500328,Correct! صحیح است,1,1,1,0.2949501249968307,None,97.02472595799918,97.03283008300059,99.02019595800084,99.04388883300271,,,,,,,,,,,,,,,,,,,,,,,,,,,,,445052,001,2024-07-02_19h52.56.848,5-35,2024.1.4,None,2024-07-02 19h53.02.186390 +0900,
Images/Speaker1.jpg,Images/Speaker2.jpg,Images/Speaker3.jpg,Images/Speaker4.jpg,Audio/Speaker1_Per/P1-17-Per.wav,Speaker1,گوینده ۱,,,,,,,,0,0,0,71,0,24,24,16,,,,,99.04388883300271,,,,,,,,,,,,,,,,,,,,,,,,,,,,,,,,,,,,,,,,,,,,,99.02109891700093,99.04388883300271,99.04388883300271,99.04388883300271,99.04388883300271,99.05260837533618,99.04388883300271,99.04388883300271,99.97876866700244,Correct! صحیح است,1,1,1,0.9263848749978933,None,99.98265920799895,99.99397454199789,101.9784860830041,102.00025287499739,,,,,,,,,,,,,,,,,,,,,,,,,,,,,445052,001,2024-07-02_19h52.56.848,5-35,2024.1.4,None,2024-07-02 19h53.02.186390 +0900,
Images/Speaker1.jpg,Images/Speaker2.jpg,Images/Speaker3.jpg,Images/Speaker4.jpg,Audio/Speaker3_Per/P3-8-Per.wav,Speaker3,گوینده۳,,,,,,,,0,0,0,71,0,25,25,47,,,,,102.00025287499739,,,,,,,,,,,,,,,,,,,,,,,,,,,,,,,,,,,,,,,,,,,,,101.9786841669993,102.00025287499739,102.00025287499739,102.00025287499739,102.00025287499739,101.9949580836658,102.00025287499739,102.00025287499739,102.55094966699835,Incorrect! The correct answer is Speaker3. نادرست! پاسخ صحیح گوینده۳ است,0,1,1,0.5496365840008366,None,102.55481287500152,102.5679449579984,104.55955766700208,,,,,,,,,,,,,,,,,,,,,,,,,,,,,,445052,001,2024-07-02_19h52.56.848,5-35,2024.1.4,None,2024-07-02 19h53.02.186390 +0900,
Images/Speaker1.jpg,Images/Speaker2.jpg,Images/Speaker3.jpg,Images/Speaker4.jpg,Audio/Speaker2_Per/P2-14-Per.wav,Speaker2,گوینده۲,,,,,,,,0,0,0,71,0,26,26,33,,,,,104.58340158300416,,,,,,,,,,,,,,,,,,,,,,,,,,,,,,,,,,,,,,,,,,,,,104.56023895800172,104.58340158300416,104.58340158300416,104.58340158300416,104.58340158300416,104.59270933333076,104.58340158300416,104.58340158300416,104.6276864169995,Incorrect! The correct answer is Speaker2. نادرست! پاسخ صحیح گوینده۲ است,0,1,1,0.030151457998726983,None,104.63194812500296,104.64109166699927,106.62454024999897,106.64629108300142,,,,,,,,,,,,,,,,,,,,,,,,,,,,,445052,001,2024-07-02_19h52.56.848,5-35,2024.1.4,None,2024-07-02 19h53.02.186390 +0900,
Images/Speaker1.jpg,Images/Speaker2.jpg,Images/Speaker3.jpg,Images/Speaker4.jpg,Audio/Speaker4_Per/P4-13-Per.wav,Speaker4,گوینده۴,,,,,,,,0,0,0,71,0,27,27,72,,,,,106.64629108300142,,,,,,,,,,,,,,,,,,,,,,,,,,,,,,,,,,,,,,,,,,,,,106.62471387500409,106.64629108300142,106.64629108300142,106.64629108300142,106.64629108300142,106.64099858366923,106.64629108300142,106.64629108300142,106.6468710420013,Incorrect! The correct answer is Speaker4. نادرست! پاسخ صحیح گوینده۴ است,0,1,1,2.0246727080011624,None,106.65073233300063,106.66035916699911,108.65223862499988,,,,,,,,,,,,,,,,,,,,,,,,,,,,,,445052,001,2024-07-02_19h52.56.848,5-35,2024.1.4,None,2024-07-02 19h53.02.186390 +0900,
Images/Speaker1.jpg,Images/Speaker2.jpg,Images/Speaker3.jpg,Images/Speaker4.jpg,Audio/Speaker4_Per/P4-11-Per.wav,Speaker4,گوینده۴,,,,,,,,0,0,0,71,0,28,28,70,,,,,108.67516270800115,,,,,,,,,,,,,,,,,,,,,,,,,,,,,,,,,,,,,,,,,,,,,108.65242625000246,108.67516270800115,108.67516270800115,108.67516270800115,108.67516270800115,108.66886183366684,108.67516270800115,108.67516270800115,108.67572337500314,Incorrect! The correct answer is Speaker4. نادرست! پاسخ صحیح گوینده۴ است,0,1,1,1.8363915829977486,None,108.67949787500402,108.68954854200274,110.6828836670029,,,,,,,,,,,,,,,,,,,,,,,,,,,,,,445052,001,2024-07-02_19h52.56.848,5-35,2024.1.4,None,2024-07-02 19h53.02.186390 +0900,
Images/Speaker1.jpg,Images/Speaker2.jpg,Images/Speaker3.jpg,Images/Speaker4.jpg,Audio/Speaker2_Per/P2-16-Per.wav,Speaker2,گوینده۲,,,,,,,,0,0,0,71,0,29,29,35,,,,,110.70382170799712,,,,,,,,,,,,,,,,,,,,,,,,,,,,,,,,,,,,,,,,,,,,,110.68306545799715,110.70382170799712,110.70382170799712,110.70382170799712,110.70382170799712,110.69951387466814,110.70382170799712,110.70382170799712,111.61384199999884,Incorrect! The correct answer is Speaker2. نادرست! پاسخ صحیح گوینده۲ است,0,1,1,0.9077186249996885,None,111.61796987499838,111.63028445799864,113.62055004200374,,,,,,,,,,,,,,,,,,,,,,,,,,,,,,445052,001,2024-07-02_19h52.56.848,5-35,2024.1.4,None,2024-07-02 19h53.02.186390 +0900,
Images/Speaker1.jpg,Images/Speaker2.jpg,Images/Speaker3.jpg,Images/Speaker4.jpg,Audio/Speaker2_Per/P2-10-Per.wav,Speaker2,گوینده۲,,,,,,,,0,0,0,71,0,30,30,29,,,,,113.64201283299917,,,,,,,,,,,,,,,,,,,,,,,,,,,,,,,,,,,,,,,,,,,,,113.6207237080016,113.64201283299917,113.64201283299917,113.64201283299917,113.64201283299917,113.63717658367047,113.64201283299917,113.64201283299917,114.10950975000014,Incorrect! The correct answer is Speaker2. نادرست! پاسخ صحیح گوینده۲ است,0,1,1,0.4611913749977248,None,114.11333595799806,114.12677062500006,116.11845233300119,,,,,,,,,,,,,,,,,,,,,,,,,,,,,,445052,001,2024-07-02_19h52.56.848,5-35,2024.1.4,None,2024-07-02 19h53.02.186390 +0900,
Images/Speaker1.jpg,Images/Speaker2.jpg,Images/Speaker3.jpg,Images/Speaker4.jpg,Audio/Speaker2_Per/P2-17-Per.wav,Speaker2,گوینده۲,,,,,,,,0,0,0,71,0,31,31,36,,,,,116.13970966699708,,,,,,,,,,,,,,,,,,,,,,,,,,,,,,,,,,,,,,,,,,,,,116.11909095800365,116.13970966699708,116.13970966699708,116.13970966699708,116.13970966699708,116.13493308366402,116.13970966699708,116.13970966699708,116.14030262499728,Incorrect! The correct answer is Speaker2. نادرست! پاسخ صحیح گوینده۲ است,0,1,1,2.4436494999972638,None,116.14450558299723,116.15373358299985,118.13956979200157,118.16036333300144,,,,,,,,,,,,,,,,,,,,,,,,,,,,,445052,001,2024-07-02_19h52.56.848,5-35,2024.1.4,None,2024-07-02 19h53.02.186390 +0900,
Images/Speaker1.jpg,Images/Speaker2.jpg,Images/Speaker3.jpg,Images/Speaker4.jpg,Audio/Speaker2_Per/P2-5-Per.wav,Speaker2,گوینده۲,,,,,,,,0,0,0,71,0,32,32,24,,,,,118.16036333300144,,,,,,,,,,,,,,,,,,,,,,,,,,,,,,,,,,,,,,,,,,,,,118.1397227080015,118.16036333300144,118.16036333300144,118.16036333300144,118.16036333300144,118.15605433366387,118.16036333300144,118.16036333300144,118.16676083300263,Incorrect! The correct answer is Speaker2. نادرست! پاسخ صحیح گوینده۲ است,0,1,1,0.005295499999192543,None,118.17063662500004,118.18267337499856,120.16841891699733,120.18969320799806,,,,,,,,,,,,,,,,,,,,,,,,,,,,,445052,001,2024-07-02_19h52.56.848,5-35,2024.1.4,None,2024-07-02 19h53.02.186390 +0900,
Images/Speaker1.jpg,Images/Speaker2.jpg,Images/Speaker3.jpg,Images/Speaker4.jpg,Audio/Speaker3_Per/P3-13-Per.wav,Speaker3,گوینده۳,,,,,,,,0,0,0,71,0,33,33,52,,,,,120.18969320799806,,,,,,,,,,,,,,,,,,,,,,,,,,,,,,,,,,,,,,,,,,,,,120.1685912920002,120.18969320799806,120.18969320799806,120.18969320799806,120.18969320799806,120.18480570866474,120.18969320799806,120.18969320799806,120.19603612500214,Incorrect! The correct answer is Speaker3. نادرست! پاسخ صحیح گوینده۳ است,0,1,1,0.0053595830031554215,None,120.1998415420021,120.21182966700144,122.20195870799944,,,,,,,,,,,,,,,,,,,,,,,,,,,,,,445052,001,2024-07-02_19h52.56.848,5-35,2024.1.4,None,2024-07-02 19h53.02.186390 +0900,
Images/Speaker1.jpg,Images/Speaker2.jpg,Images/Speaker3.jpg,Images/Speaker4.jpg,Audio/Speaker4_Per/P4-7-Per.wav,Speaker4,گوینده۴,,,,,,,,0,0,0,71,0,34,34,66,,,,,122.22637312499864,,,,,,,,,,,,,,,,,,,,,,,,,,,,,,,,,,,,,,,,,,,,,122.20259737499873,122.22637312499864,122.22637312499864,122.22637312499864,122.22637312499864,122.23510962533376,122.22637312499864,122.22637312499864,122.22696941700269,Incorrect! The correct answer is Speaker4. نادرست! پاسخ صحیح گوینده۴ است,0,1,1,1.863289042004908,None,122.22739229199942,122.23705112499738,124.22794645799877,124.25066058299853,,,,,,,,,,,,,,,,,,,,,,,,,,,,,445052,001,2024-07-02_19h52.56.848,5-35,2024.1.4,None,2024-07-02 19h53.02.186390 +0900,
Images/Speaker1.jpg,Images/Speaker2.jpg,Images/Speaker3.jpg,Images/Speaker4.jpg,Audio/Speaker3_Per/P3-19-Per.wav,Speaker3,گوینده۳,,,,,,,,0,0,0,71,0,35,35,58,,,,,124.25066058299853,,,,,,,,,,,,,,,,,,,,,,,,,,,,,,,,,,,,,,,,,,,,,124.22871120800119,124.25066058299853,124.25066058299853,124.25066058299853,124.25066058299853,124.26043429133327,124.25066058299853,124.25066058299853,124.25129683299747,Incorrect! The correct answer is Speaker3. نادرست! پاسخ صحیح گوینده۳ است,0,1,1,1.9066185839983518,None,124.25175341700378,124.26167325000279,126.25143558299897,126.27658495800279,,,,,,,,,,,,,,,,,,,,,,,,,,,,,445052,001,2024-07-02_19h52.56.848,5-35,2024.1.4,None,2024-07-02 19h53.02.186390 +0900,
Images/Speaker1.jpg,Images/Speaker2.jpg,Images/Speaker3.jpg,Images/Speaker4.jpg,Audio/Speaker3_Per/P3-2-Per.wav,Speaker3,گوینده۳,,,,,,,,0,0,0,71,0,36,36,41,,,,,126.27658495800279,,,,,,,,,,,,,,,,,,,,,,,,,,,,,,,,,,,,,,,,,,,,,126.25199450000218,126.27658495800279,126.27658495800279,126.27658495800279,126.27658495800279,126.28373295833492,126.27658495800279,126.27658495800279,126.30849149999995,Incorrect! The correct answer is Speaker3. نادرست! پاسخ صحیح گوینده۳ است,0,1,1,0.025005750001582783,None,126.3123976670031,126.32488262499828,128.30925500000012,128.33030841700383,,,,,,,,,,,,,,,,,,,,,,,,,,,,,445052,001,2024-07-02_19h52.56.848,5-35,2024.1.4,None,2024-07-02 19h53.02.186390 +0900,
Images/Speaker1.jpg,Images/Speaker2.jpg,Images/Speaker3.jpg,Images/Speaker4.jpg,Audio/Speaker2_Per/P2-13-Per.wav,Speaker2,گوینده۲,,,,,,,,0,0,0,71,0,37,37,32,,,,,128.33030841700383,,,,,,,,,,,,,,,,,,,,,,,,,,,,,,,,,,,,,,,,,,,,,128.3094890420034,128.33030841700383,128.33030841700383,128.33030841700383,128.33030841700383,128.32571141666656,128.33030841700383,128.33030841700383,128.34665208299702,Incorrect! The correct answer is Speaker2. نادرست! پاسخ صحیح گوینده۲ است,0,1,1,0.014913082995917648,None,128.3508296250002,128.36332983300235,130.3577639580035,,,,,,,,,,,,,,,,,,,,,,,,,,,,,,445052,001,2024-07-02_19h52.56.848,5-35,2024.1.4,None,2024-07-02 19h53.02.186390 +0900,
Images/Speaker1.jpg,Images/Speaker2.jpg,Images/Speaker3.jpg,Images/Speaker4.jpg,Audio/Speaker1_Per/P1-3-Per.wav,Speaker1,گوینده ۱,,,,,,,,0,0,0,71,0,38,38,2,,,,,130.37852195800224,,,,,,,,,,,,,,,,,,,,,,,,,,,,,,,,,,,,,,,,,,,,,130.35793483300222,130.37852195800224,130.37852195800224,130.37852195800224,130.37852195800224,130.3743987916644,130.37852195800224,130.37852195800224,130.5929302500008,Correct! صحیح است,1,1,1,0.2074780000039027,None,130.5977959169977,130.6099558749993,132.59848158300156,,,,,,,,,,,,,,,,,,,,,,,,,,,,,,445052,001,2024-07-02_19h52.56.848,5-35,2024.1.4,None,2024-07-02 19h53.02.186390 +0900,
Images/Speaker1.jpg,Images/Speaker2.jpg,Images/Speaker3.jpg,Images/Speaker4.jpg,Audio/Speaker1_Per/P1-8-Per.wav,Speaker1,گوینده ۱,,,,,,,,0,0,0,71,0,39,39,7,,,,,132.61927537500014,,,,,,,,,,,,,,,,,,,,,,,,,,,,,,,,,,,,,,,,,,,,,132.5986350000021,132.61927537500014,132.61927537500014,132.61927537500014,132.61927537500014,132.61511570866813,132.61927537500014,132.61927537500014,132.61986112500017,Correct! صحیح است,1,1,1,2.203125166997779,None,132.62395358300273,132.63219995800318,134.61787108299905,134.639260750002,,,,,,,,,,,,,,,,,,,,,,,,,,,,,445052,001,2024-07-02_19h52.56.848,5-35,2024.1.4,None,2024-07-02 19h53.02.186390 +0900,
Images/Speaker1.jpg,Images/Speaker2.jpg,Images/Speaker3.jpg,Images/Speaker4.jpg,Audio/Speaker1_Per/P1-5-Per.wav,Speaker1,گوینده ۱,,,,,,,,0,0,0,71,0,40,40,4,,,,,134.639260750002,,,,,,,,,,,,,,,,,,,,,,,,,,,,,,,,,,,,,,,,,,,,,134.618078917003,134.639260750002,134.639260750002,134.639260750002,134.639260750002,134.634283874668,134.639260750002,134.639260750002,134.74941512499936,Correct! صحیح است,1,1,1,0.10058924999611918,None,134.7533890420018,134.76474312500068,136.74905633299932,136.77124854199792,,,,,,,,,,,,,,,,,,,,,,,,,,,,,445052,001,2024-07-02_19h52.56.848,5-35,2024.1.4,None,2024-07-02 19h53.02.186390 +0900,
Images/Speaker1.jpg,Images/Speaker2.jpg,Images/Speaker3.jpg,Images/Speaker4.jpg,Audio/Speaker3_Per/P3-14-Per.wav,Speaker3,گوینده۳,,,,,,,,0,0,0,71,0,41,41,53,,,,,136.77124854199792,,,,,,,,,,,,,,,,,,,,,,,,,,,,,,,,,,,,,,,,,,,,,136.7492457920016,136.77124854199792,136.77124854199792,136.77124854199792,136.77124854199792,136.76549904166703,136.77124854199792,136.77124854199792,136.7958382920042,Incorrect! The correct answer is Speaker3. نادرست! پاسخ صحیح گوینده۳ است,0,1,1,0.022632790998613928,None,136.79961745800392,136.8119721250041,138.80273699999816,,,,,,,,,,,,,,,,,,,,,,,,,,,,,,445052,001,2024-07-02_19h52.56.848,5-35,2024.1.4,None,2024-07-02 19h53.02.186390 +0900,
Images/Speaker1.jpg,Images/Speaker2.jpg,Images/Speaker3.jpg,Images/Speaker4.jpg,Audio/Speaker4_Per/P4-10-Per.wav,Speaker4,گوینده۴,,,,,,,,0,0,0,71,0,42,42,69,,,,,138.82675225000276,,,,,,,,,,,,,,,,,,,,,,,,,,,,,,,,,,,,,,,,,,,,,138.80331200000364,138.82675225000276,138.82675225000276,138.82675225000276,138.82675225000276,138.83590937533205,138.82675225000276,138.82675225000276,144.97158466700057,Incorrect! The correct answer is Speaker4. نادرست! پاسخ صحیح گوینده۴ است,0,1,1,6.134713291998196,None,144.97184729199944,144.98275929199735,146.97571191700263,,,,,,,,,,,,,,,,,,,,,,,,,,,,,,445052,001,2024-07-02_19h52.56.848,5-35,2024.1.4,None,2024-07-02 19h53.02.186390 +0900,
Images/Speaker1.jpg,Images/Speaker2.jpg,Images/Speaker3.jpg,Images/Speaker4.jpg,Audio/Speaker1_Per/P1-11-Per.wav,Speaker1,گوینده ۱,,,,,,,,0,0,0,71,0,43,43,10,,,,,146.99596983299853,,,,,,,,,,,,,,,,,,,,,,,,,,,,,,,,,,,,,,,,,,,,,146.97587337499863,146.99596983299853,146.99596983299853,146.99596983299853,146.99596983299853,146.99234491666382,146.99596983299853,146.99596983299853,147.17009183300252,Correct! صحیح است,1,1,1,0.17305483300151536,None,147.17434333299752,147.18507804199908,149.1700615419977,149.1896457920011,,,,,,,,,,,,,,,,,,,,,,,,,,,,,445052,001,2024-07-02_19h52.56.848,5-35,2024.1.4,None,2024-07-02 19h53.02.186390 +0900,
Images/Speaker1.jpg,Images/Speaker2.jpg,Images/Speaker3.jpg,Images/Speaker4.jpg,Audio/Speaker4_Per/P4-8-Per.wav,Speaker4,گوینده۴,,,,,,,,0,0,0,71,0,44,44,67,,,,,149.1896457920011,,,,,,,,,,,,,,,,,,,,,,,,,,,,,,,,,,,,,,,,,,,,,149.17027512499772,149.1896457920011,149.1896457920011,149.1896457920011,149.1896457920011,149.18643479166738,149.1896457920011,149.1896457920011,149.41401074999885,Incorrect! The correct answer is Speaker4. نادرست! پاسخ صحیح گوینده۴ است,0,1,1,0.22082379199855495,None,149.41781604199787,149.4301814999999,151.42732650000107,,,,,,,,,,,,,,,,,,,,,,,,,,,,,,445052,001,2024-07-02_19h52.56.848,5-35,2024.1.4,None,2024-07-02 19h53.02.186390 +0900,
Images/Speaker1.jpg,Images/Speaker2.jpg,Images/Speaker3.jpg,Images/Speaker4.jpg,Audio/Speaker1_Per/P1-15-Per.wav,Speaker1,گوینده ۱,,,,,,,,0,0,0,71,0,45,45,14,,,,,151.45198225000058,,,,,,,,,,,,,,,,,,,,,,,,,,,,,,,,,,,,,,,,,,,,,151.4279374580001,151.45198225000058,151.45198225000058,151.45198225000058,151.45198225000058,151.46050475033604,151.45198225000058,151.45198225000058,151.76125287500327,Correct! صحیح است,1,1,1,0.3002147919978597,None,151.765064332998,151.77344699999958,153.762018292,153.7871560420026,,,,,,,,,,,,,,,,,,,,,,,,,,,,,445052,001,2024-07-02_19h52.56.848,5-35,2024.1.4,None,2024-07-02 19h53.02.186390 +0900,
Images/Speaker1.jpg,Images/Speaker2.jpg,Images/Speaker3.jpg,Images/Speaker4.jpg,Audio/Speaker3_Per/P3-15-Per.wav,Speaker3,گوینده۳,,,,,,,,0,0,0,71,0,46,46,54,,,,,153.7871560420026,,,,,,,,,,,,,,,,,,,,,,,,,,,,,,,,,,,,,,,,,,,,,153.7628614580026,153.7871560420026,153.7871560420026,153.7871560420026,153.7871560420026,153.79454204133123,153.7871560420026,153.7871560420026,153.97823045800033,Incorrect! The correct answer is Speaker3. نادرست! پاسخ صحیح گوینده۳ است,0,1,1,0.18031141599931289,None,153.98223462500027,153.99498441700416,155.98128174999874,156.00395645800018,,,,,,,,,,,,,,,,,,,,,,,,,,,,,445052,001,2024-07-02_19h52.56.848,5-35,2024.1.4,None,2024-07-02 19h53.02.186390 +0900,
Images/Speaker1.jpg,Images/Speaker2.jpg,Images/Speaker3.jpg,Images/Speaker4.jpg,Audio/Speaker3_Per/P3-3-Per.wav,Speaker3,گوینده۳,,,,,,,,0,0,0,71,0,47,47,42,,,,,156.00395645800018,,,,,,,,,,,,,,,,,,,,,,,,,,,,,,,,,,,,,,,,,,,,,155.9814833749988,156.00395645800018,156.00395645800018,156.00395645800018,156.00395645800018,155.99765670866717,156.00395645800018,156.00395645800018,156.00455279200105,Incorrect! The correct answer is Speaker3. نادرست! پاسخ صحیح گوینده۳ است,0,1,1,2.1133895000020857,None,156.00846908299718,156.018331457999,158.00987691699993,,,,,,,,,,,,,,,,,,,,,,,,,,,,,,445052,001,2024-07-02_19h52.56.848,5-35,2024.1.4,None,2024-07-02 19h53.02.186390 +0900,
Images/Speaker1.jpg,Images/Speaker2.jpg,Images/Speaker3.jpg,Images/Speaker4.jpg,Audio/Speaker2_Per/P2-15-Per.wav,Speaker2,گوینده۲,,,,,,,,0,0,0,71,0,48,48,34,,,,,158.0335809169992,,,,,,,,,,,,,,,,,,,,,,,,,,,,,,,,,,,,,,,,,,,,,158.0104677499985,158.0335809169992,158.0335809169992,158.0335809169992,158.0335809169992,158.04303070833754,158.0335809169992,158.0335809169992,158.15442708299815,Incorrect! The correct answer is Speaker2. نادرست! پاسخ صحیح گوینده۲ است,0,1,1,0.1178607080000802,None,158.15848270800052,158.1707618750006,160.1562500420041,160.17757729200093,,,,,,,,,,,,,,,,,,,,,,,,,,,,,445052,001,2024-07-02_19h52.56.848,5-35,2024.1.4,None,2024-07-02 19h53.02.186390 +0900,
Images/Speaker1.jpg,Images/Speaker2.jpg,Images/Speaker3.jpg,Images/Speaker4.jpg,Audio/Speaker4_Per/P4-1-Per.wav,Speaker4,گوینده۴,,,,,,,,0,0,0,71,0,49,49,60,,,,,160.17757729200093,,,,,,,,,,,,,,,,,,,,,,,,,,,,,,,,,,,,,,,,,,,,,160.15643270799774,160.17757729200093,160.17757729200093,160.17757729200093,160.17757729200093,160.17252695866435,160.17757729200093,160.17757729200093,160.1782793329985,Incorrect! The correct answer is Speaker4. نادرست! پاسخ صحیح گوینده۴ است,0,1,1,2.114437166004791,None,160.18253533299867,160.192579458002,162.18375050000031,,,,,,,,,,,,,,,,,,,,,,,,,,,,,,445052,001,2024-07-02_19h52.56.848,5-35,2024.1.4,None,2024-07-02 19h53.02.186390 +0900,
Images/Speaker1.jpg,Images/Speaker2.jpg,Images/Speaker3.jpg,Images/Speaker4.jpg,Audio/Speaker2_Per/P2-4-Per.wav,Speaker2,گوینده۲,,,,,,,,0,0,0,71,0,50,50,23,,,,,162.20536670800357,,,,,,,,,,,,,,,,,,,,,,,,,,,,,,,,,,,,,,,,,,,,,162.18394283299858,162.20536670800357,162.20536670800357,162.20536670800357,162.20536670800357,162.20036158366955,162.20536670800357,162.20536670800357,162.20595912499994,Incorrect! The correct answer is Speaker2. نادرست! پاسخ صحیح گوینده۲ است,0,1,1,1.9952189169998746,None,162.20971166699746,162.21991174999857,164.20467725000344,164.23084612499952,,,,,,,,,,,,,,,,,,,,,,,,,,,,,445052,001,2024-07-02_19h52.56.848,5-35,2024.1.4,None,2024-07-02 19h53.02.186390 +0900,
Images/Speaker1.jpg,Images/Speaker2.jpg,Images/Speaker3.jpg,Images/Speaker4.jpg,Audio/Speaker4_Per/P4-4-Per.wav,Speaker4,گوینده۴,,,,,,,,0,0,0,71,0,51,51,63,,,,,164.23084612499952,,,,,,,,,,,,,,,,,,,,,,,,,,,,,,,,,,,,,,,,,,,,,164.20568387499952,164.23084612499952,164.23084612499952,164.23084612499952,164.23084612499952,164.237023833332,164.23084612499952,164.23084612499952,164.23148816700268,Incorrect! The correct answer is Speaker4. نادرست! پاسخ صحیح گوینده۴ است,0,1,1,2.000541749999684,None,164.2319572080014,164.2421047500029,166.2306532080038,166.25377837500127,,,,,,,,,,,,,,,,,,,,,,,,,,,,,445052,001,2024-07-02_19h52.56.848,5-35,2024.1.4,None,2024-07-02 19h53.02.186390 +0900,
Images/Speaker1.jpg,Images/Speaker2.jpg,Images/Speaker3.jpg,Images/Speaker4.jpg,Audio/Speaker2_Per/P2-2-Per.wav,Speaker2,گوینده۲,,,,,,,,0,0,0,71,0,52,52,21,,,,,166.25377837500127,,,,,,,,,,,,,,,,,,,,,,,,,,,,,,,,,,,,,,,,,,,,,166.23126349999802,166.25377837500127,166.25377837500127,166.25377837500127,166.25377837500127,166.26298187533445,166.25377837500127,166.25377837500127,166.43392304200097,Incorrect! The correct answer is Speaker2. نادرست! پاسخ صحیح گوینده۲ است,0,1,1,0.1752439170013531,None,166.43791566700384,166.45078800000192,168.435910375003,168.45698608300154,,,,,,,,,,,,,,,,,,,,,,,,,,,,,445052,001,2024-07-02_19h52.56.848,5-35,2024.1.4,None,2024-07-02 19h53.02.186390 +0900,
Images/Speaker1.jpg,Images/Speaker2.jpg,Images/Speaker3.jpg,Images/Speaker4.jpg,Audio/Speaker1_Per/P1-16-Per.wav,Speaker1,گوینده ۱,,,,,,,,0,0,0,71,0,53,53,15,,,,,168.45698608300154,,,,,,,,,,,,,,,,,,,,,,,,,,,,,,,,,,,,,,,,,,,,,168.43608700000186,168.45698608300154,168.45698608300154,168.45698608300154,168.45698608300154,168.45225004166812,168.45698608300154,168.45698608300154,168.46581958299794,Correct! صحیح است,1,1,1,0.0005513750002137385,None,168.4697723749996,168.4784647080014,170.46117287500238,170.482200749997,,,,,,,,,,,,,,,,,,,,,,,,,,,,,445052,001,2024-07-02_19h52.56.848,5-35,2024.1.4,None,2024-07-02 19h53.02.186390 +0900,
Images/Speaker1.jpg,Images/Speaker2.jpg,Images/Speaker3.jpg,Images/Speaker4.jpg,Audio/Speaker2_Per/P2-7-Per.wav,Speaker2,گوینده۲,,,,,,,,0,0,0,71,0,54,54,26,,,,,170.482200749997,,,,,,,,,,,,,,,,,,,,,,,,,,,,,,,,,,,,,,,,,,,,,170.46135029200377,170.482200749997,170.482200749997,170.482200749997,170.482200749997,170.47758820866537,170.482200749997,170.482200749997,170.53236187499715,Incorrect! The correct answer is Speaker2. نادرست! پاسخ صحیح گوینده۲ است,0,1,1,0.0433809169990127,None,170.5366440420039,170.5486316250026,172.54180066700064,,,,,,,,,,,,,,,,,,,,,,,,,,,,,,445052,001,2024-07-02_19h52.56.848,5-35,2024.1.4,None,2024-07-02 19h53.02.186390 +0900,
Images/Speaker1.jpg,Images/Speaker2.jpg,Images/Speaker3.jpg,Images/Speaker4.jpg,Audio/Speaker3_Per/P3-1-Per.wav,Speaker3,گوینده۳,,,,,,,,0,0,0,71,0,55,55,40,,,,,172.57008308300283,,,,,,,,,,,,,,,,,,,,,,,,,,,,,,,,,,,,,,,,,,,,,172.54245862500102,172.57008308300283,172.57008308300283,172.57008308300283,172.57008308300283,172.57496041633618,172.57008308300283,172.57008308300283,172.57073566700274,Incorrect! The correct answer is Speaker3. نادرست! پاسخ صحیح گوینده۳ است,0,1,1,2.059942874999251,None,172.57105416699778,172.5814201250032,174.57562108300044,,,,,,,,,,,,,,,,,,,,,,,,,,,,,,445052,001,2024-07-02_19h52.56.848,5-35,2024.1.4,None,2024-07-02 19h53.02.186390 +0900,
Images/Speaker1.jpg,Images/Speaker2.jpg,Images/Speaker3.jpg,Images/Speaker4.jpg,Audio/Speaker1_Per/P1-20-Per.wav,Speaker1,گوینده ۱,,,,,,,,0,0,0,71,0,56,56,19,,,,,174.59939608300192,,,,,,,,,,,,,,,,,,,,,,,,,,,,,,,,,,,,,,,,,,,,,174.5763152080035,174.59939608300192,174.59939608300192,174.59939608300192,174.59939608300192,174.6087918333365,174.59939608300192,174.59939608300192,174.6056032080014,Correct! صحیح است,1,1,1,0.004656292003346607,None,174.60979679199954,174.6205467079999,176.6032404580037,176.62373070800095,,,,,,,,,,,,,,,,,,,,,,,,,,,,,445052,001,2024-07-02_19h52.56.848,5-35,2024.1.4,None,2024-07-02 19h53.02.186390 +0900,
Images/Speaker1.jpg,Images/Speaker2.jpg,Images/Speaker3.jpg,Images/Speaker4.jpg,Audio/Speaker4_Per/P4-12-Per.wav,Speaker4,گوینده۴,,,,,,,,0,0,0,71,0,57,57,71,,,,,176.62373070800095,,,,,,,,,,,,,,,,,,,,,,,,,,,,,,,,,,,,,,,,,,,,,176.60344570800225,176.62373070800095,176.62373070800095,176.62373070800095,176.62373070800095,176.61959883366606,176.62373070800095,176.62373070800095,176.62424437500158,Incorrect! The correct answer is Speaker4. نادرست! پاسخ صحیح گوینده۴ است,0,1,1,1.988990958998329,None,176.6279100419997,176.63814862500294,178.6270839580029,178.64740729200275,,,,,,,,,,,,,,,,,,,,,,,,,,,,,445052,001,2024-07-02_19h52.56.848,5-35,2024.1.4,None,2024-07-02 19h53.02.186390 +0900,
Images/Speaker1.jpg,Images/Speaker2.jpg,Images/Speaker3.jpg,Images/Speaker4.jpg,Audio/Speaker4_Per/P4-16-Per.wav,Speaker4,گوینده۴,,,,,,,,0,0,0,71,0,58,58,75,,,,,178.64740729200275,,,,,,,,,,,,,,,,,,,,,,,,,,,,,,,,,,,,,,,,,,,,,178.62724866699864,178.64740729200275,178.64740729200275,178.64740729200275,178.64740729200275,178.64349766666808,178.64740729200275,178.64740729200275,178.66397687500285,Incorrect! The correct answer is Speaker4. نادرست! پاسخ صحیح گوینده۴ است,0,1,1,0.011667665996355936,None,178.66823154200392,178.68064787500043,180.67717887499748,,,,,,,,,,,,,,,,,,,,,,,,,,,,,,445052,001,2024-07-02_19h52.56.848,5-35,2024.1.4,None,2024-07-02 19h53.02.186390 +0900,
Images/Speaker1.jpg,Images/Speaker2.jpg,Images/Speaker3.jpg,Images/Speaker4.jpg,Audio/Speaker1_Per/P1-9-Per.wav,Speaker1,گوینده ۱,,,,,,,,0,0,0,71,0,59,59,8,,,,,180.69745112500095,,,,,,,,,,,,,,,,,,,,,,,,,,,,,,,,,,,,,,,,,,,,,180.6773450000037,180.69745112500095,180.69745112500095,180.69745112500095,180.69745112500095,180.69381720867048,180.69745112500095,180.69745112500095,180.7844973329993,Correct! صحیح است,1,1,1,0.08038816699991003,None,180.78831958299997,180.7995812079971,182.79091045800305,,,,,,,,,,,,,,,,,,,,,,,,,,,,,,445052,001,2024-07-02_19h52.56.848,5-35,2024.1.4,None,2024-07-02 19h53.02.186390 +0900,
Images/Speaker1.jpg,Images/Speaker2.jpg,Images/Speaker3.jpg,Images/Speaker4.jpg,Audio/Speaker2_Per/P2-18-Per.wav,Speaker2,گوینده۲,,,,,,,,0,0,0,71,0,60,60,37,,,,,182.81368062500405,,,,,,,,,,,,,,,,,,,,,,,,,,,,,,,,,,,,,,,,,,,,,182.79108108299988,182.81368062500405,182.81368062500405,182.81368062500405,182.81368062500405,182.80753241666778,182.81368062500405,182.81368062500405,182.81429508300062,Incorrect! The correct answer is Speaker2. نادرست! پاسخ صحیح گوینده۲ است,0,1,1,1.9718929169976036,None,182.81825116700202,182.82778466700256,184.81866558299953,184.84533320800256,,,,,,,,,,,,,,,,,,,,,,,,,,,,,445052,001,2024-07-02_19h52.56.848,5-35,2024.1.4,None,2024-07-02 19h53.02.186390 +0900,
Images/Speaker1.jpg,Images/Speaker2.jpg,Images/Speaker3.jpg,Images/Speaker4.jpg,Audio/Speaker2_Per/P2-3-Per.wav,Speaker2,گوینده۲,,,,,,,,0,0,0,71,0,61,61,22,,,,,184.84533320800256,,,,,,,,,,,,,,,,,,,,,,,,,,,,,,,,,,,,,,,,,,,,,184.81921083300404,184.84533320800256,184.84533320800256,184.84533320800256,184.84533320800256,184.85104487533732,184.84533320800256,184.84533320800256,184.84596962499927,Incorrect! The correct answer is Speaker2. نادرست! پاسخ صحیح گوینده۲ است,0,1,1,2.0116412920033326,None,184.8464045830042,184.85598924999795,186.840806375003,186.8618810830012,,,,,,,,,,,,,,,,,,,,,,,,,,,,,445052,001,2024-07-02_19h52.56.848,5-35,2024.1.4,None,2024-07-02 19h53.02.186390 +0900,
Images/Speaker1.jpg,Images/Speaker2.jpg,Images/Speaker3.jpg,Images/Speaker4.jpg,Audio/Speaker1_Per/P1-7-Per.wav,Speaker1,گوینده ۱,,,,,,,,0,0,0,71,0,62,62,6,,,,,186.8618810830012,,,,,,,,,,,,,,,,,,,,,,,,,,,,,,,,,,,,,,,,,,,,,186.84100662499986,186.8618810830012,186.8618810830012,186.8618810830012,186.8618810830012,186.85720583366881,186.8618810830012,186.8618810830012,186.96688212500158,Correct! صحیح است,1,1,1,0.10007183300331235,None,186.97110133300157,186.9825010420027,188.96629183299956,188.98793808300252,,,,,,,,,,,,,,,,,,,,,,,,,,,,,445052,001,2024-07-02_19h52.56.848,5-35,2024.1.4,None,2024-07-02 19h53.02.186390 +0900,
Images/Speaker1.jpg,Images/Speaker2.jpg,Images/Speaker3.jpg,Images/Speaker4.jpg,Audio/Speaker1_Per/P1-19-Per.wav,Speaker1,گوینده ۱,,,,,,,,0,0,0,71,0,63,63,18,,,,,188.98793808300252,,,,,,,,,,,,,,,,,,,,,,,,,,,,,,,,,,,,,,,,,,,,,188.96646445799706,188.98793808300252,188.98793808300252,188.98793808300252,188.98793808300252,188.98272058366663,188.98793808300252,188.98793808300252,189.04664420799963,Correct! صحیح است,1,1,1,0.05602220800210489,None,189.05049258300278,189.06117745800293,191.04916508300084,191.07217720799963,,,,,,,,,,,,,,,,,,,,,,,,,,,,,445052,001,2024-07-02_19h52.56.848,5-35,2024.1.4,None,2024-07-02 19h53.02.186390 +0900,
Images/Speaker1.jpg,Images/Speaker2.jpg,Images/Speaker3.jpg,Images/Speaker4.jpg,Audio/Speaker3_Per/P3-10-Per.wav,Speaker3,گوینده۳,,,,,,,,0,0,0,71,0,64,64,49,,,,,191.07217720799963,,,,,,,,,,,,,,,,,,,,,,,,,,,,,,,,,,,,,,,,,,,,,191.04932366700086,191.07217720799963,191.07217720799963,191.07217720799963,191.07217720799963,191.0822043333324,191.07217720799963,191.07217720799963,191.1769348750022,Incorrect! The correct answer is Speaker3. نادرست! پاسخ صحیح گوینده۳ است,0,1,1,0.10312620799959404,None,191.18107979199704,191.19340708300297,193.17626658300287,193.19747720799933,,,,,,,,,,,,,,,,,,,,,,,,,,,,,445052,001,2024-07-02_19h52.56.848,5-35,2024.1.4,None,2024-07-02 19h53.02.186390 +0900,
Images/Speaker1.jpg,Images/Speaker2.jpg,Images/Speaker3.jpg,Images/Speaker4.jpg,Audio/Speaker2_Per/P2-8-Per.wav,Speaker2,گوینده۲,,,,,,,,0,0,0,71,0,65,65,27,,,,,193.19747720799933,,,,,,,,,,,,,,,,,,,,,,,,,,,,,,,,,,,,,,,,,,,,,193.17646191699896,193.19747720799933,193.19747720799933,193.19747720799933,193.19747720799933,193.1927108746643,193.19747720799933,193.19747720799933,193.34203783299745,Incorrect! The correct answer is Speaker2. نادرست! پاسخ صحیح گوینده۲ است,0,1,1,0.1403435000029276,None,193.3458375420014,193.35858408299828,195.3422058330034,195.36292220799805,,,,,,,,,,,,,,,,,,,,,,,,,,,,,445052,001,2024-07-02_19h52.56.848,5-35,2024.1.4,None,2024-07-02 19h53.02.186390 +0900,
Images/Speaker1.jpg,Images/Speaker2.jpg,Images/Speaker3.jpg,Images/Speaker4.jpg,Audio/Speaker4_Per/P4-14-Per.wav,Speaker4,گوینده۴,,,,,,,,0,0,0,71,0,66,66,73,,,,,195.36292220799805,,,,,,,,,,,,,,,,,,,,,,,,,,,,,,,,,,,,,,,,,,,,,195.34235525000258,195.36292220799805,195.36292220799805,195.36292220799805,195.36292220799805,195.35860262466693,195.36292220799805,195.36292220799805,195.50350949999847,Incorrect! The correct answer is Speaker4. نادرست! پاسخ صحیح گوینده۴ است,0,1,1,0.1290352089999942,None,195.50739229199826,195.52000516700355,197.5085457919995,,,,,,,,,,,,,,,,,,,,,,,,,,,,,,445052,001,2024-07-02_19h52.56.848,5-35,2024.1.4,None,2024-07-02 19h53.02.186390 +0900,
Images/Speaker1.jpg,Images/Speaker2.jpg,Images/Speaker3.jpg,Images/Speaker4.jpg,Audio/Speaker3_Per/P3-6-Per.wav,Speaker3,گوینده۳,,,,,,,,0,0,0,71,0,67,67,45,,,,,197.53330599999754,,,,,,,,,,,,,,,,,,,,,,,,,,,,,,,,,,,,,,,,,,,,,197.50872354199964,197.53330599999754,197.53330599999754,197.53330599999754,197.53330599999754,197.54183879133103,197.53330599999754,197.53330599999754,197.59921708299953,Incorrect! The correct answer is Speaker3. نادرست! پاسخ صحیح گوینده۳ است,0,1,1,0.06081633299618261,None,197.60302304200013,197.61546287500096,199.60909329199785,,,,,,,,,,,,,,,,,,,,,,,,,,,,,,445052,001,2024-07-02_19h52.56.848,5-35,2024.1.4,None,2024-07-02 19h53.02.186390 +0900,
Images/Speaker1.jpg,Images/Speaker2.jpg,Images/Speaker3.jpg,Images/Speaker4.jpg,Audio/Speaker2_Per/P2-11-Per.wav,Speaker2,گوینده۲,,,,,,,,0,0,0,71,0,68,68,30,,,,,199.6302491250026,,,,,,,,,,,,,,,,,,,,,,,,,,,,,,,,,,,,,,,,,,,,,199.60925495799893,199.6302491250026,199.6302491250026,199.6302491250026,199.6302491250026,199.62572454166755,199.6302491250026,199.6302491250026,199.7913759170042,Incorrect! The correct answer is Speaker2. نادرست! پاسخ صحیح گوینده۲ است,0,1,1,0.1566406249985448,None,199.79523175000213,199.80776458299806,201.79546583299816,,,,,,,,,,,,,,,,,,,,,,,,,,,,,,445052,001,2024-07-02_19h52.56.848,5-35,2024.1.4,None,2024-07-02 19h53.02.186390 +0900,
Images/Speaker1.jpg,Images/Speaker2.jpg,Images/Speaker3.jpg,Images/Speaker4.jpg,Audio/Speaker4_Per/P4-20-Per.wav,Speaker4,گوینده۴,,,,,,,,0,0,0,71,0,69,69,79,,,,,201.81638958300027,,,,,,,,,,,,,,,,,,,,,,,,,,,,,,,,,,,,,,,,,,,,,201.7956483329981,201.81638958300027,201.81638958300027,201.81638958300027,201.81638958300027,201.8120932916684,201.81638958300027,201.81638958300027,201.81698487500398,Incorrect! The correct answer is Speaker4. نادرست! پاسخ صحیح گوینده۴ است,0,1,1,2.1417052089964272,None,201.82115183299902,201.83123966700077,203.82475666700338,,,,,,,,,,,,,,,,,,,,,,,,,,,,,,445052,001,2024-07-02_19h52.56.848,5-35,2024.1.4,None,2024-07-02 19h53.02.186390 +0900,
Images/Speaker1.jpg,Images/Speaker2.jpg,Images/Speaker3.jpg,Images/Speaker4.jpg,Audio/Speaker2_Per/P2-6-Per.wav,Speaker2,گوینده۲,,,,,,,,0,0,0,71,0,70,70,25,,,,,203.84621408300154,,,,,,,,,,,,,,,,,,,,,,,,,,,,,,,,,,,,,,,,,,,,,203.82493033300125,203.84621408300154,203.84621408300154,203.84621408300154,203.84621408300154,203.84138354166888,203.84621408300154,203.84621408300154,203.95784320800158,Incorrect! The correct answer is Speaker2. نادرست! پاسخ صحیح گوینده۲ است,0,1,1,0.10613129199919058,None,203.96181695799896,203.97479391699744,205.96213649999845,205.98430912500044,,,,,,,,,,,,,,,,,,,,,,,,,,,,,445052,001,2024-07-02_19h52.56.848,5-35,2024.1.4,None,2024-07-02 19h53.02.186390 +0900,
Images/Speaker1.jpg,Images/Speaker2.jpg,Images/Speaker3.jpg,Images/Speaker4.jpg,Audio/Speaker3_Per/P3-5-Per.wav,Speaker3,گوینده۳,,,,,,,,0,0,0,71,0,71,71,44,,,,,205.98430912500044,,,,,,,,,,,,,,,,,,,,,,,,,,,,,,,,,,,,,,,,,,,,,205.96296358299878,205.98430912500044,205.98430912500044,205.98430912500044,205.98430912500044,205.97795374966907,205.98430912500044,205.98430912500044,206.19483612500335,Incorrect! The correct answer is Speaker3. نادرست! پاسخ صحیح گوینده۳ است,0,1,1,0.19620374999794876,None,206.19961499999772,206.2146456670016,208.20159745799901,,,,,,,,,,,,,,,,,,,,,,,,,,,,,,445052,001,2024-07-02_19h52.56.848,5-35,2024.1.4,None,2024-07-02 19h53.02.186390 +0900,
Images/Speaker1.jpg,Images/Speaker2.jpg,Images/Speaker3.jpg,Images/Speaker4.jpg,Audio/Speaker4_Per/P4-15-Per.wav,Speaker4,گوینده۴,,,,,,,,0,0,0,71,0,72,72,74,,,,,208.2220755419985,,,,,,,,,,,,,,,,,,,,,,,,,,,,,,,,,,,,,,,,,,,,,208.20178345800377,208.2220755419985,208.2220755419985,208.2220755419985,208.2220755419985,208.2182229586654,208.2220755419985,208.2220755419985,208.30999591699947,Incorrect! The correct answer is Speaker4. نادرست! پاسخ صحیح گوینده۴ است,0,1,1,0.07488837499840884,None,208.31369812499906,208.32630758300365,210.31328137499804,210.3331330830042,,,,,,,,,,,,,,,,,,,,,,,,,,,,,445052,001,2024-07-02_19h52.56.848,5-35,2024.1.4,None,2024-07-02 19h53.02.186390 +0900,
Images/Speaker1.jpg,Images/Speaker2.jpg,Images/Speaker3.jpg,Images/Speaker4.jpg,Audio/Speaker4_Per/P4-3-Per.wav,Speaker4,گوینده۴,,,,,,,,0,0,0,71,0,73,73,62,,,,,210.3331330830042,,,,,,,,,,,,,,,,,,,,,,,,,,,,,,,,,,,,,,,,,,,,,210.31344333299785,210.3331330830042,210.3331330830042,210.3331330830042,210.3331330830042,210.3297107916699,210.3331330830042,210.3331330830042,210.34401320799952,Incorrect! The correct answer is Speaker4. نادرست! پاسخ صحیح گوینده۴ است,0,1,1,0.008078708000539336,None,210.347757042,210.35953950000112,212.3448943330004,212.36546008299774,,,,,,,,,,,,,,,,,,,,,,,,,,,,,445052,001,2024-07-02_19h52.56.848,5-35,2024.1.4,None,2024-07-02 19h53.02.186390 +0900,
Images/Speaker1.jpg,Images/Speaker2.jpg,Images/Speaker3.jpg,Images/Speaker4.jpg,Audio/Speaker3_Per/P3-16-Per.wav,Speaker3,گوینده۳,,,,,,,,0,0,0,71,0,74,74,55,,,,,212.36546008299774,,,,,,,,,,,,,,,,,,,,,,,,,,,,,,,,,,,,,,,,,,,,,212.34506908299954,212.36546008299774,212.36546008299774,212.36546008299774,212.36546008299774,212.36129912466666,212.36546008299774,212.36546008299774,212.3714963750026,Incorrect! The correct answer is Speaker3. نادرست! پاسخ صحیح گوینده۳ است,0,1,1,0.0014352500002132729,None,212.37528279200342,212.3877258749999,214.37429479200364,214.3954240000021,,,,,,,,,,,,,,,,,,,,,,,,,,,,,445052,001,2024-07-02_19h52.56.848,5-35,2024.1.4,None,2024-07-02 19h53.02.186390 +0900,
Images/Speaker1.jpg,Images/Speaker2.jpg,Images/Speaker3.jpg,Images/Speaker4.jpg,Audio/Speaker2_Per/P2-9-Per.wav,Speaker2,گوینده۲,,,,,,,,0,0,0,71,0,75,75,28,,,,,214.3954240000021,,,,,,,,,,,,,,,,,,,,,,,,,,,,,,,,,,,,,,,,,,,,,214.37446041699877,214.3954240000021,214.3954240000021,214.3954240000021,214.3954240000021,214.390659333669,214.3954240000021,214.3954240000021,214.4665614580008,Incorrect! The correct answer is Speaker2. نادرست! پاسخ صحیح گوینده۲ است,0,1,1,0.0597793749984703,None,214.47032412500266,214.48233354200056,216.47616916699917,,,,,,,,,,,,,,,,,,,,,,,,,,,,,,445052,001,2024-07-02_19h52.56.848,5-35,2024.1.4,None,2024-07-02 19h53.02.186390 +0900,
Images/Speaker1.jpg,Images/Speaker2.jpg,Images/Speaker3.jpg,Images/Speaker4.jpg,Audio/Speaker1_Per/P1-1-Per.wav,Speaker1,گوینده ۱,,,,,,,,0,0,0,71,0,76,76,0,,,,,216.4971329580003,,,,,,,,,,,,,,,,,,,,,,,,,,,,,,,,,,,,,,,,,,,,,216.47638404199824,216.4971329580003,216.4971329580003,216.4971329580003,216.4971329580003,216.49280516666866,216.4971329580003,216.4971329580003,216.57684587500262,Correct! صحیح است,1,1,1,0.0722720840058173,None,216.58063454199873,216.5893242500024,218.576799208,218.59771624999848,,,,,,,,,,,,,,,,,,,,,,,,,,,,,445052,001,2024-07-02_19h52.56.848,5-35,2024.1.4,None,2024-07-02 19h53.02.186390 +0900,
Images/Speaker1.jpg,Images/Speaker2.jpg,Images/Speaker3.jpg,Images/Speaker4.jpg,Audio/Speaker4_Per/P4-6-Per.wav,Speaker4,گوینده۴,,,,,,,,0,0,0,71,0,77,77,65,,,,,218.59771624999848,,,,,,,,,,,,,,,,,,,,,,,,,,,,,,,,,,,,,,,,,,,,,218.57697329200164,218.59771624999848,218.59771624999848,218.59771624999848,218.59771624999848,218.5931624996704,218.59771624999848,218.59771624999848,218.64016408300085,Incorrect! The correct answer is Speaker4. نادرست! پاسخ صحیح گوینده۴ است,0,1,1,0.0414411670062691,None,218.64435175000108,218.6575759999978,220.65088941700378,,,,,,,,,,,,,,,,,,,,,,,,,,,,,,445052,001,2024-07-02_19h52.56.848,5-35,2024.1.4,None,2024-07-02 19h53.02.186390 +0900,
Images/Speaker1.jpg,Images/Speaker2.jpg,Images/Speaker3.jpg,Images/Speaker4.jpg,Audio/Speaker3_Per/P3-12-Per.wav,Speaker3,گوینده۳,,,,,,,,0,0,0,71,0,78,78,51,,,,,220.67142908299866,,,,,,,,,,,,,,,,,,,,,,,,,,,,,,,,,,,,,,,,,,,,,220.6510530000014,220.67142908299866,220.67142908299866,220.67142908299866,220.67142908299866,220.66751649966707,220.67142908299866,220.67142908299866,220.83439462500246,Incorrect! The correct answer is Speaker3. نادرست! پاسخ صحیح گوینده۳ است,0,1,1,0.1584928750016843,None,220.83846708299825,220.85121637499833,222.84201170800225,,,,,,,,,,,,,,,,,,,,,,,,,,,,,,445052,001,2024-07-02_19h52.56.848,5-35,2024.1.4,None,2024-07-02 19h53.02.186390 +0900,
Images/Speaker1.jpg,Images/Speaker2.jpg,Images/Speaker3.jpg,Images/Speaker4.jpg,Audio/Speaker1_Per/P1-4-Per.wav,Speaker1,گوینده ۱,,,,,,,,0,0,0,71,0,79,79,3,,,,,222.86346225000307,,,,,,,,,,,,,,,,,,,,,,,,,,,,,,,,,,,,,,,,,,,,,222.84218225000222,222.86346225000307,222.86346225000307,222.86346225000307,222.86346225000307,222.85864408367004,222.86346225000307,222.86346225000307,222.99154833300418,Correct! صحیح است,1,1,1,0.12456654200650519,None,222.99565079199965,223.00663216700195,224.99410050000006,225.00050158300292,,,,,,,,,,,,,,,,,,,,,,,,,,,,,445052,001,2024-07-02_19h52.56.848,5-35,2024.1.4,None,2024-07-02 19h53.02.186390 +0900,
Images/Speaker1.jpg,Images/Speaker2.jpg,Images/Speaker3.jpg,Images/Speaker4.jpg,Audio/Speaker4_Per/P4-12-Per.wav,Speaker4,گوینده۴,,,,,,,,0,0,0,71,,,,,,,,,,,,,,,,,,,,,,,,,,,,,,,,,,,,,,,,,,,,,,,,,,,,,,,,,,,,,,,,,,,,,,,,,224.99431079199712,1.0,True,224.99472433300252,,,,,,,,,,,,,,,,,,,,,,,,,445052,001,2024-07-02_19h52.56.848,5-35,2024.1.4,None,2024-07-02 19h53.02.186390 +0900,
,,,,,,,,,,,,,,,,,,,,,,,,,,,,,,,,,,,,,,,,,,,,,,,,,,,,,,,,,,,,,,,,,,,,,,,,,,,,,,,,,,,,,,,,,,,,,,224.9948040829986,225.00050158300292,230.03445104200364,229.98951749999833,,,,,,,,,,,,,,,,,,,,,445052,001,2024-07-02_19h52.56.848,5-35,2024.1.4,None,2024-07-02 19h53.02.186390 +0900,
,,,,,,,Images/Speaker1.jpg,Images/Speaker2.jpg,Images/Speaker3.jpg,Images/Speaker4.jpg,Audio/Speaker3_En/P3-11-En.wav,Speaker3,گوینده۳,,,,,,,,,0,0,0,50,230.03445104200364,,,,,,,,,,,,,,,,,,,,,,,,,,,,,,,,,,,,,,,,,,,,,,,,,,,,,,,,,,,,,,,,,,,,,,,,230.00837241700356,230.03445104200364,230.03445104200364,230.03445104200364,230.03445104200364,230.0393080000038,230.03445104200364,230.03445104200364,230.03505829200003,1,2.196752709001885,None,1,Images/Speaker1.jpg,Images/Speaker2.jpg,Images/Speaker3.jpg,Images/Speaker4.jpg,Audio/Speaker3_En/P3-11-En.wav,Speaker1,گوینده ۱,445052,001,2024-07-02_19h52.56.848,5-35,2024.1.4,None,2024-07-02 19h53.02.186390 +0900,
,,,,,,,Images/Speaker1.jpg,Images/Speaker2.jpg,Images/Speaker3.jpg,Images/Speaker4.jpg,Audio/Speaker4_En/P4-7-En.wav,Speaker4,گوینده۴,,,,,,,,,0,1,1,66,230.05629212500207,,,,,,,,,,,,,,,,,,,,,,,,,,,,,,,,,,,,,,,,,,,,,,,,,,,,,,,,,,,,,,,,,,,,,,,,230.03560624999955,230.05629212500207,230.05629212500207,230.05629212500207,230.05629212500207,230.05111770867032,230.05629212500207,230.05629212500207,245.79057787499914,1,15.726032249993295,None,1,Images/Speaker1.jpg,Images/Speaker2.jpg,Images/Speaker3.jpg,Images/Speaker4.jpg,Audio/Speaker4_En/P4-7-En.wav,Speaker1,گوینده ۱,445052,001,2024-07-02_19h52.56.848,5-35,2024.1.4,None,2024-07-02 19h53.02.186390 +0900,
,,,,,,,Images/Speaker1.jpg,Images/Speaker2.jpg,Images/Speaker3.jpg,Images/Speaker4.jpg,Audio/Speaker3_En/P3-19-En.wav,Speaker3,گوینده۳,,,,,,,,,0,2,2,58,245.81675779200305,,,,,,,,,,,,,,,,,,,,,,,,,,,,,,,,,,,,,,,,,,,,,,,,,,,,,,,,,,,,,,,,,,,,,,,,245.79100991700398,245.81675779200305,245.81675779200305,245.81675779200305,245.81675779200305,245.82114637533283,245.81675779200305,245.81675779200305,248.66693029199814,2,2.8482532080015517,None,2,Images/Speaker1.jpg,Images/Speaker2.jpg,Images/Speaker3.jpg,Images/Speaker4.jpg,Audio/Speaker3_En/P3-19-En.wav,Speaker1,گوینده ۱,445052,001,2024-07-02_19h52.56.848,5-35,2024.1.4,None,2024-07-02 19h53.02.186390 +0900,
,,,,,,,,,,,,,,,,,,,,,,,,,,248.69762758300203,,,,,,,,,,,,,,,,,,,,,,,,,,,,,,,,,,,,,,,,,,,,,,,,,,,,,,,,,,,,,,,,,,,,,,,,248.67095400000107,248.69762758300203,248.69762758300203,248.69762758300203,248.69762758300203,248.69941087533567,248.69762758300203,248.69762758300203,,,,,,,,,,,,,,,,,,,,
