SpeakerImage1,SpeakerImage2,SpeakerImage3,SpeakerImage4,TrainingSound,EnglishCorrectAnswer,PersianCorrectAnswer,repeated_TrainingloopGroup1.thisRepN,repeated_TrainingloopGroup1.thisTrialN,repeated_TrainingloopGroup1.thisN,repeated_TrainingloopGroup1.thisIndex,TrainingLoopGroup1.thisRepN,TrainingLoopGroup1.thisTrialN,TrainingLoopGroup1.thisN,TrainingLoopGroup1.thisIndex,thisRow.t,notes,trial.started,trial.stopped,GroupSelection.started,GroupInstructions.started,key_resp.started,GroupSelection.stopped,key_resp.keys,key_resp.rt,key_resp.duration,Introduction.started,text_2.started,image.started,sound_7.started,text_4.started,text_2.stopped,sound_8.started,image.stopped,text_4.stopped,image_7.started,sound_9.started,text_5.started,sound_10.started,image_7.stopped,text_5.stopped,image_8.started,sound_11.started,text_6.started,sound_12.started,image_8.stopped,text_6.stopped,image_9.started,sound_13.started,text_7.started,sound_14.started,image_9.stopped,text_7.stopped,Introduction.stopped,Instructions.started,InstructionText.started,InstructionText.stopped,Instructions.stopped,InitializeExperiment.started,InitializeExperiment.stopped,CheckAccuracy1.started,accuracy_group1,proceed_to_test,CheckAccuracy1.stopped,participant,session,date,expName,psychopyVersion,frameRate,expStart,
,,,,,,,,,,,,,,,,,0.01650912500008417,0.022830542000519927,,,,,,,,,,,,,,,,,,,,,,,,,,,,,,,,,,,,,,,,,,,,,,453494,001,2024-07-03_14h03.22.645,5-all in one,2024.1.4,None,2024-07-03 14h03.27.862570 +0900,
,,,,,,,,,,,,,,,,,,,0.02286649999950896,0.028477583000494633,0.028477583000494633,1.1700972079997882,2,1.10178229200028,None,,,,,,,,,,,,,,,,,,,,,,,,,,,,,,,,,,,,,,,453494,001,2024-07-03_14h03.22.645,5-all in one,2024.1.4,None,2024-07-03 14h03.27.862570 +0900,
,,,,,,,,,,,,,,,,,,,,,,,,,,1.1701328750004905,1.2290322080007172,6.164088749999792,6.172193708666115,6.164088749999792,6.223451083000327,11.174704333667494,16.161896292000165,16.161896292000165,16.161896292000165,16.172922708667343,16.161896292000165,21.170031666666787,26.152277082999717,26.152277082999717,26.172087082999496,26.18359549966614,26.172087082999496,31.171273166666893,36.16770762499982,36.16770762499982,36.16770762499982,36.177388249667516,36.16770762499982,41.17016074966729,46.15418112500083,46.15418112500083,46.15182858300068,,,,,,,,,,,453494,001,2024-07-03_14h03.22.645,5-all in one,2024.1.4,None,2024-07-03 14h03.27.862570 +0900,
,,,,,,,,,,,,,,,,,,,,,,,,,,,,,,,,,,,,,,,,,,,,,,,,,,,,,,46.15184570800011,46.16867199999979,65.19677849999971,47.160684958000274,,,,,,,453494,001,2024-07-03_14h03.22.645,5-all in one,2024.1.4,None,2024-07-03 14h03.27.862570 +0900,
,,,,,,,,,,,,,,,,,,,,,,,,,,,,,,,,,,,,,,,,,,,,,,,,,,,,,,,,,,47.160717875000046,47.16099100000065,,,,,453494,001,2024-07-03_14h03.22.645,5-all in one,2024.1.4,None,2024-07-03 14h03.27.862570 +0900,
Images/Speaker1.jpg,Images/Speaker2.jpg,Images/Speaker3.jpg,Images/Speaker4.jpg,Audio/Speaker4_Per/P4-7-Per.wav,Speaker4,گوینده۴,0,0,0,66,,,,,65.19677849999971,,,,,,,,,,,,,,,,,,,,,,,,,,,,,,,,,,,,,,,,,,,,,47.21484287500061,0.0,False,47.21518887499951,453494,001,2024-07-03_14h03.22.645,5-all in one,2024.1.4,None,2024-07-03 14h03.27.862570 +0900,
Images/Speaker1.jpg,Images/Speaker2.jpg,Images/Speaker3.jpg,Images/Speaker4.jpg,Audio/Speaker2_Per/P2-16-Per.wav,Speaker2,گوینده۲,0,1,1,35,,,,,65.19677849999971,,,,,,,,,,,,,,,,,,,,,,,,,,,,,,,,,,,,,,,,,,,,,47.23380287500004,0.0,False,47.234032708000086,453494,001,2024-07-03_14h03.22.645,5-all in one,2024.1.4,None,2024-07-03 14h03.27.862570 +0900,
Images/Speaker1.jpg,Images/Speaker2.jpg,Images/Speaker3.jpg,Images/Speaker4.jpg,Audio/Speaker1_Per/P1-19-Per.wav,Speaker1,گوینده ۱,0,2,2,18,,,,,65.19677849999971,,,,,,,,,,,,,,,,,,,,,,,,,,,,,,,,,,,,,,,,,,,,,47.251624083000934,0.0,False,47.251845208000304,453494,001,2024-07-03_14h03.22.645,5-all in one,2024.1.4,None,2024-07-03 14h03.27.862570 +0900,
Images/Speaker1.jpg,Images/Speaker2.jpg,Images/Speaker3.jpg,Images/Speaker4.jpg,Audio/Speaker4_Per/P4-10-Per.wav,Speaker4,گوینده۴,0,3,3,69,,,,,65.19677849999971,,,,,,,,,,,,,,,,,,,,,,,,,,,,,,,,,,,,,,,,,,,,,47.268658667000636,0.0,False,47.26887941700079,453494,001,2024-07-03_14h03.22.645,5-all in one,2024.1.4,None,2024-07-03 14h03.27.862570 +0900,
Images/Speaker1.jpg,Images/Speaker2.jpg,Images/Speaker3.jpg,Images/Speaker4.jpg,Audio/Speaker1_Per/P1-18-Per.wav,Speaker1,گوینده ۱,0,4,4,17,,,,,65.19677849999971,,,,,,,,,,,,,,,,,,,,,,,,,,,,,,,,,,,,,,,,,,,,,47.28470175000075,0.0,False,47.28490641700046,453494,001,2024-07-03_14h03.22.645,5-all in one,2024.1.4,None,2024-07-03 14h03.27.862570 +0900,
Images/Speaker1.jpg,Images/Speaker2.jpg,Images/Speaker3.jpg,Images/Speaker4.jpg,Audio/Speaker1_Per/P1-15-Per.wav,Speaker1,گوینده ۱,0,5,5,14,,,,,65.19677849999971,,,,,,,,,,,,,,,,,,,,,,,,,,,,,,,,,,,,,,,,,,,,,47.30083729200123,0.0,False,47.30104695800037,453494,001,2024-07-03_14h03.22.645,5-all in one,2024.1.4,None,2024-07-03 14h03.27.862570 +0900,
Images/Speaker1.jpg,Images/Speaker2.jpg,Images/Speaker3.jpg,Images/Speaker4.jpg,Audio/Speaker3_Per/P3-16-Per.wav,Speaker3,گوینده۳,0,6,6,55,,,,,65.19677849999971,,,,,,,,,,,,,,,,,,,,,,,,,,,,,,,,,,,,,,,,,,,,,47.31681933300024,0.0,False,47.31705441700069,453494,001,2024-07-03_14h03.22.645,5-all in one,2024.1.4,None,2024-07-03 14h03.27.862570 +0900,
Images/Speaker1.jpg,Images/Speaker2.jpg,Images/Speaker3.jpg,Images/Speaker4.jpg,Audio/Speaker4_Per/P4-12-Per.wav,Speaker4,گوینده۴,0,7,7,71,,,,,65.19677849999971,,,,,,,,,,,,,,,,,,,,,,,,,,,,,,,,,,,,,,,,,,,,,47.33299749999969,0.0,False,47.33322399999997,453494,001,2024-07-03_14h03.22.645,5-all in one,2024.1.4,None,2024-07-03 14h03.27.862570 +0900,
Images/Speaker1.jpg,Images/Speaker2.jpg,Images/Speaker3.jpg,Images/Speaker4.jpg,Audio/Speaker3_Per/P3-9-Per.wav,Speaker3,گوینده۳,0,8,8,48,,,,,65.19677849999971,,,,,,,,,,,,,,,,,,,,,,,,,,,,,,,,,,,,,,,,,,,,,47.34894241700022,0.0,False,47.34912145800081,453494,001,2024-07-03_14h03.22.645,5-all in one,2024.1.4,None,2024-07-03 14h03.27.862570 +0900,
Images/Speaker1.jpg,Images/Speaker2.jpg,Images/Speaker3.jpg,Images/Speaker4.jpg,Audio/Speaker4_Per/P4-4-Per.wav,Speaker4,گوینده۴,0,9,9,63,,,,,65.19677849999971,,,,,,,,,,,,,,,,,,,,,,,,,,,,,,,,,,,,,,,,,,,,,47.364749250000386,0.0,False,47.36497274999965,453494,001,2024-07-03_14h03.22.645,5-all in one,2024.1.4,None,2024-07-03 14h03.27.862570 +0900,
Images/Speaker1.jpg,Images/Speaker2.jpg,Images/Speaker3.jpg,Images/Speaker4.jpg,Audio/Speaker4_Per/P4-14-Per.wav,Speaker4,گوینده۴,0,10,10,73,,,,,65.19677849999971,,,,,,,,,,,,,,,,,,,,,,,,,,,,,,,,,,,,,,,,,,,,,47.38094733300022,0.0,False,47.38116254200031,453494,001,2024-07-03_14h03.22.645,5-all in one,2024.1.4,None,2024-07-03 14h03.27.862570 +0900,
Images/Speaker1.jpg,Images/Speaker2.jpg,Images/Speaker3.jpg,Images/Speaker4.jpg,Audio/Speaker3_Per/P3-5-Per.wav,Speaker3,گوینده۳,0,11,11,44,,,,,65.19677849999971,,,,,,,,,,,,,,,,,,,,,,,,,,,,,,,,,,,,,,,,,,,,,47.39726608300043,0.0,False,47.39743304200056,453494,001,2024-07-03_14h03.22.645,5-all in one,2024.1.4,None,2024-07-03 14h03.27.862570 +0900,
Images/Speaker1.jpg,Images/Speaker2.jpg,Images/Speaker3.jpg,Images/Speaker4.jpg,Audio/Speaker4_Per/P4-16-Per.wav,Speaker4,گوینده۴,0,12,12,75,,,,,65.19677849999971,,,,,,,,,,,,,,,,,,,,,,,,,,,,,,,,,,,,,,,,,,,,,47.413146041999426,0.0,False,47.413329167000484,453494,001,2024-07-03_14h03.22.645,5-all in one,2024.1.4,None,2024-07-03 14h03.27.862570 +0900,
Images/Speaker1.jpg,Images/Speaker2.jpg,Images/Speaker3.jpg,Images/Speaker4.jpg,Audio/Speaker1_Per/P1-8-Per.wav,Speaker1,گوینده ۱,0,13,13,7,,,,,65.19677849999971,,,,,,,,,,,,,,,,,,,,,,,,,,,,,,,,,,,,,,,,,,,,,47.42890412499946,0.0,False,47.42909566700109,453494,001,2024-07-03_14h03.22.645,5-all in one,2024.1.4,None,2024-07-03 14h03.27.862570 +0900,
Images/Speaker1.jpg,Images/Speaker2.jpg,Images/Speaker3.jpg,Images/Speaker4.jpg,Audio/Speaker3_Per/P3-4-Per.wav,Speaker3,گوینده۳,0,14,14,43,,,,,65.19677849999971,,,,,,,,,,,,,,,,,,,,,,,,,,,,,,,,,,,,,,,,,,,,,47.44482862500081,0.0,False,47.44501679200039,453494,001,2024-07-03_14h03.22.645,5-all in one,2024.1.4,None,2024-07-03 14h03.27.862570 +0900,
Images/Speaker1.jpg,Images/Speaker2.jpg,Images/Speaker3.jpg,Images/Speaker4.jpg,Audio/Speaker3_Per/P3-13-Per.wav,Speaker3,گوینده۳,0,15,15,52,,,,,65.19677849999971,,,,,,,,,,,,,,,,,,,,,,,,,,,,,,,,,,,,,,,,,,,,,47.461353042001065,0.0,False,47.46152895799969,453494,001,2024-07-03_14h03.22.645,5-all in one,2024.1.4,None,2024-07-03 14h03.27.862570 +0900,
Images/Speaker1.jpg,Images/Speaker2.jpg,Images/Speaker3.jpg,Images/Speaker4.jpg,Audio/Speaker2_Per/P2-17-Per.wav,Speaker2,گوینده۲,0,16,16,36,,,,,65.19677849999971,,,,,,,,,,,,,,,,,,,,,,,,,,,,,,,,,,,,,,,,,,,,,47.47727983299956,0.0,False,47.47748049999973,453494,001,2024-07-03_14h03.22.645,5-all in one,2024.1.4,None,2024-07-03 14h03.27.862570 +0900,
Images/Speaker1.jpg,Images/Speaker2.jpg,Images/Speaker3.jpg,Images/Speaker4.jpg,Audio/Speaker3_Per/P3-18-Per.wav,Speaker3,گوینده۳,0,17,17,57,,,,,65.19677849999971,,,,,,,,,,,,,,,,,,,,,,,,,,,,,,,,,,,,,,,,,,,,,47.493138666999585,0.0,False,47.493334667000454,453494,001,2024-07-03_14h03.22.645,5-all in one,2024.1.4,None,2024-07-03 14h03.27.862570 +0900,
Images/Speaker1.jpg,Images/Speaker2.jpg,Images/Speaker3.jpg,Images/Speaker4.jpg,Audio/Speaker4_Per/P4-9-Per.wav,Speaker4,گوینده۴,0,18,18,68,,,,,65.19677849999971,,,,,,,,,,,,,,,,,,,,,,,,,,,,,,,,,,,,,,,,,,,,,47.50894245800009,0.0,False,47.509123666999585,453494,001,2024-07-03_14h03.22.645,5-all in one,2024.1.4,None,2024-07-03 14h03.27.862570 +0900,
Images/Speaker1.jpg,Images/Speaker2.jpg,Images/Speaker3.jpg,Images/Speaker4.jpg,Audio/Speaker4_Per/P4-2-Per.wav,Speaker4,گوینده۴,0,19,19,61,,,,,65.19677849999971,,,,,,,,,,,,,,,,,,,,,,,,,,,,,,,,,,,,,,,,,,,,,47.525137458000245,0.0,False,47.5253059580009,453494,001,2024-07-03_14h03.22.645,5-all in one,2024.1.4,None,2024-07-03 14h03.27.862570 +0900,
Images/Speaker1.jpg,Images/Speaker2.jpg,Images/Speaker3.jpg,Images/Speaker4.jpg,Audio/Speaker3_Per/P3-19-Per.wav,Speaker3,گوینده۳,0,20,20,58,,,,,65.19677849999971,,,,,,,,,,,,,,,,,,,,,,,,,,,,,,,,,,,,,,,,,,,,,47.541043917000934,0.0,False,47.54121408299943,453494,001,2024-07-03_14h03.22.645,5-all in one,2024.1.4,None,2024-07-03 14h03.27.862570 +0900,
Images/Speaker1.jpg,Images/Speaker2.jpg,Images/Speaker3.jpg,Images/Speaker4.jpg,Audio/Speaker3_Per/P3-6-Per.wav,Speaker3,گوینده۳,0,21,21,45,,,,,65.19677849999971,,,,,,,,,,,,,,,,,,,,,,,,,,,,,,,,,,,,,,,,,,,,,47.556787249999616,0.0,False,47.556997625000804,453494,001,2024-07-03_14h03.22.645,5-all in one,2024.1.4,None,2024-07-03 14h03.27.862570 +0900,
Images/Speaker1.jpg,Images/Speaker2.jpg,Images/Speaker3.jpg,Images/Speaker4.jpg,Audio/Speaker3_Per/P3-20-Per.wav,Speaker3,گوینده۳,0,22,22,59,,,,,65.19677849999971,,,,,,,,,,,,,,,,,,,,,,,,,,,,,,,,,,,,,,,,,,,,,47.57256454200069,0.0,False,47.572766041999785,453494,001,2024-07-03_14h03.22.645,5-all in one,2024.1.4,None,2024-07-03 14h03.27.862570 +0900,
Images/Speaker1.jpg,Images/Speaker2.jpg,Images/Speaker3.jpg,Images/Speaker4.jpg,Audio/Speaker4_Per/P4-8-Per.wav,Speaker4,گوینده۴,0,23,23,67,,,,,65.19677849999971,,,,,,,,,,,,,,,,,,,,,,,,,,,,,,,,,,,,,,,,,,,,,47.588917167000545,0.0,False,47.589092000000164,453494,001,2024-07-03_14h03.22.645,5-all in one,2024.1.4,None,2024-07-03 14h03.27.862570 +0900,
Images/Speaker1.jpg,Images/Speaker2.jpg,Images/Speaker3.jpg,Images/Speaker4.jpg,Audio/Speaker2_Per/P2-11-Per.wav,Speaker2,گوینده۲,0,24,24,30,,,,,65.19677849999971,,,,,,,,,,,,,,,,,,,,,,,,,,,,,,,,,,,,,,,,,,,,,47.60508354200101,0.0,False,47.60525987500114,453494,001,2024-07-03_14h03.22.645,5-all in one,2024.1.4,None,2024-07-03 14h03.27.862570 +0900,
Images/Speaker1.jpg,Images/Speaker2.jpg,Images/Speaker3.jpg,Images/Speaker4.jpg,Audio/Speaker4_Per/P4-18-Per.wav,Speaker4,گوینده۴,0,25,25,77,,,,,65.19677849999971,,,,,,,,,,,,,,,,,,,,,,,,,,,,,,,,,,,,,,,,,,,,,47.62088629200116,0.0,False,47.621072625001034,453494,001,2024-07-03_14h03.22.645,5-all in one,2024.1.4,None,2024-07-03 14h03.27.862570 +0900,
Images/Speaker1.jpg,Images/Speaker2.jpg,Images/Speaker3.jpg,Images/Speaker4.jpg,Audio/Speaker1_Per/P1-7-Per.wav,Speaker1,گوینده ۱,0,26,26,6,,,,,65.19677849999971,,,,,,,,,,,,,,,,,,,,,,,,,,,,,,,,,,,,,,,,,,,,,47.63686608300122,0.0,False,47.637040792000334,453494,001,2024-07-03_14h03.22.645,5-all in one,2024.1.4,None,2024-07-03 14h03.27.862570 +0900,
Images/Speaker1.jpg,Images/Speaker2.jpg,Images/Speaker3.jpg,Images/Speaker4.jpg,Audio/Speaker2_Per/P2-4-Per.wav,Speaker2,گوینده۲,0,27,27,23,,,,,65.19677849999971,,,,,,,,,,,,,,,,,,,,,,,,,,,,,,,,,,,,,,,,,,,,,47.652982458001134,0.0,False,47.65317354199942,453494,001,2024-07-03_14h03.22.645,5-all in one,2024.1.4,None,2024-07-03 14h03.27.862570 +0900,
Images/Speaker1.jpg,Images/Speaker2.jpg,Images/Speaker3.jpg,Images/Speaker4.jpg,Audio/Speaker1_Per/P1-4-Per.wav,Speaker1,گوینده ۱,0,28,28,3,,,,,65.19677849999971,,,,,,,,,,,,,,,,,,,,,,,,,,,,,,,,,,,,,,,,,,,,,47.66889195800104,0.0,False,47.66905204199975,453494,001,2024-07-03_14h03.22.645,5-all in one,2024.1.4,None,2024-07-03 14h03.27.862570 +0900,
Images/Speaker1.jpg,Images/Speaker2.jpg,Images/Speaker3.jpg,Images/Speaker4.jpg,Audio/Speaker2_Per/P2-19-Per.wav,Speaker2,گوینده۲,0,29,29,38,,,,,65.19677849999971,,,,,,,,,,,,,,,,,,,,,,,,,,,,,,,,,,,,,,,,,,,,,47.68455875000109,0.0,False,47.684733957999924,453494,001,2024-07-03_14h03.22.645,5-all in one,2024.1.4,None,2024-07-03 14h03.27.862570 +0900,
Images/Speaker1.jpg,Images/Speaker2.jpg,Images/Speaker3.jpg,Images/Speaker4.jpg,Audio/Speaker3_Per/P3-12-Per.wav,Speaker3,گوینده۳,0,30,30,51,,,,,65.19677849999971,,,,,,,,,,,,,,,,,,,,,,,,,,,,,,,,,,,,,,,,,,,,,47.70029291700121,0.0,False,47.70049183300034,453494,001,2024-07-03_14h03.22.645,5-all in one,2024.1.4,None,2024-07-03 14h03.27.862570 +0900,
Images/Speaker1.jpg,Images/Speaker2.jpg,Images/Speaker3.jpg,Images/Speaker4.jpg,Audio/Speaker1_Per/P1-13-Per.wav,Speaker1,گوینده ۱,0,31,31,12,,,,,65.19677849999971,,,,,,,,,,,,,,,,,,,,,,,,,,,,,,,,,,,,,,,,,,,,,47.71646670799964,0.0,False,47.71667645799971,453494,001,2024-07-03_14h03.22.645,5-all in one,2024.1.4,None,2024-07-03 14h03.27.862570 +0900,
Images/Speaker1.jpg,Images/Speaker2.jpg,Images/Speaker3.jpg,Images/Speaker4.jpg,Audio/Speaker4_Per/P4-17-Per.wav,Speaker4,گوینده۴,0,32,32,76,,,,,65.19677849999971,,,,,,,,,,,,,,,,,,,,,,,,,,,,,,,,,,,,,,,,,,,,,47.73240799999985,0.0,False,47.73260704200038,453494,001,2024-07-03_14h03.22.645,5-all in one,2024.1.4,None,2024-07-03 14h03.27.862570 +0900,
Images/Speaker1.jpg,Images/Speaker2.jpg,Images/Speaker3.jpg,Images/Speaker4.jpg,Audio/Speaker1_Per/P1-20-Per.wav,Speaker1,گوینده ۱,0,33,33,19,,,,,65.19677849999971,,,,,,,,,,,,,,,,,,,,,,,,,,,,,,,,,,,,,,,,,,,,,47.74826020799992,0.0,False,47.74844945800032,453494,001,2024-07-03_14h03.22.645,5-all in one,2024.1.4,None,2024-07-03 14h03.27.862570 +0900,
Images/Speaker1.jpg,Images/Speaker2.jpg,Images/Speaker3.jpg,Images/Speaker4.jpg,Audio/Speaker1_Per/P1-9-Per.wav,Speaker1,گوینده ۱,0,34,34,8,,,,,65.19677849999971,,,,,,,,,,,,,,,,,,,,,,,,,,,,,,,,,,,,,,,,,,,,,47.76402895799947,0.0,False,47.7641887080008,453494,001,2024-07-03_14h03.22.645,5-all in one,2024.1.4,None,2024-07-03 14h03.27.862570 +0900,
Images/Speaker1.jpg,Images/Speaker2.jpg,Images/Speaker3.jpg,Images/Speaker4.jpg,Audio/Speaker2_Per/P2-15-Per.wav,Speaker2,گوینده۲,0,35,35,34,,,,,65.19677849999971,,,,,,,,,,,,,,,,,,,,,,,,,,,,,,,,,,,,,,,,,,,,,47.78011074999995,0.0,False,47.780278750000434,453494,001,2024-07-03_14h03.22.645,5-all in one,2024.1.4,None,2024-07-03 14h03.27.862570 +0900,
Images/Speaker1.jpg,Images/Speaker2.jpg,Images/Speaker3.jpg,Images/Speaker4.jpg,Audio/Speaker1_Per/P1-16-Per.wav,Speaker1,گوینده ۱,0,36,36,15,,,,,65.19677849999971,,,,,,,,,,,,,,,,,,,,,,,,,,,,,,,,,,,,,,,,,,,,,47.79582250000021,0.0,False,47.795987083,453494,001,2024-07-03_14h03.22.645,5-all in one,2024.1.4,None,2024-07-03 14h03.27.862570 +0900,
Images/Speaker1.jpg,Images/Speaker2.jpg,Images/Speaker3.jpg,Images/Speaker4.jpg,Audio/Speaker3_Per/P3-7-Per.wav,Speaker3,گوینده۳,0,37,37,46,,,,,65.19677849999971,,,,,,,,,,,,,,,,,,,,,,,,,,,,,,,,,,,,,,,,,,,,,47.81160975000057,0.0,False,47.81177620800008,453494,001,2024-07-03_14h03.22.645,5-all in one,2024.1.4,None,2024-07-03 14h03.27.862570 +0900,
Images/Speaker1.jpg,Images/Speaker2.jpg,Images/Speaker3.jpg,Images/Speaker4.jpg,Audio/Speaker2_Per/P2-9-Per.wav,Speaker2,گوینده۲,0,38,38,28,,,,,65.19677849999971,,,,,,,,,,,,,,,,,,,,,,,,,,,,,,,,,,,,,,,,,,,,,47.827270957999644,0.0,False,47.827441417000955,453494,001,2024-07-03_14h03.22.645,5-all in one,2024.1.4,None,2024-07-03 14h03.27.862570 +0900,
Images/Speaker1.jpg,Images/Speaker2.jpg,Images/Speaker3.jpg,Images/Speaker4.jpg,Audio/Speaker3_Per/P3-2-Per.wav,Speaker3,گوینده۳,0,39,39,41,,,,,65.19677849999971,,,,,,,,,,,,,,,,,,,,,,,,,,,,,,,,,,,,,,,,,,,,,47.84326158300064,0.0,False,47.84345391700117,453494,001,2024-07-03_14h03.22.645,5-all in one,2024.1.4,None,2024-07-03 14h03.27.862570 +0900,
Images/Speaker1.jpg,Images/Speaker2.jpg,Images/Speaker3.jpg,Images/Speaker4.jpg,Audio/Speaker1_Per/P1-5-Per.wav,Speaker1,گوینده ۱,0,40,40,4,,,,,65.19677849999971,,,,,,,,,,,,,,,,,,,,,,,,,,,,,,,,,,,,,,,,,,,,,47.85908595799992,0.0,False,47.85931595799957,453494,001,2024-07-03_14h03.22.645,5-all in one,2024.1.4,None,2024-07-03 14h03.27.862570 +0900,
Images/Speaker1.jpg,Images/Speaker2.jpg,Images/Speaker3.jpg,Images/Speaker4.jpg,Audio/Speaker4_Per/P4-20-Per.wav,Speaker4,گوینده۴,0,41,41,79,,,,,65.19677849999971,,,,,,,,,,,,,,,,,,,,,,,,,,,,,,,,,,,,,,,,,,,,,47.874783667000884,0.0,False,47.87497079199966,453494,001,2024-07-03_14h03.22.645,5-all in one,2024.1.4,None,2024-07-03 14h03.27.862570 +0900,
Images/Speaker1.jpg,Images/Speaker2.jpg,Images/Speaker3.jpg,Images/Speaker4.jpg,Audio/Speaker2_Per/P2-8-Per.wav,Speaker2,گوینده۲,0,42,42,27,,,,,65.19677849999971,,,,,,,,,,,,,,,,,,,,,,,,,,,,,,,,,,,,,,,,,,,,,47.89071912500003,0.0,False,47.89088262500081,453494,001,2024-07-03_14h03.22.645,5-all in one,2024.1.4,None,2024-07-03 14h03.27.862570 +0900,
Images/Speaker1.jpg,Images/Speaker2.jpg,Images/Speaker3.jpg,Images/Speaker4.jpg,Audio/Speaker3_Per/P3-17-Per.wav,Speaker3,گوینده۳,0,43,43,56,,,,,65.19677849999971,,,,,,,,,,,,,,,,,,,,,,,,,,,,,,,,,,,,,,,,,,,,,47.90734720799992,0.0,False,47.90753683299954,453494,001,2024-07-03_14h03.22.645,5-all in one,2024.1.4,None,2024-07-03 14h03.27.862570 +0900,
Images/Speaker1.jpg,Images/Speaker2.jpg,Images/Speaker3.jpg,Images/Speaker4.jpg,Audio/Speaker2_Per/P2-3-Per.wav,Speaker2,گوینده۲,0,44,44,22,,,,,65.19677849999971,,,,,,,,,,,,,,,,,,,,,,,,,,,,,,,,,,,,,,,,,,,,,47.92320149999978,0.0,False,47.92339566699957,453494,001,2024-07-03_14h03.22.645,5-all in one,2024.1.4,None,2024-07-03 14h03.27.862570 +0900,
Images/Speaker1.jpg,Images/Speaker2.jpg,Images/Speaker3.jpg,Images/Speaker4.jpg,Audio/Speaker4_Per/P4-15-Per.wav,Speaker4,گوینده۴,0,45,45,74,,,,,65.19677849999971,,,,,,,,,,,,,,,,,,,,,,,,,,,,,,,,,,,,,,,,,,,,,47.939029167000626,0.0,False,47.93927354200059,453494,001,2024-07-03_14h03.22.645,5-all in one,2024.1.4,None,2024-07-03 14h03.27.862570 +0900,
Images/Speaker1.jpg,Images/Speaker2.jpg,Images/Speaker3.jpg,Images/Speaker4.jpg,Audio/Speaker1_Per/P1-11-Per.wav,Speaker1,گوینده ۱,0,46,46,10,,,,,65.19677849999971,,,,,,,,,,,,,,,,,,,,,,,,,,,,,,,,,,,,,,,,,,,,,47.95501758300088,0.0,False,47.95522862500002,453494,001,2024-07-03_14h03.22.645,5-all in one,2024.1.4,None,2024-07-03 14h03.27.862570 +0900,
Images/Speaker1.jpg,Images/Speaker2.jpg,Images/Speaker3.jpg,Images/Speaker4.jpg,Audio/Speaker4_Per/P4-11-Per.wav,Speaker4,گوینده۴,0,47,47,70,,,,,65.19677849999971,,,,,,,,,,,,,,,,,,,,,,,,,,,,,,,,,,,,,,,,,,,,,47.97123012500015,0.0,False,47.971464207999816,453494,001,2024-07-03_14h03.22.645,5-all in one,2024.1.4,None,2024-07-03 14h03.27.862570 +0900,
Images/Speaker1.jpg,Images/Speaker2.jpg,Images/Speaker3.jpg,Images/Speaker4.jpg,Audio/Speaker2_Per/P2-20-Per.wav,Speaker2,گوینده۲,0,48,48,39,,,,,65.19677849999971,,,,,,,,,,,,,,,,,,,,,,,,,,,,,,,,,,,,,,,,,,,,,47.98712641699967,0.0,False,47.98730962500122,453494,001,2024-07-03_14h03.22.645,5-all in one,2024.1.4,None,2024-07-03 14h03.27.862570 +0900,
Images/Speaker1.jpg,Images/Speaker2.jpg,Images/Speaker3.jpg,Images/Speaker4.jpg,Audio/Speaker1_Per/P1-2-Per.wav,Speaker1,گوینده ۱,0,49,49,1,,,,,65.19677849999971,,,,,,,,,,,,,,,,,,,,,,,,,,,,,,,,,,,,,,,,,,,,,48.00287512500108,0.0,False,48.00306654199994,453494,001,2024-07-03_14h03.22.645,5-all in one,2024.1.4,None,2024-07-03 14h03.27.862570 +0900,
Images/Speaker1.jpg,Images/Speaker2.jpg,Images/Speaker3.jpg,Images/Speaker4.jpg,Audio/Speaker2_Per/P2-2-Per.wav,Speaker2,گوینده۲,0,50,50,21,,,,,65.19677849999971,,,,,,,,,,,,,,,,,,,,,,,,,,,,,,,,,,,,,,,,,,,,,48.01862650000112,0.0,False,48.018813750000845,453494,001,2024-07-03_14h03.22.645,5-all in one,2024.1.4,None,2024-07-03 14h03.27.862570 +0900,
Images/Speaker1.jpg,Images/Speaker2.jpg,Images/Speaker3.jpg,Images/Speaker4.jpg,Audio/Speaker1_Per/P1-17-Per.wav,Speaker1,گوینده ۱,0,51,51,16,,,,,65.19677849999971,,,,,,,,,,,,,,,,,,,,,,,,,,,,,,,,,,,,,,,,,,,,,48.03490395799963,0.0,False,48.03506125000058,453494,001,2024-07-03_14h03.22.645,5-all in one,2024.1.4,None,2024-07-03 14h03.27.862570 +0900,
Images/Speaker1.jpg,Images/Speaker2.jpg,Images/Speaker3.jpg,Images/Speaker4.jpg,Audio/Speaker2_Per/P2-13-Per.wav,Speaker2,گوینده۲,0,52,52,32,,,,,65.19677849999971,,,,,,,,,,,,,,,,,,,,,,,,,,,,,,,,,,,,,,,,,,,,,48.05065779200049,0.0,False,48.05084654200073,453494,001,2024-07-03_14h03.22.645,5-all in one,2024.1.4,None,2024-07-03 14h03.27.862570 +0900,
Images/Speaker1.jpg,Images/Speaker2.jpg,Images/Speaker3.jpg,Images/Speaker4.jpg,Audio/Speaker3_Per/P3-11-Per.wav,Speaker3,گوینده۳,0,53,53,50,,,,,65.19677849999971,,,,,,,,,,,,,,,,,,,,,,,,,,,,,,,,,,,,,,,,,,,,,48.06641504199979,0.0,False,48.06659050000053,453494,001,2024-07-03_14h03.22.645,5-all in one,2024.1.4,None,2024-07-03 14h03.27.862570 +0900,
Images/Speaker1.jpg,Images/Speaker2.jpg,Images/Speaker3.jpg,Images/Speaker4.jpg,Audio/Speaker2_Per/P2-10-Per.wav,Speaker2,گوینده۲,0,54,54,29,,,,,65.19677849999971,,,,,,,,,,,,,,,,,,,,,,,,,,,,,,,,,,,,,,,,,,,,,48.08230170800016,0.0,False,48.08249520800018,453494,001,2024-07-03_14h03.22.645,5-all in one,2024.1.4,None,2024-07-03 14h03.27.862570 +0900,
Images/Speaker1.jpg,Images/Speaker2.jpg,Images/Speaker3.jpg,Images/Speaker4.jpg,Audio/Speaker2_Per/P2-5-Per.wav,Speaker2,گوینده۲,0,55,55,24,,,,,65.19677849999971,,,,,,,,,,,,,,,,,,,,,,,,,,,,,,,,,,,,,,,,,,,,,48.098519332999786,0.0,False,48.098689374999594,453494,001,2024-07-03_14h03.22.645,5-all in one,2024.1.4,None,2024-07-03 14h03.27.862570 +0900,
Images/Speaker1.jpg,Images/Speaker2.jpg,Images/Speaker3.jpg,Images/Speaker4.jpg,Audio/Speaker3_Per/P3-3-Per.wav,Speaker3,گوینده۳,0,56,56,42,,,,,65.19677849999971,,,,,,,,,,,,,,,,,,,,,,,,,,,,,,,,,,,,,,,,,,,,,48.11443708300067,0.0,False,48.11460029199952,453494,001,2024-07-03_14h03.22.645,5-all in one,2024.1.4,None,2024-07-03 14h03.27.862570 +0900,
Images/Speaker1.jpg,Images/Speaker2.jpg,Images/Speaker3.jpg,Images/Speaker4.jpg,Audio/Speaker2_Per/P2-1-Per.wav,Speaker2,گوینده۲,0,57,57,20,,,,,65.19677849999971,,,,,,,,,,,,,,,,,,,,,,,,,,,,,,,,,,,,,,,,,,,,,48.13027279200105,0.0,False,48.13050720799947,453494,001,2024-07-03_14h03.22.645,5-all in one,2024.1.4,None,2024-07-03 14h03.27.862570 +0900,
Images/Speaker1.jpg,Images/Speaker2.jpg,Images/Speaker3.jpg,Images/Speaker4.jpg,Audio/Speaker1_Per/P1-4-Per.wav,Speaker1,گوینده ۱,0,58,58,13,,,,,65.19677849999971,,,,,,,,,,,,,,,,,,,,,,,,,,,,,,,,,,,,,,,,,,,,,48.14620466700035,0.0,False,48.146378375000495,453494,001,2024-07-03_14h03.22.645,5-all in one,2024.1.4,None,2024-07-03 14h03.27.862570 +0900,
Images/Speaker1.jpg,Images/Speaker2.jpg,Images/Speaker3.jpg,Images/Speaker4.jpg,Audio/Speaker4_Per/P4-13-Per.wav,Speaker4,گوینده۴,0,59,59,72,,,,,65.19677849999971,,,,,,,,,,,,,,,,,,,,,,,,,,,,,,,,,,,,,,,,,,,,,48.16233008299969,0.0,False,48.16251291700064,453494,001,2024-07-03_14h03.22.645,5-all in one,2024.1.4,None,2024-07-03 14h03.27.862570 +0900,
Images/Speaker1.jpg,Images/Speaker2.jpg,Images/Speaker3.jpg,Images/Speaker4.jpg,Audio/Speaker1_Per/P1-6-Per.wav,Speaker1,گوینده ۱,0,60,60,5,,,,,65.19677849999971,,,,,,,,,,,,,,,,,,,,,,,,,,,,,,,,,,,,,,,,,,,,,48.178207375000056,0.0,False,48.17845041700093,453494,001,2024-07-03_14h03.22.645,5-all in one,2024.1.4,None,2024-07-03 14h03.27.862570 +0900,
Images/Speaker1.jpg,Images/Speaker2.jpg,Images/Speaker3.jpg,Images/Speaker4.jpg,Audio/Speaker4_Per/P4-5-Per.wav,Speaker4,گوینده۴,0,61,61,64,,,,,65.19677849999971,,,,,,,,,,,,,,,,,,,,,,,,,,,,,,,,,,,,,,,,,,,,,48.19407270800002,0.0,False,48.194295375000365,453494,001,2024-07-03_14h03.22.645,5-all in one,2024.1.4,None,2024-07-03 14h03.27.862570 +0900,
Images/Speaker1.jpg,Images/Speaker2.jpg,Images/Speaker3.jpg,Images/Speaker4.jpg,Audio/Speaker3_Per/P3-8-Per.wav,Speaker3,گوینده۳,0,62,62,47,,,,,65.19677849999971,,,,,,,,,,,,,,,,,,,,,,,,,,,,,,,,,,,,,,,,,,,,,48.21018729200114,0.0,False,48.21037020800031,453494,001,2024-07-03_14h03.22.645,5-all in one,2024.1.4,None,2024-07-03 14h03.27.862570 +0900,
Images/Speaker1.jpg,Images/Speaker2.jpg,Images/Speaker3.jpg,Images/Speaker4.jpg,Audio/Speaker3_Per/P3-10-Per.wav,Speaker3,گوینده۳,0,63,63,49,,,,,65.19677849999971,,,,,,,,,,,,,,,,,,,,,,,,,,,,,,,,,,,,,,,,,,,,,48.27613745800045,0.0,False,48.27643204200103,453494,001,2024-07-03_14h03.22.645,5-all in one,2024.1.4,None,2024-07-03 14h03.27.862570 +0900,
Images/Speaker1.jpg,Images/Speaker2.jpg,Images/Speaker3.jpg,Images/Speaker4.jpg,Audio/Speaker1_Per/P1-1-Per.wav,Speaker1,گوینده ۱,0,64,64,0,,,,,65.19677849999971,,,,,,,,,,,,,,,,,,,,,,,,,,,,,,,,,,,,,,,,,,,,,48.29253312500077,0.0,False,48.292734791999465,453494,001,2024-07-03_14h03.22.645,5-all in one,2024.1.4,None,2024-07-03 14h03.27.862570 +0900,
Images/Speaker1.jpg,Images/Speaker2.jpg,Images/Speaker3.jpg,Images/Speaker4.jpg,Audio/Speaker2_Per/P2-14-Per.wav,Speaker2,گوینده۲,0,65,65,33,,,,,65.19677849999971,,,,,,,,,,,,,,,,,,,,,,,,,,,,,,,,,,,,,,,,,,,,,48.30845366700123,0.0,False,48.308653583000705,453494,001,2024-07-03_14h03.22.645,5-all in one,2024.1.4,None,2024-07-03 14h03.27.862570 +0900,
Images/Speaker1.jpg,Images/Speaker2.jpg,Images/Speaker3.jpg,Images/Speaker4.jpg,Audio/Speaker2_Per/P2-6-Per.wav,Speaker2,گوینده۲,0,66,66,25,,,,,65.19677849999971,,,,,,,,,,,,,,,,,,,,,,,,,,,,,,,,,,,,,,,,,,,,,48.32478470800015,0.0,False,48.32495695800026,453494,001,2024-07-03_14h03.22.645,5-all in one,2024.1.4,None,2024-07-03 14h03.27.862570 +0900,
Images/Speaker1.jpg,Images/Speaker2.jpg,Images/Speaker3.jpg,Images/Speaker4.jpg,Audio/Speaker3_Per/P3-1-Per.wav,Speaker3,گوینده۳,0,67,67,40,,,,,65.19677849999971,,,,,,,,,,,,,,,,,,,,,,,,,,,,,,,,,,,,,,,,,,,,,48.34046358300111,0.0,False,48.340622125000664,453494,001,2024-07-03_14h03.22.645,5-all in one,2024.1.4,None,2024-07-03 14h03.27.862570 +0900,
Images/Speaker1.jpg,Images/Speaker2.jpg,Images/Speaker3.jpg,Images/Speaker4.jpg,Audio/Speaker3_Per/P3-14-Per.wav,Speaker3,گوینده۳,0,68,68,53,,,,,65.19677849999971,,,,,,,,,,,,,,,,,,,,,,,,,,,,,,,,,,,,,,,,,,,,,48.35628920800082,0.0,False,48.35647862500082,453494,001,2024-07-03_14h03.22.645,5-all in one,2024.1.4,None,2024-07-03 14h03.27.862570 +0900,
Images/Speaker1.jpg,Images/Speaker2.jpg,Images/Speaker3.jpg,Images/Speaker4.jpg,Audio/Speaker1_Per/P1-12-Per.wav,Speaker1,گوینده ۱,0,69,69,11,,,,,65.19677849999971,,,,,,,,,,,,,,,,,,,,,,,,,,,,,,,,,,,,,,,,,,,,,48.37198625000019,0.0,False,48.372149875000105,453494,001,2024-07-03_14h03.22.645,5-all in one,2024.1.4,None,2024-07-03 14h03.27.862570 +0900,
Images/Speaker1.jpg,Images/Speaker2.jpg,Images/Speaker3.jpg,Images/Speaker4.jpg,Audio/Speaker2_Per/P2-7-Per.wav,Speaker2,گوینده۲,0,70,70,26,,,,,65.19677849999971,,,,,,,,,,,,,,,,,,,,,,,,,,,,,,,,,,,,,,,,,,,,,48.388189917001,0.0,False,48.388354083001104,453494,001,2024-07-03_14h03.22.645,5-all in one,2024.1.4,None,2024-07-03 14h03.27.862570 +0900,
Images/Speaker1.jpg,Images/Speaker2.jpg,Images/Speaker3.jpg,Images/Speaker4.jpg,Audio/Speaker2_Per/P2-18-Per.wav,Speaker2,گوینده۲,0,71,71,37,,,,,65.19677849999971,,,,,,,,,,,,,,,,,,,,,,,,,,,,,,,,,,,,,,,,,,,,,48.40399233300013,0.0,False,48.404177708000134,453494,001,2024-07-03_14h03.22.645,5-all in one,2024.1.4,None,2024-07-03 14h03.27.862570 +0900,
Images/Speaker1.jpg,Images/Speaker2.jpg,Images/Speaker3.jpg,Images/Speaker4.jpg,Audio/Speaker4_Per/P4-6-Per.wav,Speaker4,گوینده۴,0,72,72,65,,,,,65.19677849999971,,,,,,,,,,,,,,,,,,,,,,,,,,,,,,,,,,,,,,,,,,,,,48.41968600000109,0.0,False,48.41985541699978,453494,001,2024-07-03_14h03.22.645,5-all in one,2024.1.4,None,2024-07-03 14h03.27.862570 +0900,
Images/Speaker1.jpg,Images/Speaker2.jpg,Images/Speaker3.jpg,Images/Speaker4.jpg,Audio/Speaker4_Per/P4-19-Per.wav,Speaker4,گوینده۴,0,73,73,78,,,,,65.19677849999971,,,,,,,,,,,,,,,,,,,,,,,,,,,,,,,,,,,,,,,,,,,,,48.43588000000091,0.0,False,48.43606183300108,453494,001,2024-07-03_14h03.22.645,5-all in one,2024.1.4,None,2024-07-03 14h03.27.862570 +0900,
Images/Speaker1.jpg,Images/Speaker2.jpg,Images/Speaker3.jpg,Images/Speaker4.jpg,Audio/Speaker1_Per/P1-3-Per.wav,Speaker1,گوینده ۱,0,74,74,2,,,,,65.19677849999971,,,,,,,,,,,,,,,,,,,,,,,,,,,,,,,,,,,,,,,,,,,,,48.452267333001146,0.0,False,48.452467541999795,453494,001,2024-07-03_14h03.22.645,5-all in one,2024.1.4,None,2024-07-03 14h03.27.862570 +0900,
Images/Speaker1.jpg,Images/Speaker2.jpg,Images/Speaker3.jpg,Images/Speaker4.jpg,Audio/Speaker2_Per/P2-12-Per.wav,Speaker2,گوینده۲,0,75,75,31,,,,,65.19677849999971,,,,,,,,,,,,,,,,,,,,,,,,,,,,,,,,,,,,,,,,,,,,,48.46802150000076,0.0,False,48.46824554200066,453494,001,2024-07-03_14h03.22.645,5-all in one,2024.1.4,None,2024-07-03 14h03.27.862570 +0900,
Images/Speaker1.jpg,Images/Speaker2.jpg,Images/Speaker3.jpg,Images/Speaker4.jpg,Audio/Speaker3_Per/P3-15-Per.wav,Speaker3,گوینده۳,0,76,76,54,,,,,65.19677849999971,,,,,,,,,,,,,,,,,,,,,,,,,,,,,,,,,,,,,,,,,,,,,48.483798499999466,0.0,False,48.48396666699955,453494,001,2024-07-03_14h03.22.645,5-all in one,2024.1.4,None,2024-07-03 14h03.27.862570 +0900,
Images/Speaker1.jpg,Images/Speaker2.jpg,Images/Speaker3.jpg,Images/Speaker4.jpg,Audio/Speaker4_Per/P4-3-Per.wav,Speaker4,گوینده۴,0,77,77,62,,,,,65.19677849999971,,,,,,,,,,,,,,,,,,,,,,,,,,,,,,,,,,,,,,,,,,,,,48.499724625000454,0.0,False,48.499929458001134,453494,001,2024-07-03_14h03.22.645,5-all in one,2024.1.4,None,2024-07-03 14h03.27.862570 +0900,
Images/Speaker1.jpg,Images/Speaker2.jpg,Images/Speaker3.jpg,Images/Speaker4.jpg,Audio/Speaker1_Per/P1-10-Per.wav,Speaker1,گوینده ۱,0,78,78,9,,,,,65.19677849999971,,,,,,,,,,,,,,,,,,,,,,,,,,,,,,,,,,,,,,,,,,,,,48.51598424999975,0.0,False,48.51618362500085,453494,001,2024-07-03_14h03.22.645,5-all in one,2024.1.4,None,2024-07-03 14h03.27.862570 +0900,
Images/Speaker1.jpg,Images/Speaker2.jpg,Images/Speaker3.jpg,Images/Speaker4.jpg,Audio/Speaker4_Per/P4-1-Per.wav,Speaker4,گوینده۴,0,79,79,60,,,,,65.19677849999971,,,,,,,,,,,,,,,,,,,,,,,,,,,,,,,,,,,,,,,,,,,,,48.531707166999695,0.0,False,48.53188195800067,453494,001,2024-07-03_14h03.22.645,5-all in one,2024.1.4,None,2024-07-03 14h03.27.862570 +0900,
Images/Speaker1.jpg,Images/Speaker2.jpg,Images/Speaker3.jpg,Images/Speaker4.jpg,Audio/Speaker1_Per/P1-8-Per.wav,Speaker1,گوینده ۱,1,0,80,7,,,,,65.19677849999971,,,,,,,,,,,,,,,,,,,,,,,,,,,,,,,,,,,,,,,,,,,,,48.547356000000946,0.0,False,48.547508916999504,453494,001,2024-07-03_14h03.22.645,5-all in one,2024.1.4,None,2024-07-03 14h03.27.862570 +0900,
Images/Speaker1.jpg,Images/Speaker2.jpg,Images/Speaker3.jpg,Images/Speaker4.jpg,Audio/Speaker3_Per/P3-9-Per.wav,Speaker3,گوینده۳,1,1,81,48,,,,,65.19677849999971,,,,,,,,,,,,,,,,,,,,,,,,,,,,,,,,,,,,,,,,,,,,,48.563240292000046,0.0,False,48.563413333000426,453494,001,2024-07-03_14h03.22.645,5-all in one,2024.1.4,None,2024-07-03 14h03.27.862570 +0900,
Images/Speaker1.jpg,Images/Speaker2.jpg,Images/Speaker3.jpg,Images/Speaker4.jpg,Audio/Speaker2_Per/P2-18-Per.wav,Speaker2,گوینده۲,1,2,82,37,,,,,65.19677849999971,,,,,,,,,,,,,,,,,,,,,,,,,,,,,,,,,,,,,,,,,,,,,48.579656707999675,0.0,False,48.57985912500044,453494,001,2024-07-03_14h03.22.645,5-all in one,2024.1.4,None,2024-07-03 14h03.27.862570 +0900,
Images/Speaker1.jpg,Images/Speaker2.jpg,Images/Speaker3.jpg,Images/Speaker4.jpg,Audio/Speaker3_Per/P3-11-Per.wav,Speaker3,گوینده۳,1,3,83,50,,,,,65.19677849999971,,,,,,,,,,,,,,,,,,,,,,,,,,,,,,,,,,,,,,,,,,,,,48.59542262499963,0.0,False,48.595613625000624,453494,001,2024-07-03_14h03.22.645,5-all in one,2024.1.4,None,2024-07-03 14h03.27.862570 +0900,
Images/Speaker1.jpg,Images/Speaker2.jpg,Images/Speaker3.jpg,Images/Speaker4.jpg,Audio/Speaker3_Per/P3-15-Per.wav,Speaker3,گوینده۳,1,4,84,54,,,,,65.19677849999971,,,,,,,,,,,,,,,,,,,,,,,,,,,,,,,,,,,,,,,,,,,,,48.611152417000994,0.0,False,48.61136937500123,453494,001,2024-07-03_14h03.22.645,5-all in one,2024.1.4,None,2024-07-03 14h03.27.862570 +0900,
Images/Speaker1.jpg,Images/Speaker2.jpg,Images/Speaker3.jpg,Images/Speaker4.jpg,Audio/Speaker4_Per/P4-13-Per.wav,Speaker4,گوینده۴,1,5,85,72,,,,,65.19677849999971,,,,,,,,,,,,,,,,,,,,,,,,,,,,,,,,,,,,,,,,,,,,,48.62685133299965,0.0,False,48.627045875000476,453494,001,2024-07-03_14h03.22.645,5-all in one,2024.1.4,None,2024-07-03 14h03.27.862570 +0900,
Images/Speaker1.jpg,Images/Speaker2.jpg,Images/Speaker3.jpg,Images/Speaker4.jpg,Audio/Speaker3_Per/P3-1-Per.wav,Speaker3,گوینده۳,1,6,86,40,,,,,65.19677849999971,,,,,,,,,,,,,,,,,,,,,,,,,,,,,,,,,,,,,,,,,,,,,48.64323208300084,0.0,False,48.64337987500039,453494,001,2024-07-03_14h03.22.645,5-all in one,2024.1.4,None,2024-07-03 14h03.27.862570 +0900,
Images/Speaker1.jpg,Images/Speaker2.jpg,Images/Speaker3.jpg,Images/Speaker4.jpg,Audio/Speaker3_Per/P3-8-Per.wav,Speaker3,گوینده۳,1,7,87,47,,,,,65.19677849999971,,,,,,,,,,,,,,,,,,,,,,,,,,,,,,,,,,,,,,,,,,,,,48.65913075000026,0.0,False,48.659320750000916,453494,001,2024-07-03_14h03.22.645,5-all in one,2024.1.4,None,2024-07-03 14h03.27.862570 +0900,
Images/Speaker1.jpg,Images/Speaker2.jpg,Images/Speaker3.jpg,Images/Speaker4.jpg,Audio/Speaker1_Per/P1-6-Per.wav,Speaker1,گوینده ۱,1,8,88,5,,,,,65.19677849999971,,,,,,,,,,,,,,,,,,,,,,,,,,,,,,,,,,,,,,,,,,,,,48.674920792000194,0.0,False,48.67510775000119,453494,001,2024-07-03_14h03.22.645,5-all in one,2024.1.4,None,2024-07-03 14h03.27.862570 +0900,
Images/Speaker1.jpg,Images/Speaker2.jpg,Images/Speaker3.jpg,Images/Speaker4.jpg,Audio/Speaker1_Per/P1-1-Per.wav,Speaker1,گوینده ۱,1,9,89,0,,,,,65.19677849999971,,,,,,,,,,,,,,,,,,,,,,,,,,,,,,,,,,,,,,,,,,,,,48.6906516250001,0.0,False,48.690851833000124,453494,001,2024-07-03_14h03.22.645,5-all in one,2024.1.4,None,2024-07-03 14h03.27.862570 +0900,
Images/Speaker1.jpg,Images/Speaker2.jpg,Images/Speaker3.jpg,Images/Speaker4.jpg,Audio/Speaker3_Per/P3-20-Per.wav,Speaker3,گوینده۳,1,10,90,59,,,,,65.19677849999971,,,,,,,,,,,,,,,,,,,,,,,,,,,,,,,,,,,,,,,,,,,,,48.70697479199953,0.0,False,48.70716466700105,453494,001,2024-07-03_14h03.22.645,5-all in one,2024.1.4,None,2024-07-03 14h03.27.862570 +0900,
Images/Speaker1.jpg,Images/Speaker2.jpg,Images/Speaker3.jpg,Images/Speaker4.jpg,Audio/Speaker3_Per/P3-2-Per.wav,Speaker3,گوینده۳,1,11,91,41,,,,,65.19677849999971,,,,,,,,,,,,,,,,,,,,,,,,,,,,,,,,,,,,,,,,,,,,,48.72257433300001,0.0,False,48.722756500001196,453494,001,2024-07-03_14h03.22.645,5-all in one,2024.1.4,None,2024-07-03 14h03.27.862570 +0900,
Images/Speaker1.jpg,Images/Speaker2.jpg,Images/Speaker3.jpg,Images/Speaker4.jpg,Audio/Speaker4_Per/P4-17-Per.wav,Speaker4,گوینده۴,1,12,92,76,,,,,65.19677849999971,,,,,,,,,,,,,,,,,,,,,,,,,,,,,,,,,,,,,,,,,,,,,48.73828545800097,0.0,False,48.73845012499987,453494,001,2024-07-03_14h03.22.645,5-all in one,2024.1.4,None,2024-07-03 14h03.27.862570 +0900,
Images/Speaker1.jpg,Images/Speaker2.jpg,Images/Speaker3.jpg,Images/Speaker4.jpg,Audio/Speaker2_Per/P2-12-Per.wav,Speaker2,گوینده۲,1,13,93,31,,,,,65.19677849999971,,,,,,,,,,,,,,,,,,,,,,,,,,,,,,,,,,,,,,,,,,,,,48.753974375000325,0.0,False,48.75418075000016,453494,001,2024-07-03_14h03.22.645,5-all in one,2024.1.4,None,2024-07-03 14h03.27.862570 +0900,
Images/Speaker1.jpg,Images/Speaker2.jpg,Images/Speaker3.jpg,Images/Speaker4.jpg,Audio/Speaker1_Per/P1-11-Per.wav,Speaker1,گوینده ۱,1,14,94,10,,,,,65.19677849999971,,,,,,,,,,,,,,,,,,,,,,,,,,,,,,,,,,,,,,,,,,,,,48.77047583300009,0.0,False,48.77064404200064,453494,001,2024-07-03_14h03.22.645,5-all in one,2024.1.4,None,2024-07-03 14h03.27.862570 +0900,
Images/Speaker1.jpg,Images/Speaker2.jpg,Images/Speaker3.jpg,Images/Speaker4.jpg,Audio/Speaker2_Per/P2-11-Per.wav,Speaker2,گوینده۲,1,15,95,30,,,,,65.19677849999971,,,,,,,,,,,,,,,,,,,,,,,,,,,,,,,,,,,,,,,,,,,,,48.78618191700116,0.0,False,48.78643366700089,453494,001,2024-07-03_14h03.22.645,5-all in one,2024.1.4,None,2024-07-03 14h03.27.862570 +0900,
Images/Speaker1.jpg,Images/Speaker2.jpg,Images/Speaker3.jpg,Images/Speaker4.jpg,Audio/Speaker2_Per/P2-15-Per.wav,Speaker2,گوینده۲,1,16,96,34,,,,,65.19677849999971,,,,,,,,,,,,,,,,,,,,,,,,,,,,,,,,,,,,,,,,,,,,,48.801977582999825,0.0,False,48.80219975,453494,001,2024-07-03_14h03.22.645,5-all in one,2024.1.4,None,2024-07-03 14h03.27.862570 +0900,
Images/Speaker1.jpg,Images/Speaker2.jpg,Images/Speaker3.jpg,Images/Speaker4.jpg,Audio/Speaker2_Per/P2-4-Per.wav,Speaker2,گوینده۲,1,17,97,23,,,,,65.19677849999971,,,,,,,,,,,,,,,,,,,,,,,,,,,,,,,,,,,,,,,,,,,,,48.81774129199948,0.0,False,48.81792529199993,453494,001,2024-07-03_14h03.22.645,5-all in one,2024.1.4,None,2024-07-03 14h03.27.862570 +0900,
Images/Speaker1.jpg,Images/Speaker2.jpg,Images/Speaker3.jpg,Images/Speaker4.jpg,Audio/Speaker3_Per/P3-13-Per.wav,Speaker3,گوینده۳,1,18,98,52,,,,,65.19677849999971,,,,,,,,,,,,,,,,,,,,,,,,,,,,,,,,,,,,,,,,,,,,,48.83407158299997,0.0,False,48.83425966700088,453494,001,2024-07-03_14h03.22.645,5-all in one,2024.1.4,None,2024-07-03 14h03.27.862570 +0900,
Images/Speaker1.jpg,Images/Speaker2.jpg,Images/Speaker3.jpg,Images/Speaker4.jpg,Audio/Speaker2_Per/P2-14-Per.wav,Speaker2,گوینده۲,1,19,99,33,,,,,65.19677849999971,,,,,,,,,,,,,,,,,,,,,,,,,,,,,,,,,,,,,,,,,,,,,48.84985866700117,0.0,False,48.850077791999865,453494,001,2024-07-03_14h03.22.645,5-all in one,2024.1.4,None,2024-07-03 14h03.27.862570 +0900,
Images/Speaker1.jpg,Images/Speaker2.jpg,Images/Speaker3.jpg,Images/Speaker4.jpg,Audio/Speaker2_Per/P2-7-Per.wav,Speaker2,گوینده۲,1,20,100,26,,,,,65.19677849999971,,,,,,,,,,,,,,,,,,,,,,,,,,,,,,,,,,,,,,,,,,,,,48.86566599999969,0.0,False,48.865843708001194,453494,001,2024-07-03_14h03.22.645,5-all in one,2024.1.4,None,2024-07-03 14h03.27.862570 +0900,
Images/Speaker1.jpg,Images/Speaker2.jpg,Images/Speaker3.jpg,Images/Speaker4.jpg,Audio/Speaker4_Per/P4-11-Per.wav,Speaker4,گوینده۴,1,21,101,70,,,,,65.19677849999971,,,,,,,,,,,,,,,,,,,,,,,,,,,,,,,,,,,,,,,,,,,,,48.88144866699986,0.0,False,48.881641292000495,453494,001,2024-07-03_14h03.22.645,5-all in one,2024.1.4,None,2024-07-03 14h03.27.862570 +0900,
Images/Speaker1.jpg,Images/Speaker2.jpg,Images/Speaker3.jpg,Images/Speaker4.jpg,Audio/Speaker3_Per/P3-6-Per.wav,Speaker3,گوینده۳,1,22,102,45,,,,,65.19677849999971,,,,,,,,,,,,,,,,,,,,,,,,,,,,,,,,,,,,,,,,,,,,,48.897592875000555,0.0,False,48.89778741699956,453494,001,2024-07-03_14h03.22.645,5-all in one,2024.1.4,None,2024-07-03 14h03.27.862570 +0900,
Images/Speaker1.jpg,Images/Speaker2.jpg,Images/Speaker3.jpg,Images/Speaker4.jpg,Audio/Speaker4_Per/P4-5-Per.wav,Speaker4,گوینده۴,1,23,103,64,,,,,65.19677849999971,,,,,,,,,,,,,,,,,,,,,,,,,,,,,,,,,,,,,,,,,,,,,48.91327491700031,0.0,False,48.91343975000018,453494,001,2024-07-03_14h03.22.645,5-all in one,2024.1.4,None,2024-07-03 14h03.27.862570 +0900,
Images/Speaker1.jpg,Images/Speaker2.jpg,Images/Speaker3.jpg,Images/Speaker4.jpg,Audio/Speaker2_Per/P2-1-Per.wav,Speaker2,گوینده۲,1,24,104,20,,,,,65.19677849999971,,,,,,,,,,,,,,,,,,,,,,,,,,,,,,,,,,,,,,,,,,,,,48.92892454200046,0.0,False,48.92911354200078,453494,001,2024-07-03_14h03.22.645,5-all in one,2024.1.4,None,2024-07-03 14h03.27.862570 +0900,
Images/Speaker1.jpg,Images/Speaker2.jpg,Images/Speaker3.jpg,Images/Speaker4.jpg,Audio/Speaker3_Per/P3-17-Per.wav,Speaker3,گوینده۳,1,25,105,56,,,,,65.19677849999971,,,,,,,,,,,,,,,,,,,,,,,,,,,,,,,,,,,,,,,,,,,,,48.94458691699947,0.0,False,48.944784332999916,453494,001,2024-07-03_14h03.22.645,5-all in one,2024.1.4,None,2024-07-03 14h03.27.862570 +0900,
Images/Speaker1.jpg,Images/Speaker2.jpg,Images/Speaker3.jpg,Images/Speaker4.jpg,Audio/Speaker4_Per/P4-15-Per.wav,Speaker4,گوینده۴,1,26,106,74,,,,,65.19677849999971,,,,,,,,,,,,,,,,,,,,,,,,,,,,,,,,,,,,,,,,,,,,,48.960948500000086,0.0,False,48.96110970799964,453494,001,2024-07-03_14h03.22.645,5-all in one,2024.1.4,None,2024-07-03 14h03.27.862570 +0900,
Images/Speaker1.jpg,Images/Speaker2.jpg,Images/Speaker3.jpg,Images/Speaker4.jpg,Audio/Speaker4_Per/P4-10-Per.wav,Speaker4,گوینده۴,1,27,107,69,,,,,65.19677849999971,,,,,,,,,,,,,,,,,,,,,,,,,,,,,,,,,,,,,,,,,,,,,48.97663229200043,0.0,False,48.9768487500005,453494,001,2024-07-03_14h03.22.645,5-all in one,2024.1.4,None,2024-07-03 14h03.27.862570 +0900,
Images/Speaker1.jpg,Images/Speaker2.jpg,Images/Speaker3.jpg,Images/Speaker4.jpg,Audio/Speaker1_Per/P1-3-Per.wav,Speaker1,گوینده ۱,1,28,108,2,,,,,65.19677849999971,,,,,,,,,,,,,,,,,,,,,,,,,,,,,,,,,,,,,,,,,,,,,48.99250250000114,0.0,False,48.99274479199994,453494,001,2024-07-03_14h03.22.645,5-all in one,2024.1.4,None,2024-07-03 14h03.27.862570 +0900,
Images/Speaker1.jpg,Images/Speaker2.jpg,Images/Speaker3.jpg,Images/Speaker4.jpg,Audio/Speaker4_Per/P4-20-Per.wav,Speaker4,گوینده۴,1,29,109,79,,,,,65.19677849999971,,,,,,,,,,,,,,,,,,,,,,,,,,,,,,,,,,,,,,,,,,,,,49.00825820799946,0.0,False,49.00843233300111,453494,001,2024-07-03_14h03.22.645,5-all in one,2024.1.4,None,2024-07-03 14h03.27.862570 +0900,
Images/Speaker1.jpg,Images/Speaker2.jpg,Images/Speaker3.jpg,Images/Speaker4.jpg,Audio/Speaker4_Per/P4-7-Per.wav,Speaker4,گوینده۴,1,30,110,66,,,,,65.19677849999971,,,,,,,,,,,,,,,,,,,,,,,,,,,,,,,,,,,,,,,,,,,,,49.024563917000705,0.0,False,49.02480704200025,453494,001,2024-07-03_14h03.22.645,5-all in one,2024.1.4,None,2024-07-03 14h03.27.862570 +0900,
Images/Speaker1.jpg,Images/Speaker2.jpg,Images/Speaker3.jpg,Images/Speaker4.jpg,Audio/Speaker3_Per/P3-12-Per.wav,Speaker3,گوینده۳,1,31,111,51,,,,,65.19677849999971,,,,,,,,,,,,,,,,,,,,,,,,,,,,,,,,,,,,,,,,,,,,,49.04043929200088,0.0,False,49.04069020799943,453494,001,2024-07-03_14h03.22.645,5-all in one,2024.1.4,None,2024-07-03 14h03.27.862570 +0900,
Images/Speaker1.jpg,Images/Speaker2.jpg,Images/Speaker3.jpg,Images/Speaker4.jpg,Audio/Speaker4_Per/P4-19-Per.wav,Speaker4,گوینده۴,1,32,112,78,,,,,65.19677849999971,,,,,,,,,,,,,,,,,,,,,,,,,,,,,,,,,,,,,,,,,,,,,49.056231542001115,0.0,False,49.05640900000071,453494,001,2024-07-03_14h03.22.645,5-all in one,2024.1.4,None,2024-07-03 14h03.27.862570 +0900,
Images/Speaker1.jpg,Images/Speaker2.jpg,Images/Speaker3.jpg,Images/Speaker4.jpg,Audio/Speaker3_Per/P3-3-Per.wav,Speaker3,گوینده۳,1,33,113,42,,,,,65.19677849999971,,,,,,,,,,,,,,,,,,,,,,,,,,,,,,,,,,,,,,,,,,,,,49.072061582999595,0.0,False,49.07222370800082,453494,001,2024-07-03_14h03.22.645,5-all in one,2024.1.4,None,2024-07-03 14h03.27.862570 +0900,
Images/Speaker1.jpg,Images/Speaker2.jpg,Images/Speaker3.jpg,Images/Speaker4.jpg,Audio/Speaker2_Per/P2-16-Per.wav,Speaker2,گوینده۲,1,34,114,35,,,,,65.19677849999971,,,,,,,,,,,,,,,,,,,,,,,,,,,,,,,,,,,,,,,,,,,,,49.08841841700087,0.0,False,49.08866708300047,453494,001,2024-07-03_14h03.22.645,5-all in one,2024.1.4,None,2024-07-03 14h03.27.862570 +0900,
Images/Speaker1.jpg,Images/Speaker2.jpg,Images/Speaker3.jpg,Images/Speaker4.jpg,Audio/Speaker4_Per/P4-1-Per.wav,Speaker4,گوینده۴,1,35,115,60,,,,,65.19677849999971,,,,,,,,,,,,,,,,,,,,,,,,,,,,,,,,,,,,,,,,,,,,,49.10421687500093,0.0,False,49.10439062499972,453494,001,2024-07-03_14h03.22.645,5-all in one,2024.1.4,None,2024-07-03 14h03.27.862570 +0900,
Images/Speaker1.jpg,Images/Speaker2.jpg,Images/Speaker3.jpg,Images/Speaker4.jpg,Audio/Speaker2_Per/P2-5-Per.wav,Speaker2,گوینده۲,1,36,116,24,,,,,65.19677849999971,,,,,,,,,,,,,,,,,,,,,,,,,,,,,,,,,,,,,,,,,,,,,49.119906042000366,0.0,False,49.120082167000874,453494,001,2024-07-03_14h03.22.645,5-all in one,2024.1.4,None,2024-07-03 14h03.27.862570 +0900,
Images/Speaker1.jpg,Images/Speaker2.jpg,Images/Speaker3.jpg,Images/Speaker4.jpg,Audio/Speaker2_Per/P2-20-Per.wav,Speaker2,گوینده۲,1,37,117,39,,,,,65.19677849999971,,,,,,,,,,,,,,,,,,,,,,,,,,,,,,,,,,,,,,,,,,,,,49.135613833001116,0.0,False,49.135803625000335,453494,001,2024-07-03_14h03.22.645,5-all in one,2024.1.4,None,2024-07-03 14h03.27.862570 +0900,
Images/Speaker1.jpg,Images/Speaker2.jpg,Images/Speaker3.jpg,Images/Speaker4.jpg,Audio/Speaker1_Per/P1-9-Per.wav,Speaker1,گوینده ۱,1,38,118,8,,,,,65.19677849999971,,,,,,,,,,,,,,,,,,,,,,,,,,,,,,,,,,,,,,,,,,,,,49.15201245800017,0.0,False,49.15219616700051,453494,001,2024-07-03_14h03.22.645,5-all in one,2024.1.4,None,2024-07-03 14h03.27.862570 +0900,
Images/Speaker1.jpg,Images/Speaker2.jpg,Images/Speaker3.jpg,Images/Speaker4.jpg,Audio/Speaker4_Per/P4-18-Per.wav,Speaker4,گوینده۴,1,39,119,77,,,,,65.19677849999971,,,,,,,,,,,,,,,,,,,,,,,,,,,,,,,,,,,,,,,,,,,,,49.16779612500068,0.0,False,49.16798570799983,453494,001,2024-07-03_14h03.22.645,5-all in one,2024.1.4,None,2024-07-03 14h03.27.862570 +0900,
Images/Speaker1.jpg,Images/Speaker2.jpg,Images/Speaker3.jpg,Images/Speaker4.jpg,Audio/Speaker3_Per/P3-4-Per.wav,Speaker3,گوینده۳,1,40,120,43,,,,,65.19677849999971,,,,,,,,,,,,,,,,,,,,,,,,,,,,,,,,,,,,,,,,,,,,,49.18369054200048,0.0,False,49.183880250000584,453494,001,2024-07-03_14h03.22.645,5-all in one,2024.1.4,None,2024-07-03 14h03.27.862570 +0900,
Images/Speaker1.jpg,Images/Speaker2.jpg,Images/Speaker3.jpg,Images/Speaker4.jpg,Audio/Speaker4_Per/P4-16-Per.wav,Speaker4,گوینده۴,1,41,121,75,,,,,65.19677849999971,,,,,,,,,,,,,,,,,,,,,,,,,,,,,,,,,,,,,,,,,,,,,49.199556625000696,0.0,False,49.19974833299966,453494,001,2024-07-03_14h03.22.645,5-all in one,2024.1.4,None,2024-07-03 14h03.27.862570 +0900,
Images/Speaker1.jpg,Images/Speaker2.jpg,Images/Speaker3.jpg,Images/Speaker4.jpg,Audio/Speaker1_Per/P1-5-Per.wav,Speaker1,گوینده ۱,1,42,122,4,,,,,65.19677849999971,,,,,,,,,,,,,,,,,,,,,,,,,,,,,,,,,,,,,,,,,,,,,49.215827875001196,0.0,False,49.21604908300105,453494,001,2024-07-03_14h03.22.645,5-all in one,2024.1.4,None,2024-07-03 14h03.27.862570 +0900,
Images/Speaker1.jpg,Images/Speaker2.jpg,Images/Speaker3.jpg,Images/Speaker4.jpg,Audio/Speaker3_Per/P3-5-Per.wav,Speaker3,گوینده۳,1,43,123,44,,,,,65.19677849999971,,,,,,,,,,,,,,,,,,,,,,,,,,,,,,,,,,,,,,,,,,,,,49.231680374999996,0.0,False,49.23190070800047,453494,001,2024-07-03_14h03.22.645,5-all in one,2024.1.4,None,2024-07-03 14h03.27.862570 +0900,
Images/Speaker1.jpg,Images/Speaker2.jpg,Images/Speaker3.jpg,Images/Speaker4.jpg,Audio/Speaker1_Per/P1-12-Per.wav,Speaker1,گوینده ۱,1,44,124,11,,,,,65.19677849999971,,,,,,,,,,,,,,,,,,,,,,,,,,,,,,,,,,,,,,,,,,,,,49.24755595799979,0.0,False,49.247771833001025,453494,001,2024-07-03_14h03.22.645,5-all in one,2024.1.4,None,2024-07-03 14h03.27.862570 +0900,
Images/Speaker1.jpg,Images/Speaker2.jpg,Images/Speaker3.jpg,Images/Speaker4.jpg,Audio/Speaker1_Per/P1-17-Per.wav,Speaker1,گوینده ۱,1,45,125,16,,,,,65.19677849999971,,,,,,,,,,,,,,,,,,,,,,,,,,,,,,,,,,,,,,,,,,,,,49.26322033299948,0.0,False,49.2634018330009,453494,001,2024-07-03_14h03.22.645,5-all in one,2024.1.4,None,2024-07-03 14h03.27.862570 +0900,
Images/Speaker1.jpg,Images/Speaker2.jpg,Images/Speaker3.jpg,Images/Speaker4.jpg,Audio/Speaker4_Per/P4-9-Per.wav,Speaker4,گوینده۴,1,46,126,68,,,,,65.19677849999971,,,,,,,,,,,,,,,,,,,,,,,,,,,,,,,,,,,,,,,,,,,,,49.27963629199985,0.0,False,49.27982491700095,453494,001,2024-07-03_14h03.22.645,5-all in one,2024.1.4,None,2024-07-03 14h03.27.862570 +0900,
Images/Speaker1.jpg,Images/Speaker2.jpg,Images/Speaker3.jpg,Images/Speaker4.jpg,Audio/Speaker2_Per/P2-17-Per.wav,Speaker2,گوینده۲,1,47,127,36,,,,,65.19677849999971,,,,,,,,,,,,,,,,,,,,,,,,,,,,,,,,,,,,,,,,,,,,,49.29533804200037,0.0,False,49.29554283300058,453494,001,2024-07-03_14h03.22.645,5-all in one,2024.1.4,None,2024-07-03 14h03.27.862570 +0900,
Images/Speaker1.jpg,Images/Speaker2.jpg,Images/Speaker3.jpg,Images/Speaker4.jpg,Audio/Speaker4_Per/P4-3-Per.wav,Speaker4,گوینده۴,1,48,128,62,,,,,65.19677849999971,,,,,,,,,,,,,,,,,,,,,,,,,,,,,,,,,,,,,,,,,,,,,49.311043042000165,0.0,False,49.31123466700046,453494,001,2024-07-03_14h03.22.645,5-all in one,2024.1.4,None,2024-07-03 14h03.27.862570 +0900,
Images/Speaker1.jpg,Images/Speaker2.jpg,Images/Speaker3.jpg,Images/Speaker4.jpg,Audio/Speaker2_Per/P2-2-Per.wav,Speaker2,گوینده۲,1,49,129,21,,,,,65.19677849999971,,,,,,,,,,,,,,,,,,,,,,,,,,,,,,,,,,,,,,,,,,,,,49.326794042000984,0.0,False,49.326944500000536,453494,001,2024-07-03_14h03.22.645,5-all in one,2024.1.4,None,2024-07-03 14h03.27.862570 +0900,
Images/Speaker1.jpg,Images/Speaker2.jpg,Images/Speaker3.jpg,Images/Speaker4.jpg,Audio/Speaker2_Per/P2-3-Per.wav,Speaker2,گوینده۲,1,50,130,22,,,,,65.19677849999971,,,,,,,,,,,,,,,,,,,,,,,,,,,,,,,,,,,,,,,,,,,,,49.34296258299946,0.0,False,49.3431355419998,453494,001,2024-07-03_14h03.22.645,5-all in one,2024.1.4,None,2024-07-03 14h03.27.862570 +0900,
Images/Speaker1.jpg,Images/Speaker2.jpg,Images/Speaker3.jpg,Images/Speaker4.jpg,Audio/Speaker1_Per/P1-4-Per.wav,Speaker1,گوینده ۱,1,51,131,13,,,,,65.19677849999971,,,,,,,,,,,,,,,,,,,,,,,,,,,,,,,,,,,,,,,,,,,,,49.358626708000884,0.0,False,49.358868000001166,453494,001,2024-07-03_14h03.22.645,5-all in one,2024.1.4,None,2024-07-03 14h03.27.862570 +0900,
Images/Speaker1.jpg,Images/Speaker2.jpg,Images/Speaker3.jpg,Images/Speaker4.jpg,Audio/Speaker4_Per/P4-8-Per.wav,Speaker4,گوینده۴,1,52,132,67,,,,,65.19677849999971,,,,,,,,,,,,,,,,,,,,,,,,,,,,,,,,,,,,,,,,,,,,,49.37435783299952,0.0,False,49.374532167001234,453494,001,2024-07-03_14h03.22.645,5-all in one,2024.1.4,None,2024-07-03 14h03.27.862570 +0900,
Images/Speaker1.jpg,Images/Speaker2.jpg,Images/Speaker3.jpg,Images/Speaker4.jpg,Audio/Speaker4_Per/P4-2-Per.wav,Speaker4,گوینده۴,1,53,133,61,,,,,65.19677849999971,,,,,,,,,,,,,,,,,,,,,,,,,,,,,,,,,,,,,,,,,,,,,49.39012704200104,0.0,False,49.3903064999995,453494,001,2024-07-03_14h03.22.645,5-all in one,2024.1.4,None,2024-07-03 14h03.27.862570 +0900,
Images/Speaker1.jpg,Images/Speaker2.jpg,Images/Speaker3.jpg,Images/Speaker4.jpg,Audio/Speaker1_Per/P1-10-Per.wav,Speaker1,گوینده ۱,1,54,134,9,,,,,65.19677849999971,,,,,,,,,,,,,,,,,,,,,,,,,,,,,,,,,,,,,,,,,,,,,49.40652516699993,0.0,False,49.40671845799989,453494,001,2024-07-03_14h03.22.645,5-all in one,2024.1.4,None,2024-07-03 14h03.27.862570 +0900,
Images/Speaker1.jpg,Images/Speaker2.jpg,Images/Speaker3.jpg,Images/Speaker4.jpg,Audio/Speaker3_Per/P3-10-Per.wav,Speaker3,گوینده۳,1,55,135,49,,,,,65.19677849999971,,,,,,,,,,,,,,,,,,,,,,,,,,,,,,,,,,,,,,,,,,,,,49.42231320800056,0.0,False,49.42253300000084,453494,001,2024-07-03_14h03.22.645,5-all in one,2024.1.4,None,2024-07-03 14h03.27.862570 +0900,
Images/Speaker1.jpg,Images/Speaker2.jpg,Images/Speaker3.jpg,Images/Speaker4.jpg,Audio/Speaker2_Per/P2-9-Per.wav,Speaker2,گوینده۲,1,56,136,28,,,,,65.19677849999971,,,,,,,,,,,,,,,,,,,,,,,,,,,,,,,,,,,,,,,,,,,,,49.438132917000985,0.0,False,49.43833262500084,453494,001,2024-07-03_14h03.22.645,5-all in one,2024.1.4,None,2024-07-03 14h03.27.862570 +0900,
Images/Speaker1.jpg,Images/Speaker2.jpg,Images/Speaker3.jpg,Images/Speaker4.jpg,Audio/Speaker2_Per/P2-13-Per.wav,Speaker2,گوینده۲,1,57,137,32,,,,,65.19677849999971,,,,,,,,,,,,,,,,,,,,,,,,,,,,,,,,,,,,,,,,,,,,,49.45418595800038,0.0,False,49.454360833000464,453494,001,2024-07-03_14h03.22.645,5-all in one,2024.1.4,None,2024-07-03 14h03.27.862570 +0900,
Images/Speaker1.jpg,Images/Speaker2.jpg,Images/Speaker3.jpg,Images/Speaker4.jpg,Audio/Speaker2_Per/P2-8-Per.wav,Speaker2,گوینده۲,1,58,138,27,,,,,65.19677849999971,,,,,,,,,,,,,,,,,,,,,,,,,,,,,,,,,,,,,,,,,,,,,49.47064237499944,0.0,False,49.47083349999957,453494,001,2024-07-03_14h03.22.645,5-all in one,2024.1.4,None,2024-07-03 14h03.27.862570 +0900,
Images/Speaker1.jpg,Images/Speaker2.jpg,Images/Speaker3.jpg,Images/Speaker4.jpg,Audio/Speaker1_Per/P1-7-Per.wav,Speaker1,گوینده ۱,1,59,139,6,,,,,65.19677849999971,,,,,,,,,,,,,,,,,,,,,,,,,,,,,,,,,,,,,,,,,,,,,49.48644237500048,0.0,False,49.48662966700067,453494,001,2024-07-03_14h03.22.645,5-all in one,2024.1.4,None,2024-07-03 14h03.27.862570 +0900,
Images/Speaker1.jpg,Images/Speaker2.jpg,Images/Speaker3.jpg,Images/Speaker4.jpg,Audio/Speaker3_Per/P3-19-Per.wav,Speaker3,گوینده۳,1,60,140,58,,,,,65.19677849999971,,,,,,,,,,,,,,,,,,,,,,,,,,,,,,,,,,,,,,,,,,,,,49.502263416999995,0.0,False,49.502433292000205,453494,001,2024-07-03_14h03.22.645,5-all in one,2024.1.4,None,2024-07-03 14h03.27.862570 +0900,
Images/Speaker1.jpg,Images/Speaker2.jpg,Images/Speaker3.jpg,Images/Speaker4.jpg,Audio/Speaker1_Per/P1-20-Per.wav,Speaker1,گوینده ۱,1,61,141,19,,,,,65.19677849999971,,,,,,,,,,,,,,,,,,,,,,,,,,,,,,,,,,,,,,,,,,,,,49.517955708000954,0.0,False,49.51817099999971,453494,001,2024-07-03_14h03.22.645,5-all in one,2024.1.4,None,2024-07-03 14h03.27.862570 +0900,
Images/Speaker1.jpg,Images/Speaker2.jpg,Images/Speaker3.jpg,Images/Speaker4.jpg,Audio/Speaker4_Per/P4-6-Per.wav,Speaker4,گوینده۴,1,62,142,65,,,,,65.19677849999971,,,,,,,,,,,,,,,,,,,,,,,,,,,,,,,,,,,,,,,,,,,,,49.53434837500026,0.0,False,49.53451549999954,453494,001,2024-07-03_14h03.22.645,5-all in one,2024.1.4,None,2024-07-03 14h03.27.862570 +0900,
Images/Speaker1.jpg,Images/Speaker2.jpg,Images/Speaker3.jpg,Images/Speaker4.jpg,Audio/Speaker1_Per/P1-4-Per.wav,Speaker1,گوینده ۱,1,63,143,3,,,,,65.19677849999971,,,,,,,,,,,,,,,,,,,,,,,,,,,,,,,,,,,,,,,,,,,,,49.55000220799957,0.0,False,49.550197542001115,453494,001,2024-07-03_14h03.22.645,5-all in one,2024.1.4,None,2024-07-03 14h03.27.862570 +0900,
Images/Speaker1.jpg,Images/Speaker2.jpg,Images/Speaker3.jpg,Images/Speaker4.jpg,Audio/Speaker1_Per/P1-16-Per.wav,Speaker1,گوینده ۱,1,64,144,15,,,,,65.19677849999971,,,,,,,,,,,,,,,,,,,,,,,,,,,,,,,,,,,,,,,,,,,,,49.56557087500005,0.0,False,49.56575675000022,453494,001,2024-07-03_14h03.22.645,5-all in one,2024.1.4,None,2024-07-03 14h03.27.862570 +0900,
Images/Speaker1.jpg,Images/Speaker2.jpg,Images/Speaker3.jpg,Images/Speaker4.jpg,Audio/Speaker2_Per/P2-19-Per.wav,Speaker2,گوینده۲,1,65,145,38,,,,,65.19677849999971,,,,,,,,,,,,,,,,,,,,,,,,,,,,,,,,,,,,,,,,,,,,,49.581320625000444,0.0,False,49.5814931670011,453494,001,2024-07-03_14h03.22.645,5-all in one,2024.1.4,None,2024-07-03 14h03.27.862570 +0900,
Images/Speaker1.jpg,Images/Speaker2.jpg,Images/Speaker3.jpg,Images/Speaker4.jpg,Audio/Speaker3_Per/P3-18-Per.wav,Speaker3,گوینده۳,1,66,146,57,,,,,65.19677849999971,,,,,,,,,,,,,,,,,,,,,,,,,,,,,,,,,,,,,,,,,,,,,49.597712791999584,0.0,False,49.59788208300051,453494,001,2024-07-03_14h03.22.645,5-all in one,2024.1.4,None,2024-07-03 14h03.27.862570 +0900,
Images/Speaker1.jpg,Images/Speaker2.jpg,Images/Speaker3.jpg,Images/Speaker4.jpg,Audio/Speaker2_Per/P2-6-Per.wav,Speaker2,گوینده۲,1,67,147,25,,,,,65.19677849999971,,,,,,,,,,,,,,,,,,,,,,,,,,,,,,,,,,,,,,,,,,,,,49.61336687500079,0.0,False,49.61357641699942,453494,001,2024-07-03_14h03.22.645,5-all in one,2024.1.4,None,2024-07-03 14h03.27.862570 +0900,
Images/Speaker1.jpg,Images/Speaker2.jpg,Images/Speaker3.jpg,Images/Speaker4.jpg,Audio/Speaker1_Per/P1-13-Per.wav,Speaker1,گوینده ۱,1,68,148,12,,,,,65.19677849999971,,,,,,,,,,,,,,,,,,,,,,,,,,,,,,,,,,,,,,,,,,,,,49.629210167000565,0.0,False,49.629402750000736,453494,001,2024-07-03_14h03.22.645,5-all in one,2024.1.4,None,2024-07-03 14h03.27.862570 +0900,
Images/Speaker1.jpg,Images/Speaker2.jpg,Images/Speaker3.jpg,Images/Speaker4.jpg,Audio/Speaker1_Per/P1-15-Per.wav,Speaker1,گوینده ۱,1,69,149,14,,,,,65.19677849999971,,,,,,,,,,,,,,,,,,,,,,,,,,,,,,,,,,,,,,,,,,,,,49.64500404200044,0.0,False,49.645202249999784,453494,001,2024-07-03_14h03.22.645,5-all in one,2024.1.4,None,2024-07-03 14h03.27.862570 +0900,
Images/Speaker1.jpg,Images/Speaker2.jpg,Images/Speaker3.jpg,Images/Speaker4.jpg,Audio/Speaker4_Per/P4-12-Per.wav,Speaker4,گوینده۴,1,70,150,71,,,,,65.19677849999971,,,,,,,,,,,,,,,,,,,,,,,,,,,,,,,,,,,,,,,,,,,,,49.66142641700026,0.0,False,49.66160641700117,453494,001,2024-07-03_14h03.22.645,5-all in one,2024.1.4,None,2024-07-03 14h03.27.862570 +0900,
Images/Speaker1.jpg,Images/Speaker2.jpg,Images/Speaker3.jpg,Images/Speaker4.jpg,Audio/Speaker1_Per/P1-2-Per.wav,Speaker1,گوینده ۱,1,71,151,1,,,,,65.19677849999971,,,,,,,,,,,,,,,,,,,,,,,,,,,,,,,,,,,,,,,,,,,,,49.677146333000564,0.0,False,49.67736458299987,453494,001,2024-07-03_14h03.22.645,5-all in one,2024.1.4,None,2024-07-03 14h03.27.862570 +0900,
Images/Speaker1.jpg,Images/Speaker2.jpg,Images/Speaker3.jpg,Images/Speaker4.jpg,Audio/Speaker3_Per/P3-14-Per.wav,Speaker3,گوینده۳,1,72,152,53,,,,,65.19677849999971,,,,,,,,,,,,,,,,,,,,,,,,,,,,,,,,,,,,,,,,,,,,,49.69287224999971,0.0,False,49.69306529200003,453494,001,2024-07-03_14h03.22.645,5-all in one,2024.1.4,None,2024-07-03 14h03.27.862570 +0900,
Images/Speaker1.jpg,Images/Speaker2.jpg,Images/Speaker3.jpg,Images/Speaker4.jpg,Audio/Speaker1_Per/P1-18-Per.wav,Speaker1,گوینده ۱,1,73,153,17,,,,,65.19677849999971,,,,,,,,,,,,,,,,,,,,,,,,,,,,,,,,,,,,,,,,,,,,,49.70870320799986,0.0,False,49.7089274580012,453494,001,2024-07-03_14h03.22.645,5-all in one,2024.1.4,None,2024-07-03 14h03.27.862570 +0900,
Images/Speaker1.jpg,Images/Speaker2.jpg,Images/Speaker3.jpg,Images/Speaker4.jpg,Audio/Speaker2_Per/P2-10-Per.wav,Speaker2,گوینده۲,1,74,154,29,,,,,65.19677849999971,,,,,,,,,,,,,,,,,,,,,,,,,,,,,,,,,,,,,,,,,,,,,49.725101833000735,0.0,False,49.725289625001096,453494,001,2024-07-03_14h03.22.645,5-all in one,2024.1.4,None,2024-07-03 14h03.27.862570 +0900,
Images/Speaker1.jpg,Images/Speaker2.jpg,Images/Speaker3.jpg,Images/Speaker4.jpg,Audio/Speaker3_Per/P3-7-Per.wav,Speaker3,گوینده۳,1,75,155,46,,,,,65.19677849999971,,,,,,,,,,,,,,,,,,,,,,,,,,,,,,,,,,,,,,,,,,,,,49.74081416700028,0.0,False,49.740995416999795,453494,001,2024-07-03_14h03.22.645,5-all in one,2024.1.4,None,2024-07-03 14h03.27.862570 +0900,
Images/Speaker1.jpg,Images/Speaker2.jpg,Images/Speaker3.jpg,Images/Speaker4.jpg,Audio/Speaker4_Per/P4-14-Per.wav,Speaker4,گوینده۴,1,76,156,73,,,,,65.19677849999971,,,,,,,,,,,,,,,,,,,,,,,,,,,,,,,,,,,,,,,,,,,,,49.75644558299973,0.0,False,49.75662941700102,453494,001,2024-07-03_14h03.22.645,5-all in one,2024.1.4,None,2024-07-03 14h03.27.862570 +0900,
Images/Speaker1.jpg,Images/Speaker2.jpg,Images/Speaker3.jpg,Images/Speaker4.jpg,Audio/Speaker3_Per/P3-16-Per.wav,Speaker3,گوینده۳,1,77,157,55,,,,,65.19677849999971,,,,,,,,,,,,,,,,,,,,,,,,,,,,,,,,,,,,,,,,,,,,,49.77226512500056,0.0,False,49.77243625000119,453494,001,2024-07-03_14h03.22.645,5-all in one,2024.1.4,None,2024-07-03 14h03.27.862570 +0900,
Images/Speaker1.jpg,Images/Speaker2.jpg,Images/Speaker3.jpg,Images/Speaker4.jpg,Audio/Speaker1_Per/P1-19-Per.wav,Speaker1,گوینده ۱,1,78,158,18,,,,,65.19677849999971,,,,,,,,,,,,,,,,,,,,,,,,,,,,,,,,,,,,,,,,,,,,,49.788535333000254,0.0,False,49.78867983300006,453494,001,2024-07-03_14h03.22.645,5-all in one,2024.1.4,None,2024-07-03 14h03.27.862570 +0900,
Images/Speaker1.jpg,Images/Speaker2.jpg,Images/Speaker3.jpg,Images/Speaker4.jpg,Audio/Speaker4_Per/P4-4-Per.wav,Speaker4,گوینده۴,1,79,159,63,,,,,65.19677849999971,,,,,,,,,,,,,,,,,,,,,,,,,,,,,,,,,,,,,,,,,,,,,49.80435245800072,0.0,False,49.804535499999474,453494,001,2024-07-03_14h03.22.645,5-all in one,2024.1.4,None,2024-07-03 14h03.27.862570 +0900,
Images/Speaker1.jpg,Images/Speaker2.jpg,Images/Speaker3.jpg,Images/Speaker4.jpg,Audio/Speaker4_Per/P4-11-Per.wav,Speaker4,گوینده۴,2,0,160,70,,,,,65.19677849999971,,,,,,,,,,,,,,,,,,,,,,,,,,,,,,,,,,,,,,,,,,,,,49.82008491700071,0.0,False,49.820272750001095,453494,001,2024-07-03_14h03.22.645,5-all in one,2024.1.4,None,2024-07-03 14h03.27.862570 +0900,
Images/Speaker1.jpg,Images/Speaker2.jpg,Images/Speaker3.jpg,Images/Speaker4.jpg,Audio/Speaker4_Per/P4-17-Per.wav,Speaker4,گوینده۴,2,1,161,76,,,,,65.19677849999971,,,,,,,,,,,,,,,,,,,,,,,,,,,,,,,,,,,,,,,,,,,,,49.835827458000495,0.0,False,49.836018666999735,453494,001,2024-07-03_14h03.22.645,5-all in one,2024.1.4,None,2024-07-03 14h03.27.862570 +0900,
Images/Speaker1.jpg,Images/Speaker2.jpg,Images/Speaker3.jpg,Images/Speaker4.jpg,Audio/Speaker3_Per/P3-4-Per.wav,Speaker3,گوینده۳,2,2,162,43,,,,,65.19677849999971,,,,,,,,,,,,,,,,,,,,,,,,,,,,,,,,,,,,,,,,,,,,,49.852374292000604,0.0,False,49.85256049999953,453494,001,2024-07-03_14h03.22.645,5-all in one,2024.1.4,None,2024-07-03 14h03.27.862570 +0900,
Images/Speaker1.jpg,Images/Speaker2.jpg,Images/Speaker3.jpg,Images/Speaker4.jpg,Audio/Speaker4_Per/P4-20-Per.wav,Speaker4,گوینده۴,2,3,163,79,,,,,65.19677849999971,,,,,,,,,,,,,,,,,,,,,,,,,,,,,,,,,,,,,,,,,,,,,49.86812954200104,0.0,False,49.86831945800077,453494,001,2024-07-03_14h03.22.645,5-all in one,2024.1.4,None,2024-07-03 14h03.27.862570 +0900,
Images/Speaker1.jpg,Images/Speaker2.jpg,Images/Speaker3.jpg,Images/Speaker4.jpg,Audio/Speaker2_Per/P2-5-Per.wav,Speaker2,گوینده۲,2,4,164,24,,,,,65.19677849999971,,,,,,,,,,,,,,,,,,,,,,,,,,,,,,,,,,,,,,,,,,,,,49.88378854199982,0.0,False,49.883988542000225,453494,001,2024-07-03_14h03.22.645,5-all in one,2024.1.4,None,2024-07-03 14h03.27.862570 +0900,
Images/Speaker1.jpg,Images/Speaker2.jpg,Images/Speaker3.jpg,Images/Speaker4.jpg,Audio/Speaker3_Per/P3-7-Per.wav,Speaker3,گوینده۳,2,5,165,46,,,,,65.19677849999971,,,,,,,,,,,,,,,,,,,,,,,,,,,,,,,,,,,,,,,,,,,,,49.89964066700122,0.0,False,49.89988445800009,453494,001,2024-07-03_14h03.22.645,5-all in one,2024.1.4,None,2024-07-03 14h03.27.862570 +0900,
Images/Speaker1.jpg,Images/Speaker2.jpg,Images/Speaker3.jpg,Images/Speaker4.jpg,Audio/Speaker4_Per/P4-9-Per.wav,Speaker4,گوینده۴,2,6,166,68,,,,,65.19677849999971,,,,,,,,,,,,,,,,,,,,,,,,,,,,,,,,,,,,,,,,,,,,,49.91637429200091,0.0,False,49.91658804200051,453494,001,2024-07-03_14h03.22.645,5-all in one,2024.1.4,None,2024-07-03 14h03.27.862570 +0900,
Images/Speaker1.jpg,Images/Speaker2.jpg,Images/Speaker3.jpg,Images/Speaker4.jpg,Audio/Speaker3_Per/P3-18-Per.wav,Speaker3,گوینده۳,2,7,167,57,,,,,65.19677849999971,,,,,,,,,,,,,,,,,,,,,,,,,,,,,,,,,,,,,,,,,,,,,49.932222292000006,0.0,False,49.932388917000935,453494,001,2024-07-03_14h03.22.645,5-all in one,2024.1.4,None,2024-07-03 14h03.27.862570 +0900,
Images/Speaker1.jpg,Images/Speaker2.jpg,Images/Speaker3.jpg,Images/Speaker4.jpg,Audio/Speaker2_Per/P2-8-Per.wav,Speaker2,گوینده۲,2,8,168,27,,,,,65.19677849999971,,,,,,,,,,,,,,,,,,,,,,,,,,,,,,,,,,,,,,,,,,,,,49.947923583000374,0.0,False,49.94811045800088,453494,001,2024-07-03_14h03.22.645,5-all in one,2024.1.4,None,2024-07-03 14h03.27.862570 +0900,
Images/Speaker1.jpg,Images/Speaker2.jpg,Images/Speaker3.jpg,Images/Speaker4.jpg,Audio/Speaker4_Per/P4-18-Per.wav,Speaker4,گوینده۴,2,9,169,77,,,,,65.19677849999971,,,,,,,,,,,,,,,,,,,,,,,,,,,,,,,,,,,,,,,,,,,,,49.96362320800108,0.0,False,49.96387579200018,453494,001,2024-07-03_14h03.22.645,5-all in one,2024.1.4,None,2024-07-03 14h03.27.862570 +0900,
Images/Speaker1.jpg,Images/Speaker2.jpg,Images/Speaker3.jpg,Images/Speaker4.jpg,Audio/Speaker1_Per/P1-15-Per.wav,Speaker1,گوینده ۱,2,10,170,14,,,,,65.19677849999971,,,,,,,,,,,,,,,,,,,,,,,,,,,,,,,,,,,,,,,,,,,,,49.98002783300035,0.0,False,49.980219125000076,453494,001,2024-07-03_14h03.22.645,5-all in one,2024.1.4,None,2024-07-03 14h03.27.862570 +0900,
Images/Speaker1.jpg,Images/Speaker2.jpg,Images/Speaker3.jpg,Images/Speaker4.jpg,Audio/Speaker3_Per/P3-6-Per.wav,Speaker3,گوینده۳,2,11,171,45,,,,,65.19677849999971,,,,,,,,,,,,,,,,,,,,,,,,,,,,,,,,,,,,,,,,,,,,,49.99562120799965,0.0,False,49.9958237080009,453494,001,2024-07-03_14h03.22.645,5-all in one,2024.1.4,None,2024-07-03 14h03.27.862570 +0900,
Images/Speaker1.jpg,Images/Speaker2.jpg,Images/Speaker3.jpg,Images/Speaker4.jpg,Audio/Speaker2_Per/P2-9-Per.wav,Speaker2,گوینده۲,2,12,172,28,,,,,65.19677849999971,,,,,,,,,,,,,,,,,,,,,,,,,,,,,,,,,,,,,,,,,,,,,50.01125720799973,0.0,False,50.01144487500096,453494,001,2024-07-03_14h03.22.645,5-all in one,2024.1.4,None,2024-07-03 14h03.27.862570 +0900,
Images/Speaker1.jpg,Images/Speaker2.jpg,Images/Speaker3.jpg,Images/Speaker4.jpg,Audio/Speaker3_Per/P3-16-Per.wav,Speaker3,گوینده۳,2,13,173,55,,,,,65.19677849999971,,,,,,,,,,,,,,,,,,,,,,,,,,,,,,,,,,,,,,,,,,,,,50.026897625000856,0.0,False,50.027073749999545,453494,001,2024-07-03_14h03.22.645,5-all in one,2024.1.4,None,2024-07-03 14h03.27.862570 +0900,
Images/Speaker1.jpg,Images/Speaker2.jpg,Images/Speaker3.jpg,Images/Speaker4.jpg,Audio/Speaker1_Per/P1-6-Per.wav,Speaker1,گوینده ۱,2,14,174,5,,,,,65.19677849999971,,,,,,,,,,,,,,,,,,,,,,,,,,,,,,,,,,,,,,,,,,,,,50.04321549999986,0.0,False,50.043386332999944,453494,001,2024-07-03_14h03.22.645,5-all in one,2024.1.4,None,2024-07-03 14h03.27.862570 +0900,
Images/Speaker1.jpg,Images/Speaker2.jpg,Images/Speaker3.jpg,Images/Speaker4.jpg,Audio/Speaker3_Per/P3-17-Per.wav,Speaker3,گوینده۳,2,15,175,56,,,,,65.19677849999971,,,,,,,,,,,,,,,,,,,,,,,,,,,,,,,,,,,,,,,,,,,,,50.058960374999515,0.0,False,50.0591482079999,453494,001,2024-07-03_14h03.22.645,5-all in one,2024.1.4,None,2024-07-03 14h03.27.862570 +0900,
Images/Speaker1.jpg,Images/Speaker2.jpg,Images/Speaker3.jpg,Images/Speaker4.jpg,Audio/Speaker3_Per/P3-14-Per.wav,Speaker3,گوینده۳,2,16,176,53,,,,,65.19677849999971,,,,,,,,,,,,,,,,,,,,,,,,,,,,,,,,,,,,,,,,,,,,,50.074645042001066,0.0,False,50.07481262500005,453494,001,2024-07-03_14h03.22.645,5-all in one,2024.1.4,None,2024-07-03 14h03.27.862570 +0900,
Images/Speaker1.jpg,Images/Speaker2.jpg,Images/Speaker3.jpg,Images/Speaker4.jpg,Audio/Speaker2_Per/P2-17-Per.wav,Speaker2,گوینده۲,2,17,177,36,,,,,65.19677849999971,,,,,,,,,,,,,,,,,,,,,,,,,,,,,,,,,,,,,,,,,,,,,50.09032599999955,0.0,False,50.09053387499989,453494,001,2024-07-03_14h03.22.645,5-all in one,2024.1.4,None,2024-07-03 14h03.27.862570 +0900,
Images/Speaker1.jpg,Images/Speaker2.jpg,Images/Speaker3.jpg,Images/Speaker4.jpg,Audio/Speaker1_Per/P1-1-Per.wav,Speaker1,گوینده ۱,2,18,178,0,,,,,65.19677849999971,,,,,,,,,,,,,,,,,,,,,,,,,,,,,,,,,,,,,,,,,,,,,50.106668792001074,0.0,False,50.10684920800122,453494,001,2024-07-03_14h03.22.645,5-all in one,2024.1.4,None,2024-07-03 14h03.27.862570 +0900,
Images/Speaker1.jpg,Images/Speaker2.jpg,Images/Speaker3.jpg,Images/Speaker4.jpg,Audio/Speaker2_Per/P2-10-Per.wav,Speaker2,گوینده۲,2,19,179,29,,,,,65.19677849999971,,,,,,,,,,,,,,,,,,,,,,,,,,,,,,,,,,,,,,,,,,,,,50.122615917000076,0.0,False,50.12284720800017,453494,001,2024-07-03_14h03.22.645,5-all in one,2024.1.4,None,2024-07-03 14h03.27.862570 +0900,
Images/Speaker1.jpg,Images/Speaker2.jpg,Images/Speaker3.jpg,Images/Speaker4.jpg,Audio/Speaker3_Per/P3-15-Per.wav,Speaker3,گوینده۳,2,20,180,54,,,,,65.19677849999971,,,,,,,,,,,,,,,,,,,,,,,,,,,,,,,,,,,,,,,,,,,,,50.138409082999715,0.0,False,50.1386090420001,453494,001,2024-07-03_14h03.22.645,5-all in one,2024.1.4,None,2024-07-03 14h03.27.862570 +0900,
Images/Speaker1.jpg,Images/Speaker2.jpg,Images/Speaker3.jpg,Images/Speaker4.jpg,Audio/Speaker3_Per/P3-11-Per.wav,Speaker3,گوینده۳,2,21,181,50,,,,,65.19677849999971,,,,,,,,,,,,,,,,,,,,,,,,,,,,,,,,,,,,,,,,,,,,,50.15424304199951,0.0,False,50.15439004200016,453494,001,2024-07-03_14h03.22.645,5-all in one,2024.1.4,None,2024-07-03 14h03.27.862570 +0900,
Images/Speaker1.jpg,Images/Speaker2.jpg,Images/Speaker3.jpg,Images/Speaker4.jpg,Audio/Speaker4_Per/P4-1-Per.wav,Speaker4,گوینده۴,2,22,182,60,,,,,65.19677849999971,,,,,,,,,,,,,,,,,,,,,,,,,,,,,,,,,,,,,,,,,,,,,50.170555292001154,0.0,False,50.170724042000074,453494,001,2024-07-03_14h03.22.645,5-all in one,2024.1.4,None,2024-07-03 14h03.27.862570 +0900,
Images/Speaker1.jpg,Images/Speaker2.jpg,Images/Speaker3.jpg,Images/Speaker4.jpg,Audio/Speaker4_Per/P4-2-Per.wav,Speaker4,گوینده۴,2,23,183,61,,,,,65.19677849999971,,,,,,,,,,,,,,,,,,,,,,,,,,,,,,,,,,,,,,,,,,,,,50.18640120800046,0.0,False,50.18657241700021,453494,001,2024-07-03_14h03.22.645,5-all in one,2024.1.4,None,2024-07-03 14h03.27.862570 +0900,
Images/Speaker1.jpg,Images/Speaker2.jpg,Images/Speaker3.jpg,Images/Speaker4.jpg,Audio/Speaker1_Per/P1-2-Per.wav,Speaker1,گوینده ۱,2,24,184,1,,,,,65.19677849999971,,,,,,,,,,,,,,,,,,,,,,,,,,,,,,,,,,,,,,,,,,,,,50.2019860420005,0.0,False,50.20220012500067,453494,001,2024-07-03_14h03.22.645,5-all in one,2024.1.4,None,2024-07-03 14h03.27.862570 +0900,
Images/Speaker1.jpg,Images/Speaker2.jpg,Images/Speaker3.jpg,Images/Speaker4.jpg,Audio/Speaker4_Per/P4-5-Per.wav,Speaker4,گوینده۴,2,25,185,64,,,,,65.19677849999971,,,,,,,,,,,,,,,,,,,,,,,,,,,,,,,,,,,,,,,,,,,,,50.21765854200021,0.0,False,50.21786787500059,453494,001,2024-07-03_14h03.22.645,5-all in one,2024.1.4,None,2024-07-03 14h03.27.862570 +0900,
Images/Speaker1.jpg,Images/Speaker2.jpg,Images/Speaker3.jpg,Images/Speaker4.jpg,Audio/Speaker4_Per/P4-14-Per.wav,Speaker4,گوینده۴,2,26,186,73,,,,,65.19677849999971,,,,,,,,,,,,,,,,,,,,,,,,,,,,,,,,,,,,,,,,,,,,,50.23406375000013,0.0,False,50.234237500000745,453494,001,2024-07-03_14h03.22.645,5-all in one,2024.1.4,None,2024-07-03 14h03.27.862570 +0900,
Images/Speaker1.jpg,Images/Speaker2.jpg,Images/Speaker3.jpg,Images/Speaker4.jpg,Audio/Speaker1_Per/P1-10-Per.wav,Speaker1,گوینده ۱,2,27,187,9,,,,,65.19677849999971,,,,,,,,,,,,,,,,,,,,,,,,,,,,,,,,,,,,,,,,,,,,,50.24980679200053,0.0,False,50.24996325000029,453494,001,2024-07-03_14h03.22.645,5-all in one,2024.1.4,None,2024-07-03 14h03.27.862570 +0900,
Images/Speaker1.jpg,Images/Speaker2.jpg,Images/Speaker3.jpg,Images/Speaker4.jpg,Audio/Speaker3_Per/P3-12-Per.wav,Speaker3,گوینده۳,2,28,188,51,,,,,65.19677849999971,,,,,,,,,,,,,,,,,,,,,,,,,,,,,,,,,,,,,,,,,,,,,50.26569633300096,0.0,False,50.2659361670012,453494,001,2024-07-03_14h03.22.645,5-all in one,2024.1.4,None,2024-07-03 14h03.27.862570 +0900,
Images/Speaker1.jpg,Images/Speaker2.jpg,Images/Speaker3.jpg,Images/Speaker4.jpg,Audio/Speaker1_Per/P1-16-Per.wav,Speaker1,گوینده ۱,2,29,189,15,,,,,65.19677849999971,,,,,,,,,,,,,,,,,,,,,,,,,,,,,,,,,,,,,,,,,,,,,50.28147820800041,0.0,False,50.28166600000077,453494,001,2024-07-03_14h03.22.645,5-all in one,2024.1.4,None,2024-07-03 14h03.27.862570 +0900,
Images/Speaker1.jpg,Images/Speaker2.jpg,Images/Speaker3.jpg,Images/Speaker4.jpg,Audio/Speaker1_Per/P1-11-Per.wav,Speaker1,گوینده ۱,2,30,190,10,,,,,65.19677849999971,,,,,,,,,,,,,,,,,,,,,,,,,,,,,,,,,,,,,,,,,,,,,50.29781245800041,0.0,False,50.298015292000855,453494,001,2024-07-03_14h03.22.645,5-all in one,2024.1.4,None,2024-07-03 14h03.27.862570 +0900,
Images/Speaker1.jpg,Images/Speaker2.jpg,Images/Speaker3.jpg,Images/Speaker4.jpg,Audio/Speaker4_Per/P4-8-Per.wav,Speaker4,گوینده۴,2,31,191,67,,,,,65.19677849999971,,,,,,,,,,,,,,,,,,,,,,,,,,,,,,,,,,,,,,,,,,,,,50.31350825000118,0.0,False,50.313698542000566,453494,001,2024-07-03_14h03.22.645,5-all in one,2024.1.4,None,2024-07-03 14h03.27.862570 +0900,
Images/Speaker1.jpg,Images/Speaker2.jpg,Images/Speaker3.jpg,Images/Speaker4.jpg,Audio/Speaker4_Per/P4-19-Per.wav,Speaker4,گوینده۴,2,32,192,78,,,,,65.19677849999971,,,,,,,,,,,,,,,,,,,,,,,,,,,,,,,,,,,,,,,,,,,,,50.32934795800065,0.0,False,50.32959954200123,453494,001,2024-07-03_14h03.22.645,5-all in one,2024.1.4,None,2024-07-03 14h03.27.862570 +0900,
Images/Speaker1.jpg,Images/Speaker2.jpg,Images/Speaker3.jpg,Images/Speaker4.jpg,Audio/Speaker4_Per/P4-12-Per.wav,Speaker4,گوینده۴,2,33,193,71,,,,,65.19677849999971,,,,,,,,,,,,,,,,,,,,,,,,,,,,,,,,,,,,,,,,,,,,,50.345131874999424,0.0,False,50.34530979200099,453494,001,2024-07-03_14h03.22.645,5-all in one,2024.1.4,None,2024-07-03 14h03.27.862570 +0900,
Images/Speaker1.jpg,Images/Speaker2.jpg,Images/Speaker3.jpg,Images/Speaker4.jpg,Audio/Speaker2_Per/P2-1-Per.wav,Speaker2,گوینده۲,2,34,194,20,,,,,65.19677849999971,,,,,,,,,,,,,,,,,,,,,,,,,,,,,,,,,,,,,,,,,,,,,50.361450917000184,0.0,False,50.36163554199993,453494,001,2024-07-03_14h03.22.645,5-all in one,2024.1.4,None,2024-07-03 14h03.27.862570 +0900,
Images/Speaker1.jpg,Images/Speaker2.jpg,Images/Speaker3.jpg,Images/Speaker4.jpg,Audio/Speaker4_Per/P4-4-Per.wav,Speaker4,گوینده۴,2,35,195,63,,,,,65.19677849999971,,,,,,,,,,,,,,,,,,,,,,,,,,,,,,,,,,,,,,,,,,,,,50.37723349999942,0.0,False,50.377420750000965,453494,001,2024-07-03_14h03.22.645,5-all in one,2024.1.4,None,2024-07-03 14h03.27.862570 +0900,
Images/Speaker1.jpg,Images/Speaker2.jpg,Images/Speaker3.jpg,Images/Speaker4.jpg,Audio/Speaker2_Per/P2-18-Per.wav,Speaker2,گوینده۲,2,36,196,37,,,,,65.19677849999971,,,,,,,,,,,,,,,,,,,,,,,,,,,,,,,,,,,,,,,,,,,,,50.39288699999997,0.0,False,50.39304479200109,453494,001,2024-07-03_14h03.22.645,5-all in one,2024.1.4,None,2024-07-03 14h03.27.862570 +0900,
Images/Speaker1.jpg,Images/Speaker2.jpg,Images/Speaker3.jpg,Images/Speaker4.jpg,Audio/Speaker2_Per/P2-19-Per.wav,Speaker2,گوینده۲,2,37,197,38,,,,,65.19677849999971,,,,,,,,,,,,,,,,,,,,,,,,,,,,,,,,,,,,,,,,,,,,,50.40854854200006,0.0,False,50.4087801250007,453494,001,2024-07-03_14h03.22.645,5-all in one,2024.1.4,None,2024-07-03 14h03.27.862570 +0900,
Images/Speaker1.jpg,Images/Speaker2.jpg,Images/Speaker3.jpg,Images/Speaker4.jpg,Audio/Speaker4_Per/P4-13-Per.wav,Speaker4,گوینده۴,2,38,198,72,,,,,65.19677849999971,,,,,,,,,,,,,,,,,,,,,,,,,,,,,,,,,,,,,,,,,,,,,50.42497366700081,0.0,False,50.42515595800069,453494,001,2024-07-03_14h03.22.645,5-all in one,2024.1.4,None,2024-07-03 14h03.27.862570 +0900,
Images/Speaker1.jpg,Images/Speaker2.jpg,Images/Speaker3.jpg,Images/Speaker4.jpg,Audio/Speaker1_Per/P1-7-Per.wav,Speaker1,گوینده ۱,2,39,199,6,,,,,65.19677849999971,,,,,,,,,,,,,,,,,,,,,,,,,,,,,,,,,,,,,,,,,,,,,50.440692166999725,0.0,False,50.44086508300097,453494,001,2024-07-03_14h03.22.645,5-all in one,2024.1.4,None,2024-07-03 14h03.27.862570 +0900,
Images/Speaker1.jpg,Images/Speaker2.jpg,Images/Speaker3.jpg,Images/Speaker4.jpg,Audio/Speaker1_Per/P1-5-Per.wav,Speaker1,گوینده ۱,2,40,200,4,,,,,65.19677849999971,,,,,,,,,,,,,,,,,,,,,,,,,,,,,,,,,,,,,,,,,,,,,50.456335124999896,0.0,False,50.45653633300026,453494,001,2024-07-03_14h03.22.645,5-all in one,2024.1.4,None,2024-07-03 14h03.27.862570 +0900,
Images/Speaker1.jpg,Images/Speaker2.jpg,Images/Speaker3.jpg,Images/Speaker4.jpg,Audio/Speaker4_Per/P4-16-Per.wav,Speaker4,گوینده۴,2,41,201,75,,,,,65.19677849999971,,,,,,,,,,,,,,,,,,,,,,,,,,,,,,,,,,,,,,,,,,,,,50.472254583000904,0.0,False,50.47249508300047,453494,001,2024-07-03_14h03.22.645,5-all in one,2024.1.4,None,2024-07-03 14h03.27.862570 +0900,
Images/Speaker1.jpg,Images/Speaker2.jpg,Images/Speaker3.jpg,Images/Speaker4.jpg,Audio/Speaker2_Per/P2-2-Per.wav,Speaker2,گوینده۲,2,42,202,21,,,,,65.19677849999971,,,,,,,,,,,,,,,,,,,,,,,,,,,,,,,,,,,,,,,,,,,,,50.48874362500101,0.0,False,50.48893562500052,453494,001,2024-07-03_14h03.22.645,5-all in one,2024.1.4,None,2024-07-03 14h03.27.862570 +0900,
Images/Speaker1.jpg,Images/Speaker2.jpg,Images/Speaker3.jpg,Images/Speaker4.jpg,Audio/Speaker4_Per/P4-6-Per.wav,Speaker4,گوینده۴,2,43,203,65,,,,,65.19677849999971,,,,,,,,,,,,,,,,,,,,,,,,,,,,,,,,,,,,,,,,,,,,,50.504498542000874,0.0,False,50.50465487499969,453494,001,2024-07-03_14h03.22.645,5-all in one,2024.1.4,None,2024-07-03 14h03.27.862570 +0900,
Images/Speaker1.jpg,Images/Speaker2.jpg,Images/Speaker3.jpg,Images/Speaker4.jpg,Audio/Speaker3_Per/P3-8-Per.wav,Speaker3,گوینده۳,2,44,204,47,,,,,65.19677849999971,,,,,,,,,,,,,,,,,,,,,,,,,,,,,,,,,,,,,,,,,,,,,50.52023504200042,0.0,False,50.520429375001186,453494,001,2024-07-03_14h03.22.645,5-all in one,2024.1.4,None,2024-07-03 14h03.27.862570 +0900,
Images/Speaker1.jpg,Images/Speaker2.jpg,Images/Speaker3.jpg,Images/Speaker4.jpg,Audio/Speaker1_Per/P1-8-Per.wav,Speaker1,گوینده ۱,2,45,205,7,,,,,65.19677849999971,,,,,,,,,,,,,,,,,,,,,,,,,,,,,,,,,,,,,,,,,,,,,50.535903457999666,0.0,False,50.5360856669995,453494,001,2024-07-03_14h03.22.645,5-all in one,2024.1.4,None,2024-07-03 14h03.27.862570 +0900,
Images/Speaker1.jpg,Images/Speaker2.jpg,Images/Speaker3.jpg,Images/Speaker4.jpg,Audio/Speaker2_Per/P2-6-Per.wav,Speaker2,گوینده۲,2,46,206,25,,,,,65.19677849999971,,,,,,,,,,,,,,,,,,,,,,,,,,,,,,,,,,,,,,,,,,,,,50.5522246670007,0.0,False,50.552419333000216,453494,001,2024-07-03_14h03.22.645,5-all in one,2024.1.4,None,2024-07-03 14h03.27.862570 +0900,
Images/Speaker1.jpg,Images/Speaker2.jpg,Images/Speaker3.jpg,Images/Speaker4.jpg,Audio/Speaker1_Per/P1-12-Per.wav,Speaker1,گوینده ۱,2,47,207,11,,,,,65.19677849999971,,,,,,,,,,,,,,,,,,,,,,,,,,,,,,,,,,,,,,,,,,,,,50.56794079199972,0.0,False,50.568139291999614,453494,001,2024-07-03_14h03.22.645,5-all in one,2024.1.4,None,2024-07-03 14h03.27.862570 +0900,
Images/Speaker1.jpg,Images/Speaker2.jpg,Images/Speaker3.jpg,Images/Speaker4.jpg,Audio/Speaker3_Per/P3-2-Per.wav,Speaker3,گوینده۳,2,48,208,41,,,,,65.19677849999971,,,,,,,,,,,,,,,,,,,,,,,,,,,,,,,,,,,,,,,,,,,,,50.58406270799969,0.0,False,50.584260542000266,453494,001,2024-07-03_14h03.22.645,5-all in one,2024.1.4,None,2024-07-03 14h03.27.862570 +0900,
Images/Speaker1.jpg,Images/Speaker2.jpg,Images/Speaker3.jpg,Images/Speaker4.jpg,Audio/Speaker1_Per/P1-20-Per.wav,Speaker1,گوینده ۱,2,49,209,19,,,,,65.19677849999971,,,,,,,,,,,,,,,,,,,,,,,,,,,,,,,,,,,,,,,,,,,,,50.59972150000067,0.0,False,50.59991304200048,453494,001,2024-07-03_14h03.22.645,5-all in one,2024.1.4,None,2024-07-03 14h03.27.862570 +0900,
Images/Speaker1.jpg,Images/Speaker2.jpg,Images/Speaker3.jpg,Images/Speaker4.jpg,Audio/Speaker2_Per/P2-14-Per.wav,Speaker2,گوینده۲,2,50,210,33,,,,,65.19677849999971,,,,,,,,,,,,,,,,,,,,,,,,,,,,,,,,,,,,,,,,,,,,,50.616090542000165,0.0,False,50.61628562500118,453494,001,2024-07-03_14h03.22.645,5-all in one,2024.1.4,None,2024-07-03 14h03.27.862570 +0900,
Images/Speaker1.jpg,Images/Speaker2.jpg,Images/Speaker3.jpg,Images/Speaker4.jpg,Audio/Speaker1_Per/P1-4-Per.wav,Speaker1,گوینده ۱,2,51,211,13,,,,,65.19677849999971,,,,,,,,,,,,,,,,,,,,,,,,,,,,,,,,,,,,,,,,,,,,,50.63184516699948,0.0,False,50.63205766700048,453494,001,2024-07-03_14h03.22.645,5-all in one,2024.1.4,None,2024-07-03 14h03.27.862570 +0900,
Images/Speaker1.jpg,Images/Speaker2.jpg,Images/Speaker3.jpg,Images/Speaker4.jpg,Audio/Speaker3_Per/P3-10-Per.wav,Speaker3,گوینده۳,2,52,212,49,,,,,65.19677849999971,,,,,,,,,,,,,,,,,,,,,,,,,,,,,,,,,,,,,,,,,,,,,50.647666791999654,0.0,False,50.64785020800082,453494,001,2024-07-03_14h03.22.645,5-all in one,2024.1.4,None,2024-07-03 14h03.27.862570 +0900,
Images/Speaker1.jpg,Images/Speaker2.jpg,Images/Speaker3.jpg,Images/Speaker4.jpg,Audio/Speaker1_Per/P1-4-Per.wav,Speaker1,گوینده ۱,2,53,213,3,,,,,65.19677849999971,,,,,,,,,,,,,,,,,,,,,,,,,,,,,,,,,,,,,,,,,,,,,50.66339720799988,0.0,False,50.66363604199978,453494,001,2024-07-03_14h03.22.645,5-all in one,2024.1.4,None,2024-07-03 14h03.27.862570 +0900,
Images/Speaker1.jpg,Images/Speaker2.jpg,Images/Speaker3.jpg,Images/Speaker4.jpg,Audio/Speaker1_Per/P1-3-Per.wav,Speaker1,گوینده ۱,2,54,214,2,,,,,65.19677849999971,,,,,,,,,,,,,,,,,,,,,,,,,,,,,,,,,,,,,,,,,,,,,50.679949208000835,0.0,False,50.680136167000455,453494,001,2024-07-03_14h03.22.645,5-all in one,2024.1.4,None,2024-07-03 14h03.27.862570 +0900,
Images/Speaker1.jpg,Images/Speaker2.jpg,Images/Speaker3.jpg,Images/Speaker4.jpg,Audio/Speaker2_Per/P2-13-Per.wav,Speaker2,گوینده۲,2,55,215,32,,,,,65.19677849999971,,,,,,,,,,,,,,,,,,,,,,,,,,,,,,,,,,,,,,,,,,,,,50.69570075000047,0.0,False,50.69587904199943,453494,001,2024-07-03_14h03.22.645,5-all in one,2024.1.4,None,2024-07-03 14h03.27.862570 +0900,
Images/Speaker1.jpg,Images/Speaker2.jpg,Images/Speaker3.jpg,Images/Speaker4.jpg,Audio/Speaker3_Per/P3-3-Per.wav,Speaker3,گوینده۳,2,56,216,42,,,,,65.19677849999971,,,,,,,,,,,,,,,,,,,,,,,,,,,,,,,,,,,,,,,,,,,,,50.71143604200006,0.0,False,50.71163337500002,453494,001,2024-07-03_14h03.22.645,5-all in one,2024.1.4,None,2024-07-03 14h03.27.862570 +0900,
Images/Speaker1.jpg,Images/Speaker2.jpg,Images/Speaker3.jpg,Images/Speaker4.jpg,Audio/Speaker4_Per/P4-3-Per.wav,Speaker4,گوینده۴,2,57,217,62,,,,,65.19677849999971,,,,,,,,,,,,,,,,,,,,,,,,,,,,,,,,,,,,,,,,,,,,,50.72713145800117,0.0,False,50.72732391700083,453494,001,2024-07-03_14h03.22.645,5-all in one,2024.1.4,None,2024-07-03 14h03.27.862570 +0900,
Images/Speaker1.jpg,Images/Speaker2.jpg,Images/Speaker3.jpg,Images/Speaker4.jpg,Audio/Speaker2_Per/P2-3-Per.wav,Speaker2,گوینده۲,2,58,218,22,,,,,65.19677849999971,,,,,,,,,,,,,,,,,,,,,,,,,,,,,,,,,,,,,,,,,,,,,50.74352129200088,0.0,False,50.743695208000645,453494,001,2024-07-03_14h03.22.645,5-all in one,2024.1.4,None,2024-07-03 14h03.27.862570 +0900,
Images/Speaker1.jpg,Images/Speaker2.jpg,Images/Speaker3.jpg,Images/Speaker4.jpg,Audio/Speaker2_Per/P2-16-Per.wav,Speaker2,گوینده۲,2,59,219,35,,,,,65.19677849999971,,,,,,,,,,,,,,,,,,,,,,,,,,,,,,,,,,,,,,,,,,,,,50.75922166700002,0.0,False,50.75944562500081,453494,001,2024-07-03_14h03.22.645,5-all in one,2024.1.4,None,2024-07-03 14h03.27.862570 +0900,
Images/Speaker1.jpg,Images/Speaker2.jpg,Images/Speaker3.jpg,Images/Speaker4.jpg,Audio/Speaker4_Per/P4-15-Per.wav,Speaker4,گوینده۴,2,60,220,74,,,,,65.19677849999971,,,,,,,,,,,,,,,,,,,,,,,,,,,,,,,,,,,,,,,,,,,,,50.77498983300029,0.0,False,50.77519741700053,453494,001,2024-07-03_14h03.22.645,5-all in one,2024.1.4,None,2024-07-03 14h03.27.862570 +0900,
Images/Speaker1.jpg,Images/Speaker2.jpg,Images/Speaker3.jpg,Images/Speaker4.jpg,Audio/Speaker1_Per/P1-9-Per.wav,Speaker1,گوینده ۱,2,61,221,8,,,,,65.19677849999971,,,,,,,,,,,,,,,,,,,,,,,,,,,,,,,,,,,,,,,,,,,,,50.790749208001216,0.0,False,50.79094258300029,453494,001,2024-07-03_14h03.22.645,5-all in one,2024.1.4,None,2024-07-03 14h03.27.862570 +0900,
Images/Speaker1.jpg,Images/Speaker2.jpg,Images/Speaker3.jpg,Images/Speaker4.jpg,Audio/Speaker3_Per/P3-5-Per.wav,Speaker3,گوینده۳,2,62,222,44,,,,,65.19677849999971,,,,,,,,,,,,,,,,,,,,,,,,,,,,,,,,,,,,,,,,,,,,,50.80709229199965,0.0,False,50.807307082999614,453494,001,2024-07-03_14h03.22.645,5-all in one,2024.1.4,None,2024-07-03 14h03.27.862570 +0900,
Images/Speaker1.jpg,Images/Speaker2.jpg,Images/Speaker3.jpg,Images/Speaker4.jpg,Audio/Speaker2_Per/P2-12-Per.wav,Speaker2,گوینده۲,2,63,223,31,,,,,65.19677849999971,,,,,,,,,,,,,,,,,,,,,,,,,,,,,,,,,,,,,,,,,,,,,50.82277070800046,0.0,False,50.823000542000955,453494,001,2024-07-03_14h03.22.645,5-all in one,2024.1.4,None,2024-07-03 14h03.27.862570 +0900,
Images/Speaker1.jpg,Images/Speaker2.jpg,Images/Speaker3.jpg,Images/Speaker4.jpg,Audio/Speaker2_Per/P2-20-Per.wav,Speaker2,گوینده۲,2,64,224,39,,,,,65.19677849999971,,,,,,,,,,,,,,,,,,,,,,,,,,,,,,,,,,,,,,,,,,,,,50.83856412500063,0.0,False,50.83873429199957,453494,001,2024-07-03_14h03.22.645,5-all in one,2024.1.4,None,2024-07-03 14h03.27.862570 +0900,
Images/Speaker1.jpg,Images/Speaker2.jpg,Images/Speaker3.jpg,Images/Speaker4.jpg,Audio/Speaker2_Per/P2-15-Per.wav,Speaker2,گوینده۲,2,65,225,34,,,,,65.19677849999971,,,,,,,,,,,,,,,,,,,,,,,,,,,,,,,,,,,,,,,,,,,,,50.854269499999646,0.0,False,50.85443883300104,453494,001,2024-07-03_14h03.22.645,5-all in one,2024.1.4,None,2024-07-03 14h03.27.862570 +0900,
Images/Speaker1.jpg,Images/Speaker2.jpg,Images/Speaker3.jpg,Images/Speaker4.jpg,Audio/Speaker2_Per/P2-4-Per.wav,Speaker2,گوینده۲,2,66,226,23,,,,,65.19677849999971,,,,,,,,,,,,,,,,,,,,,,,,,,,,,,,,,,,,,,,,,,,,,50.870688917000734,0.0,False,50.87088195800061,453494,001,2024-07-03_14h03.22.645,5-all in one,2024.1.4,None,2024-07-03 14h03.27.862570 +0900,
Images/Speaker1.jpg,Images/Speaker2.jpg,Images/Speaker3.jpg,Images/Speaker4.jpg,Audio/Speaker2_Per/P2-7-Per.wav,Speaker2,گوینده۲,2,67,227,26,,,,,65.19677849999971,,,,,,,,,,,,,,,,,,,,,,,,,,,,,,,,,,,,,,,,,,,,,50.88631829199949,0.0,False,50.88655233300051,453494,001,2024-07-03_14h03.22.645,5-all in one,2024.1.4,None,2024-07-03 14h03.27.862570 +0900,
Images/Speaker1.jpg,Images/Speaker2.jpg,Images/Speaker3.jpg,Images/Speaker4.jpg,Audio/Speaker1_Per/P1-18-Per.wav,Speaker1,گوینده ۱,2,68,228,17,,,,,65.19677849999971,,,,,,,,,,,,,,,,,,,,,,,,,,,,,,,,,,,,,,,,,,,,,50.90206008300083,0.0,False,50.90223425000113,453494,001,2024-07-03_14h03.22.645,5-all in one,2024.1.4,None,2024-07-03 14h03.27.862570 +0900,
Images/Speaker1.jpg,Images/Speaker2.jpg,Images/Speaker3.jpg,Images/Speaker4.jpg,Audio/Speaker3_Per/P3-9-Per.wav,Speaker3,گوینده۳,2,69,229,48,,,,,65.19677849999971,,,,,,,,,,,,,,,,,,,,,,,,,,,,,,,,,,,,,,,,,,,,,50.917864667000686,0.0,False,50.91804879200026,453494,001,2024-07-03_14h03.22.645,5-all in one,2024.1.4,None,2024-07-03 14h03.27.862570 +0900,
Images/Speaker1.jpg,Images/Speaker2.jpg,Images/Speaker3.jpg,Images/Speaker4.jpg,Audio/Speaker4_Per/P4-7-Per.wav,Speaker4,گوینده۴,2,70,230,66,,,,,65.19677849999971,,,,,,,,,,,,,,,,,,,,,,,,,,,,,,,,,,,,,,,,,,,,,50.934271957999954,0.0,False,50.93446249999943,453494,001,2024-07-03_14h03.22.645,5-all in one,2024.1.4,None,2024-07-03 14h03.27.862570 +0900,
Images/Speaker1.jpg,Images/Speaker2.jpg,Images/Speaker3.jpg,Images/Speaker4.jpg,Audio/Speaker1_Per/P1-13-Per.wav,Speaker1,گوینده ۱,2,71,231,12,,,,,65.19677849999971,,,,,,,,,,,,,,,,,,,,,,,,,,,,,,,,,,,,,,,,,,,,,50.95008170800065,0.0,False,50.95028950000051,453494,001,2024-07-03_14h03.22.645,5-all in one,2024.1.4,None,2024-07-03 14h03.27.862570 +0900,
Images/Speaker1.jpg,Images/Speaker2.jpg,Images/Speaker3.jpg,Images/Speaker4.jpg,Audio/Speaker3_Per/P3-19-Per.wav,Speaker3,گوینده۳,2,72,232,58,,,,,65.19677849999971,,,,,,,,,,,,,,,,,,,,,,,,,,,,,,,,,,,,,,,,,,,,,50.9658459580005,0.0,False,50.96605975000057,453494,001,2024-07-03_14h03.22.645,5-all in one,2024.1.4,None,2024-07-03 14h03.27.862570 +0900,
Images/Speaker1.jpg,Images/Speaker2.jpg,Images/Speaker3.jpg,Images/Speaker4.jpg,Audio/Speaker1_Per/P1-19-Per.wav,Speaker1,گوینده ۱,2,73,233,18,,,,,65.19677849999971,,,,,,,,,,,,,,,,,,,,,,,,,,,,,,,,,,,,,,,,,,,,,50.98152475000097,0.0,False,50.98168079199968,453494,001,2024-07-03_14h03.22.645,5-all in one,2024.1.4,None,2024-07-03 14h03.27.862570 +0900,
Images/Speaker1.jpg,Images/Speaker2.jpg,Images/Speaker3.jpg,Images/Speaker4.jpg,Audio/Speaker3_Per/P3-1-Per.wav,Speaker3,گوینده۳,2,74,234,40,,,,,65.19677849999971,,,,,,,,,,,,,,,,,,,,,,,,,,,,,,,,,,,,,,,,,,,,,50.99790050000047,0.0,False,50.998095541999646,453494,001,2024-07-03_14h03.22.645,5-all in one,2024.1.4,None,2024-07-03 14h03.27.862570 +0900,
Images/Speaker1.jpg,Images/Speaker2.jpg,Images/Speaker3.jpg,Images/Speaker4.jpg,Audio/Speaker2_Per/P2-11-Per.wav,Speaker2,گوینده۲,2,75,235,30,,,,,65.19677849999971,,,,,,,,,,,,,,,,,,,,,,,,,,,,,,,,,,,,,,,,,,,,,51.013760042000285,0.0,False,51.01395791700088,453494,001,2024-07-03_14h03.22.645,5-all in one,2024.1.4,None,2024-07-03 14h03.27.862570 +0900,
Images/Speaker1.jpg,Images/Speaker2.jpg,Images/Speaker3.jpg,Images/Speaker4.jpg,Audio/Speaker1_Per/P1-17-Per.wav,Speaker1,گوینده ۱,2,76,236,16,,,,,65.19677849999971,,,,,,,,,,,,,,,,,,,,,,,,,,,,,,,,,,,,,,,,,,,,,51.02938633300073,0.0,False,51.02954858300109,453494,001,2024-07-03_14h03.22.645,5-all in one,2024.1.4,None,2024-07-03 14h03.27.862570 +0900,
Images/Speaker1.jpg,Images/Speaker2.jpg,Images/Speaker3.jpg,Images/Speaker4.jpg,Audio/Speaker4_Per/P4-10-Per.wav,Speaker4,گوینده۴,2,77,237,69,,,,,65.19677849999971,,,,,,,,,,,,,,,,,,,,,,,,,,,,,,,,,,,,,,,,,,,,,51.04506695800046,0.0,False,51.04528787500021,453494,001,2024-07-03_14h03.22.645,5-all in one,2024.1.4,None,2024-07-03 14h03.27.862570 +0900,
Images/Speaker1.jpg,Images/Speaker2.jpg,Images/Speaker3.jpg,Images/Speaker4.jpg,Audio/Speaker3_Per/P3-20-Per.wav,Speaker3,گوینده۳,2,78,238,59,,,,,65.19677849999971,,,,,,,,,,,,,,,,,,,,,,,,,,,,,,,,,,,,,,,,,,,,,51.06139462499959,0.0,False,51.06155804199989,453494,001,2024-07-03_14h03.22.645,5-all in one,2024.1.4,None,2024-07-03 14h03.27.862570 +0900,
Images/Speaker1.jpg,Images/Speaker2.jpg,Images/Speaker3.jpg,Images/Speaker4.jpg,Audio/Speaker3_Per/P3-13-Per.wav,Speaker3,گوینده۳,2,79,239,52,,,,,65.19677849999971,,,,,,,,,,,,,,,,,,,,,,,,,,,,,,,,,,,,,,,,,,,,,51.077266792000955,0.0,False,51.07750454199959,453494,001,2024-07-03_14h03.22.645,5-all in one,2024.1.4,None,2024-07-03 14h03.27.862570 +0900,
Images/Speaker1.jpg,Images/Speaker2.jpg,Images/Speaker3.jpg,Images/Speaker4.jpg,Audio/Speaker1_Per/P1-16-Per.wav,Speaker1,گوینده ۱,3,0,240,15,,,,,65.19677849999971,,,,,,,,,,,,,,,,,,,,,,,,,,,,,,,,,,,,,,,,,,,,,51.093225042000995,0.0,False,51.09345450000001,453494,001,2024-07-03_14h03.22.645,5-all in one,2024.1.4,None,2024-07-03 14h03.27.862570 +0900,
Images/Speaker1.jpg,Images/Speaker2.jpg,Images/Speaker3.jpg,Images/Speaker4.jpg,Audio/Speaker4_Per/P4-2-Per.wav,Speaker4,گوینده۴,3,1,241,61,,,,,65.19677849999971,,,,,,,,,,,,,,,,,,,,,,,,,,,,,,,,,,,,,,,,,,,,,51.108974417000354,0.0,False,51.109127666999484,453494,001,2024-07-03_14h03.22.645,5-all in one,2024.1.4,None,2024-07-03 14h03.27.862570 +0900,
Images/Speaker1.jpg,Images/Speaker2.jpg,Images/Speaker3.jpg,Images/Speaker4.jpg,Audio/Speaker4_Per/P4-12-Per.wav,Speaker4,گوینده۴,3,2,242,71,,,,,65.19677849999971,,,,,,,,,,,,,,,,,,,,,,,,,,,,,,,,,,,,,,,,,,,,,51.12516620799943,0.0,False,51.12532004199966,453494,001,2024-07-03_14h03.22.645,5-all in one,2024.1.4,None,2024-07-03 14h03.27.862570 +0900,
Images/Speaker1.jpg,Images/Speaker2.jpg,Images/Speaker3.jpg,Images/Speaker4.jpg,Audio/Speaker2_Per/P2-19-Per.wav,Speaker2,گوینده۲,3,3,243,38,,,,,65.19677849999971,,,,,,,,,,,,,,,,,,,,,,,,,,,,,,,,,,,,,,,,,,,,,51.140851916999964,0.0,False,51.141043499999796,453494,001,2024-07-03_14h03.22.645,5-all in one,2024.1.4,None,2024-07-03 14h03.27.862570 +0900,
Images/Speaker1.jpg,Images/Speaker2.jpg,Images/Speaker3.jpg,Images/Speaker4.jpg,Audio/Speaker4_Per/P4-19-Per.wav,Speaker4,گوینده۴,3,4,244,78,,,,,65.19677849999971,,,,,,,,,,,,,,,,,,,,,,,,,,,,,,,,,,,,,,,,,,,,,51.156666541999584,0.0,False,51.156852750000326,453494,001,2024-07-03_14h03.22.645,5-all in one,2024.1.4,None,2024-07-03 14h03.27.862570 +0900,
Images/Speaker1.jpg,Images/Speaker2.jpg,Images/Speaker3.jpg,Images/Speaker4.jpg,Audio/Speaker2_Per/P2-7-Per.wav,Speaker2,گوینده۲,3,5,245,26,,,,,65.19677849999971,,,,,,,,,,,,,,,,,,,,,,,,,,,,,,,,,,,,,,,,,,,,,51.17235470800006,0.0,False,51.172552792000715,453494,001,2024-07-03_14h03.22.645,5-all in one,2024.1.4,None,2024-07-03 14h03.27.862570 +0900,
Images/Speaker1.jpg,Images/Speaker2.jpg,Images/Speaker3.jpg,Images/Speaker4.jpg,Audio/Speaker2_Per/P2-10-Per.wav,Speaker2,گوینده۲,3,6,246,29,,,,,65.19677849999971,,,,,,,,,,,,,,,,,,,,,,,,,,,,,,,,,,,,,,,,,,,,,51.18878370800121,0.0,False,51.18896266699994,453494,001,2024-07-03_14h03.22.645,5-all in one,2024.1.4,None,2024-07-03 14h03.27.862570 +0900,
Images/Speaker1.jpg,Images/Speaker2.jpg,Images/Speaker3.jpg,Images/Speaker4.jpg,Audio/Speaker3_Per/P3-4-Per.wav,Speaker3,گوینده۳,3,7,247,43,,,,,65.19677849999971,,,,,,,,,,,,,,,,,,,,,,,,,,,,,,,,,,,,,,,,,,,,,51.20475416699992,0.0,False,51.20493483300015,453494,001,2024-07-03_14h03.22.645,5-all in one,2024.1.4,None,2024-07-03 14h03.27.862570 +0900,
Images/Speaker1.jpg,Images/Speaker2.jpg,Images/Speaker3.jpg,Images/Speaker4.jpg,Audio/Speaker4_Per/P4-17-Per.wav,Speaker4,گوینده۴,3,8,248,76,,,,,65.19677849999971,,,,,,,,,,,,,,,,,,,,,,,,,,,,,,,,,,,,,,,,,,,,,51.220551750000595,0.0,False,51.22074404200066,453494,001,2024-07-03_14h03.22.645,5-all in one,2024.1.4,None,2024-07-03 14h03.27.862570 +0900,
Images/Speaker1.jpg,Images/Speaker2.jpg,Images/Speaker3.jpg,Images/Speaker4.jpg,Audio/Speaker4_Per/P4-4-Per.wav,Speaker4,گوینده۴,3,9,249,63,,,,,65.19677849999971,,,,,,,,,,,,,,,,,,,,,,,,,,,,,,,,,,,,,,,,,,,,,51.236330833000466,0.0,False,51.23650804200042,453494,001,2024-07-03_14h03.22.645,5-all in one,2024.1.4,None,2024-07-03 14h03.27.862570 +0900,
Images/Speaker1.jpg,Images/Speaker2.jpg,Images/Speaker3.jpg,Images/Speaker4.jpg,Audio/Speaker2_Per/P2-1-Per.wav,Speaker2,گوینده۲,3,10,250,20,,,,,65.19677849999971,,,,,,,,,,,,,,,,,,,,,,,,,,,,,,,,,,,,,,,,,,,,,51.25261454199972,0.0,False,51.25280449999991,453494,001,2024-07-03_14h03.22.645,5-all in one,2024.1.4,None,2024-07-03 14h03.27.862570 +0900,
Images/Speaker1.jpg,Images/Speaker2.jpg,Images/Speaker3.jpg,Images/Speaker4.jpg,Audio/Speaker1_Per/P1-2-Per.wav,Speaker1,گوینده ۱,3,11,251,1,,,,,65.19677849999971,,,,,,,,,,,,,,,,,,,,,,,,,,,,,,,,,,,,,,,,,,,,,51.26831049999964,0.0,False,51.26850291700066,453494,001,2024-07-03_14h03.22.645,5-all in one,2024.1.4,None,2024-07-03 14h03.27.862570 +0900,
Images/Speaker1.jpg,Images/Speaker2.jpg,Images/Speaker3.jpg,Images/Speaker4.jpg,Audio/Speaker2_Per/P2-2-Per.wav,Speaker2,گوینده۲,3,12,252,21,,,,,65.19677849999971,,,,,,,,,,,,,,,,,,,,,,,,,,,,,,,,,,,,,,,,,,,,,51.28412924999975,0.0,False,51.284363875000054,453494,001,2024-07-03_14h03.22.645,5-all in one,2024.1.4,None,2024-07-03 14h03.27.862570 +0900,
Images/Speaker1.jpg,Images/Speaker2.jpg,Images/Speaker3.jpg,Images/Speaker4.jpg,Audio/Speaker3_Per/P3-3-Per.wav,Speaker3,گوینده۳,3,13,253,42,,,,,65.19677849999971,,,,,,,,,,,,,,,,,,,,,,,,,,,,,,,,,,,,,,,,,,,,,51.299852250000185,0.0,False,51.30004058300074,453494,001,2024-07-03_14h03.22.645,5-all in one,2024.1.4,None,2024-07-03 14h03.27.862570 +0900,
Images/Speaker1.jpg,Images/Speaker2.jpg,Images/Speaker3.jpg,Images/Speaker4.jpg,Audio/Speaker1_Per/P1-3-Per.wav,Speaker1,گوینده ۱,3,14,254,2,,,,,65.19677849999971,,,,,,,,,,,,,,,,,,,,,,,,,,,,,,,,,,,,,,,,,,,,,51.316369333000694,0.0,False,51.316535042000396,453494,001,2024-07-03_14h03.22.645,5-all in one,2024.1.4,None,2024-07-03 14h03.27.862570 +0900,
Images/Speaker1.jpg,Images/Speaker2.jpg,Images/Speaker3.jpg,Images/Speaker4.jpg,Audio/Speaker1_Per/P1-1-Per.wav,Speaker1,گوینده ۱,3,15,255,0,,,,,65.19677849999971,,,,,,,,,,,,,,,,,,,,,,,,,,,,,,,,,,,,,,,,,,,,,51.332192542000485,0.0,False,51.332391166999514,453494,001,2024-07-03_14h03.22.645,5-all in one,2024.1.4,None,2024-07-03 14h03.27.862570 +0900,
Images/Speaker1.jpg,Images/Speaker2.jpg,Images/Speaker3.jpg,Images/Speaker4.jpg,Audio/Speaker3_Per/P3-8-Per.wav,Speaker3,گوینده۳,3,16,256,47,,,,,65.19677849999971,,,,,,,,,,,,,,,,,,,,,,,,,,,,,,,,,,,,,,,,,,,,,51.34799150000072,0.0,False,51.34821620799994,453494,001,2024-07-03_14h03.22.645,5-all in one,2024.1.4,None,2024-07-03 14h03.27.862570 +0900,
Images/Speaker1.jpg,Images/Speaker2.jpg,Images/Speaker3.jpg,Images/Speaker4.jpg,Audio/Speaker1_Per/P1-15-Per.wav,Speaker1,گوینده ۱,3,17,257,14,,,,,65.19677849999971,,,,,,,,,,,,,,,,,,,,,,,,,,,,,,,,,,,,,,,,,,,,,51.36384129200087,0.0,False,51.364049499999965,453494,001,2024-07-03_14h03.22.645,5-all in one,2024.1.4,None,2024-07-03 14h03.27.862570 +0900,
Images/Speaker1.jpg,Images/Speaker2.jpg,Images/Speaker3.jpg,Images/Speaker4.jpg,Audio/Speaker1_Per/P1-20-Per.wav,Speaker1,گوینده ۱,3,18,258,19,,,,,65.19677849999971,,,,,,,,,,,,,,,,,,,,,,,,,,,,,,,,,,,,,,,,,,,,,51.38027258300099,0.0,False,51.38048329199955,453494,001,2024-07-03_14h03.22.645,5-all in one,2024.1.4,None,2024-07-03 14h03.27.862570 +0900,
Images/Speaker1.jpg,Images/Speaker2.jpg,Images/Speaker3.jpg,Images/Speaker4.jpg,Audio/Speaker2_Per/P2-12-Per.wav,Speaker2,گوینده۲,3,19,259,31,,,,,65.19677849999971,,,,,,,,,,,,,,,,,,,,,,,,,,,,,,,,,,,,,,,,,,,,,51.39608633300122,0.0,False,51.396307375000106,453494,001,2024-07-03_14h03.22.645,5-all in one,2024.1.4,None,2024-07-03 14h03.27.862570 +0900,
Images/Speaker1.jpg,Images/Speaker2.jpg,Images/Speaker3.jpg,Images/Speaker4.jpg,Audio/Speaker1_Per/P1-4-Per.wav,Speaker1,گوینده ۱,3,20,260,3,,,,,65.19677849999971,,,,,,,,,,,,,,,,,,,,,,,,,,,,,,,,,,,,,,,,,,,,,51.41189583300002,0.0,False,51.41212495800028,453494,001,2024-07-03_14h03.22.645,5-all in one,2024.1.4,None,2024-07-03 14h03.27.862570 +0900,
Images/Speaker1.jpg,Images/Speaker2.jpg,Images/Speaker3.jpg,Images/Speaker4.jpg,Audio/Speaker4_Per/P4-5-Per.wav,Speaker4,گوینده۴,3,21,261,64,,,,,65.19677849999971,,,,,,,,,,,,,,,,,,,,,,,,,,,,,,,,,,,,,,,,,,,,,51.42779837499984,0.0,False,51.428006792000815,453494,001,2024-07-03_14h03.22.645,5-all in one,2024.1.4,None,2024-07-03 14h03.27.862570 +0900,
Images/Speaker1.jpg,Images/Speaker2.jpg,Images/Speaker3.jpg,Images/Speaker4.jpg,Audio/Speaker3_Per/P3-2-Per.wav,Speaker3,گوینده۳,3,22,262,41,,,,,65.19677849999971,,,,,,,,,,,,,,,,,,,,,,,,,,,,,,,,,,,,,,,,,,,,,51.44419362500048,0.0,False,51.444364041999506,453494,001,2024-07-03_14h03.22.645,5-all in one,2024.1.4,None,2024-07-03 14h03.27.862570 +0900,
Images/Speaker1.jpg,Images/Speaker2.jpg,Images/Speaker3.jpg,Images/Speaker4.jpg,Audio/Speaker4_Per/P4-1-Per.wav,Speaker4,گوینده۴,3,23,263,60,,,,,65.19677849999971,,,,,,,,,,,,,,,,,,,,,,,,,,,,,,,,,,,,,,,,,,,,,51.46003795800061,0.0,False,51.460212500000125,453494,001,2024-07-03_14h03.22.645,5-all in one,2024.1.4,None,2024-07-03 14h03.27.862570 +0900,
Images/Speaker1.jpg,Images/Speaker2.jpg,Images/Speaker3.jpg,Images/Speaker4.jpg,Audio/Speaker1_Per/P1-8-Per.wav,Speaker1,گوینده ۱,3,24,264,7,,,,,65.19677849999971,,,,,,,,,,,,,,,,,,,,,,,,,,,,,,,,,,,,,,,,,,,,,51.47577808300048,0.0,False,51.475986833000206,453494,001,2024-07-03_14h03.22.645,5-all in one,2024.1.4,None,2024-07-03 14h03.27.862570 +0900,
Images/Speaker1.jpg,Images/Speaker2.jpg,Images/Speaker3.jpg,Images/Speaker4.jpg,Audio/Speaker3_Per/P3-19-Per.wav,Speaker3,گوینده۳,3,25,265,58,,,,,65.19677849999971,,,,,,,,,,,,,,,,,,,,,,,,,,,,,,,,,,,,,,,,,,,,,51.4915088329999,0.0,False,51.491704166999625,453494,001,2024-07-03_14h03.22.645,5-all in one,2024.1.4,None,2024-07-03 14h03.27.862570 +0900,
Images/Speaker1.jpg,Images/Speaker2.jpg,Images/Speaker3.jpg,Images/Speaker4.jpg,Audio/Speaker4_Per/P4-20-Per.wav,Speaker4,گوینده۴,3,26,266,79,,,,,65.19677849999971,,,,,,,,,,,,,,,,,,,,,,,,,,,,,,,,,,,,,,,,,,,,,51.508177792000424,0.0,False,51.50837933299954,453494,001,2024-07-03_14h03.22.645,5-all in one,2024.1.4,None,2024-07-03 14h03.27.862570 +0900,
Images/Speaker1.jpg,Images/Speaker2.jpg,Images/Speaker3.jpg,Images/Speaker4.jpg,Audio/Speaker4_Per/P4-16-Per.wav,Speaker4,گوینده۴,3,27,267,75,,,,,65.19677849999971,,,,,,,,,,,,,,,,,,,,,,,,,,,,,,,,,,,,,,,,,,,,,51.52378512500036,0.0,False,51.5239579170011,453494,001,2024-07-03_14h03.22.645,5-all in one,2024.1.4,None,2024-07-03 14h03.27.862570 +0900,
Images/Speaker1.jpg,Images/Speaker2.jpg,Images/Speaker3.jpg,Images/Speaker4.jpg,Audio/Speaker1_Per/P1-6-Per.wav,Speaker1,گوینده ۱,3,28,268,5,,,,,65.19677849999971,,,,,,,,,,,,,,,,,,,,,,,,,,,,,,,,,,,,,,,,,,,,,51.53972100000101,0.0,False,51.53991387499991,453494,001,2024-07-03_14h03.22.645,5-all in one,2024.1.4,None,2024-07-03 14h03.27.862570 +0900,
Images/Speaker1.jpg,Images/Speaker2.jpg,Images/Speaker3.jpg,Images/Speaker4.jpg,Audio/Speaker3_Per/P3-9-Per.wav,Speaker3,گوینده۳,3,29,269,48,,,,,65.19677849999971,,,,,,,,,,,,,,,,,,,,,,,,,,,,,,,,,,,,,,,,,,,,,51.55537212499985,0.0,False,51.55553216699991,453494,001,2024-07-03_14h03.22.645,5-all in one,2024.1.4,None,2024-07-03 14h03.27.862570 +0900,
Images/Speaker1.jpg,Images/Speaker2.jpg,Images/Speaker3.jpg,Images/Speaker4.jpg,Audio/Speaker3_Per/P3-17-Per.wav,Speaker3,گوینده۳,3,30,270,56,,,,,65.19677849999971,,,,,,,,,,,,,,,,,,,,,,,,,,,,,,,,,,,,,,,,,,,,,51.57163566700001,0.0,False,51.57183758300016,453494,001,2024-07-03_14h03.22.645,5-all in one,2024.1.4,None,2024-07-03 14h03.27.862570 +0900,
Images/Speaker1.jpg,Images/Speaker2.jpg,Images/Speaker3.jpg,Images/Speaker4.jpg,Audio/Speaker2_Per/P2-16-Per.wav,Speaker2,گوینده۲,3,31,271,35,,,,,65.19677849999971,,,,,,,,,,,,,,,,,,,,,,,,,,,,,,,,,,,,,,,,,,,,,51.587417624999944,0.0,False,51.58759083299992,453494,001,2024-07-03_14h03.22.645,5-all in one,2024.1.4,None,2024-07-03 14h03.27.862570 +0900,
Images/Speaker1.jpg,Images/Speaker2.jpg,Images/Speaker3.jpg,Images/Speaker4.jpg,Audio/Speaker2_Per/P2-5-Per.wav,Speaker2,گوینده۲,3,32,272,24,,,,,65.19677849999971,,,,,,,,,,,,,,,,,,,,,,,,,,,,,,,,,,,,,,,,,,,,,51.603427250000095,0.0,False,51.603629958000965,453494,001,2024-07-03_14h03.22.645,5-all in one,2024.1.4,None,2024-07-03 14h03.27.862570 +0900,
Images/Speaker1.jpg,Images/Speaker2.jpg,Images/Speaker3.jpg,Images/Speaker4.jpg,Audio/Speaker1_Per/P1-18-Per.wav,Speaker1,گوینده ۱,3,33,273,17,,,,,65.19677849999971,,,,,,,,,,,,,,,,,,,,,,,,,,,,,,,,,,,,,,,,,,,,,51.61921016700035,0.0,False,51.6193928749999,453494,001,2024-07-03_14h03.22.645,5-all in one,2024.1.4,None,2024-07-03 14h03.27.862570 +0900,
Images/Speaker1.jpg,Images/Speaker2.jpg,Images/Speaker3.jpg,Images/Speaker4.jpg,Audio/Speaker2_Per/P2-3-Per.wav,Speaker2,گوینده۲,3,34,274,22,,,,,65.19677849999971,,,,,,,,,,,,,,,,,,,,,,,,,,,,,,,,,,,,,,,,,,,,,51.63558062499942,0.0,False,51.635785500000566,453494,001,2024-07-03_14h03.22.645,5-all in one,2024.1.4,None,2024-07-03 14h03.27.862570 +0900,
Images/Speaker1.jpg,Images/Speaker2.jpg,Images/Speaker3.jpg,Images/Speaker4.jpg,Audio/Speaker4_Per/P4-10-Per.wav,Speaker4,گوینده۴,3,35,275,69,,,,,65.19677849999971,,,,,,,,,,,,,,,,,,,,,,,,,,,,,,,,,,,,,,,,,,,,,51.65129841700036,0.0,False,51.65151975000117,453494,001,2024-07-03_14h03.22.645,5-all in one,2024.1.4,None,2024-07-03 14h03.27.862570 +0900,
Images/Speaker1.jpg,Images/Speaker2.jpg,Images/Speaker3.jpg,Images/Speaker4.jpg,Audio/Speaker1_Per/P1-4-Per.wav,Speaker1,گوینده ۱,3,36,276,13,,,,,65.19677849999971,,,,,,,,,,,,,,,,,,,,,,,,,,,,,,,,,,,,,,,,,,,,,51.66703420799968,0.0,False,51.66722391700023,453494,001,2024-07-03_14h03.22.645,5-all in one,2024.1.4,None,2024-07-03 14h03.27.862570 +0900,
