SpeakerImage1,SpeakerImage2,SpeakerImage3,SpeakerImage4,TrainingSound,EnglishCorrectAnswer,PersianCorrectAnswer,SpeakerPhoto1,SpeakerPhoto2,SpeakerPhoto3,SpeakerPhoto4,TestingSound,EnglishCorrectResponse,PersianCorrectResponse,TrainingLoopGroup1.thisRepN,TrainingLoopGroup1.thisTrialN,TrainingLoopGroup1.thisN,TrainingLoopGroup1.thisIndex,TrainingLoopGroup2.thisRepN,TrainingLoopGroup2.thisTrialN,TrainingLoopGroup2.thisN,TrainingLoopGroup2.thisIndex,TrainingLoopGroup3.thisRepN,TrainingLoopGroup3.thisTrialN,TrainingLoopGroup3.thisN,TrainingLoopGroup3.thisIndex,testPhase1Loop.thisRepN,testPhase1Loop.thisTrialN,testPhase1Loop.thisN,testPhase1Loop.thisIndex,testPhase2Loop.thisRepN,testPhase2Loop.thisTrialN,testPhase2Loop.thisN,testPhase2Loop.thisIndex,testPhase3Loop.thisRepN,testPhase3Loop.thisTrialN,testPhase3Loop.thisN,testPhase3Loop.thisIndex,thisRow.t,notes,trial.started,trial.stopped,GroupSelection.started,GroupInstructions.started,key_resp.started,GroupSelection.stopped,key_resp.keys,key_resp.rt,key_resp.duration,Introduction.started,text_2.started,image.started,sound_7.started,text_4.started,text_2.stopped,sound_8.started,image.stopped,text_4.stopped,image_7.started,sound_9.started,text_5.started,sound_10.started,image_7.stopped,text_5.stopped,image_8.started,sound_11.started,text_6.started,sound_12.started,image_8.stopped,text_6.stopped,image_9.started,sound_13.started,text_7.started,sound_14.started,image_9.stopped,text_7.stopped,Introduction.stopped,Instructions.started,InstructionText.started,InstructionText.stopped,Instructions.stopped,InitializeExperiment.started,InitializeExperiment.stopped,TrainingGroup3.started,SpeakerPicture3.started,image_15.started,image_16.started,image_17.started,Sound3.started,Instruction3.started,Response3.started,TrainingGroup3.stopped,feedbackText,Response3.keys,Response3.rt,Response3.duration,correct_responses_group3,total_trials_group3,FeedbackRoutine3.started,FeedbackText3.started,FeedbackRoutine3.stopped,FeedbackText3.stopped,CheckAccuracy.started,accuracy_group1,accuracy_group2,accuracy_group3,proceed_to_test,CheckAccuracy.stopped,WelcomeTest.started,text_12.started,text_12.stopped,WelcomeTest.stopped,TestPhase1.started,TestPhase1.stopped,test1_response_keyboard.keys,test1_response,test1_image_file1,test1_image_file2,test1_image_file3,test1_image_file4,test1_sound_file,english_correct_answer,persian_correct_answer,TestPhase2.started,TestPhase2.stopped,test2_response_keyboard.keys,test2_response,test2_image_file1,test2_image_file2,test2_image_file3,test2_image_file4,test2_sound_file,TestPhase3.started,TestPhase3.stopped,test3_response_keyboard.keys,test3_response,test3_image_file1,test3_image_file2,test3_image_file3,test3_image_file4,test3_sound_file,participant,session,date,expName,psychopyVersion,frameRate,expStart,
,,,,,,,,,,,,,,,,,,,,,,,,,,,,,,,,,,,,,,,,0.009963417000108166,0.010313209000742063,,,,,,,,,,,,,,,,,,,,,,,,,,,,,,,,,,,,,,,,,,,,,,,,,,,,,,,,,,,,,,,,,,,,,,,,,,,,,,,,,,,,,,,,,,,,,,,,,,,,483646,001,2024-06-30_16h42.01.447,5-24,2024.1.4,None,2024-06-30 16h42.07.189795 +0900,
,,,,,,,,,,,,,,,,,,,,,,,,,,,,,,,,,,,,,,,,,,0.010329249998903833,0.014703291999467183,0.014703291999467183,0.503241499998694,3,0.4521719590011344,None,,,,,,,,,,,,,,,,,,,,,,,,,,,,,,,,,,,,,,,,,,,,,,,,,,,,,,,,,,,,,,,,,,,,,,,,,,,,,,,,,,,,,,,,,,,,,483646,001,2024-06-30_16h42.01.447,5-24,2024.1.4,None,2024-06-30 16h42.07.189795 +0900,
,,,,,,,,,,,,,,,,,,,,,,,,,,,,,,,,,,,,,,,,,,,,,,,,,0.5032821249988046,0.5538667500004522,5.494824083998537,5.5043013336655955,5.494824083998537,5.541454499998508,10.506307458665349,15.492185250001057,15.492185250001057,15.492185250001057,15.505262083665245,15.492185250001057,20.51496475066621,25.486248749999504,25.486248749999504,25.498813666999922,25.50291541666617,25.498813666999922,30.505697875665888,35.49822766700163,35.49822766700163,35.49822766700163,35.50696704166718,35.49822766700163,40.51458400066646,45.49705554200045,45.49705554200045,45.49108441700082,,,,,,,,,,,,,,,,,,,,,,,,,,,,,,,,,,,,,,,,,,,,,,,,,,,,,,,,,,,,,,,,,483646,001,2024-06-30_16h42.01.447,5-24,2024.1.4,None,2024-06-30 16h42.07.189795 +0900,
,,,,,,,,,,,,,,,,,,,,,,,,,,,,,,,,,,,,,,,,,,,,,,,,,,,,,,,,,,,,,,,,,,,,,,,,,,,,,45.491152209000575,45.49705554200045,46.563369250001415,46.482977709001716,,,,,,,,,,,,,,,,,,,,,,,,,,,,,,,,,,,,,,,,,,,,,,,,,,,,,,,,,,,,,483646,001,2024-06-30_16h42.01.447,5-24,2024.1.4,None,2024-06-30 16h42.07.189795 +0900,
,,,,,,,,,,,,,,,,,,,,,,,,,,,,,,,,,,,,,,,,,,,,,,,,,,,,,,,,,,,,,,,,,,,,,,,,,,,,,,,,,46.483016917001805,46.48330087499926,,,,,,,,,,,,,,,,,,,,,,,,,,,,,,,,,,,,,,,,,,,,,,,,,,,,,,,,,,,483646,001,2024-06-30_16h42.01.447,5-24,2024.1.4,None,2024-06-30 16h42.07.189795 +0900,
Images/Speaker1.jpg,Images/Speaker2.jpg,Images/Speaker3.jpg,Images/Speaker4.jpg,Audio/Speaker2_En/P2-9-En.wav,Speaker2,گوینده۲,,,,,,,,,,,,,,,,0,0,0,28,,,,,,,,,,,,,46.563369250001415,,,,,,,,,,,,,,,,,,,,,,,,,,,,,,,,,,,,,,,,,,,,,46.53834750000169,46.563369250001415,46.563369250001415,46.563369250001415,46.563369250001415,46.565298458333324,46.563369250001415,46.563369250001415,48.74947354200049,Incorrect! The correct answer is Speaker2. نادرست! پاسخ صحیح گوینده۲ است,1,2.1829954579989135,None,0,1,48.75403000000006,48.767527250001876,50.75678266700197,,,,,,,,,,,,,,,,,,,,,,,,,,,,,,,,,,,,,,,,,483646,001,2024-06-30_16h42.01.447,5-24,2024.1.4,None,2024-06-30 16h42.07.189795 +0900,
Images/Speaker1.jpg,Images/Speaker2.jpg,Images/Speaker3.jpg,Images/Speaker4.jpg,Audio/Speaker2_En/P2-4-En.wav,Speaker2,گوینده۲,,,,,,,,,,,,,,,,0,1,1,23,,,,,,,,,,,,,50.778196874998685,,,,,,,,,,,,,,,,,,,,,,,,,,,,,,,,,,,,,,,,,,,,,50.75698379200185,50.778196874998685,50.778196874998685,50.778196874998685,50.778196874998685,50.77340733366533,50.778196874998685,50.778196874998685,51.016494209001394,Incorrect! The correct answer is Speaker2. نادرست! پاسخ صحیح گوینده۲ است,1,0.23472829200181877,None,0,2,51.02029833399865,51.03309783399891,53.021015834001446,,,,,,,,,,,,,,,,,,,,,,,,,,,,,,,,,,,,,,,,,483646,001,2024-06-30_16h42.01.447,5-24,2024.1.4,None,2024-06-30 16h42.07.189795 +0900,
Images/Speaker1.jpg,Images/Speaker2.jpg,Images/Speaker3.jpg,Images/Speaker4.jpg,Audio/Speaker1_En/P1-11-En.wav,Speaker1,گوینده ۱,,,,,,,,,,,,,,,,0,2,2,10,,,,,,,,,,,,,53.04258404199936,,,,,,,,,,,,,,,,,,,,,,,,,,,,,,,,,,,,,,,,,,,,,53.02119212500111,53.04258404199936,53.04258404199936,53.04258404199936,53.04258404199936,53.03762858366851,53.04258404199936,53.04258404199936,53.0994727920006,Correct! صحیح است,1,0.0486332090003998,None,0,3,53.10371508400203,53.11284862500179,55.096567791999405,55.11884624999948,,,,,,,,,,,,,,,,,,,,,,,,,,,,,,,,,,,,,,,,483646,001,2024-06-30_16h42.01.447,5-24,2024.1.4,None,2024-06-30 16h42.07.189795 +0900,
Images/Speaker1.jpg,Images/Speaker2.jpg,Images/Speaker3.jpg,Images/Speaker4.jpg,Audio/Speaker1_En/P1-15-En.wav,Speaker1,گوینده ۱,,,,,,,,,,,,,,,,0,3,3,14,,,,,,,,,,,,,55.11884624999948,,,,,,,,,,,,,,,,,,,,,,,,,,,,,,,,,,,,,,,,,,,,,55.096732917001646,55.11884624999948,55.11884624999948,55.11884624999948,55.11884624999948,55.112915625668634,55.11884624999948,55.11884624999948,55.11937833399861,Correct! صحیح است,1,1.9943364589998964,None,0,4,55.12319099999877,55.13086216699958,57.11534079199919,57.13607095900079,,,,,,,,,,,,,,,,,,,,,,,,,,,,,,,,,,,,,,,,483646,001,2024-06-30_16h42.01.447,5-24,2024.1.4,None,2024-06-30 16h42.07.189795 +0900,
Images/Speaker1.jpg,Images/Speaker2.jpg,Images/Speaker3.jpg,Images/Speaker4.jpg,Audio/Speaker3_En/P3-12-En.wav,Speaker3,گوینده۳,,,,,,,,,,,,,,,,0,4,4,51,,,,,,,,,,,,,57.13607095900079,,,,,,,,,,,,,,,,,,,,,,,,,,,,,,,,,,,,,,,,,,,,,57.11552291699991,57.13607095900079,57.13607095900079,57.13607095900079,57.13607095900079,57.13177962566648,57.13607095900079,57.13607095900079,57.53892129200176,Incorrect! The correct answer is Speaker3. نادرست! پاسخ صحیح گوینده۳ است,1,0.39850545799708925,None,0,5,57.542809334001504,57.55558158400163,59.542571917001624,59.567093959001795,,,,,,,,,,,,,,,,,,,,,,,,,,,,,,,,,,,,,,,,483646,001,2024-06-30_16h42.01.447,5-24,2024.1.4,None,2024-06-30 16h42.07.189795 +0900,
Images/Speaker1.jpg,Images/Speaker2.jpg,Images/Speaker3.jpg,Images/Speaker4.jpg,Audio/Speaker2_En/P2-13-En.wav,Speaker2,گوینده۲,,,,,,,,,,,,,,,,0,5,5,32,,,,,,,,,,,,,59.567093959001795,,,,,,,,,,,,,,,,,,,,,,,,,,,,,,,,,,,,,,,,,,,,,59.54350374999922,59.567093959001795,59.567093959001795,59.567093959001795,59.567093959001795,59.574903583332826,59.567093959001795,59.567093959001795,60.10620554200068,Incorrect! The correct answer is Speaker2. نادرست! پاسخ صحیح گوینده۲ است,1,0.5296353329977137,None,0,6,60.11091891700198,60.125457000001916,62.109272708999924,62.130550666999625,,,,,,,,,,,,,,,,,,,,,,,,,,,,,,,,,,,,,,,,483646,001,2024-06-30_16h42.01.447,5-24,2024.1.4,None,2024-06-30 16h42.07.189795 +0900,
Images/Speaker1.jpg,Images/Speaker2.jpg,Images/Speaker3.jpg,Images/Speaker4.jpg,Audio/Speaker1_En/P1-18-En.wav,Speaker1,گوینده ۱,,,,,,,,,,,,,,,,0,6,6,17,,,,,,,,,,,,,62.130550666999625,,,,,,,,,,,,,,,,,,,,,,,,,,,,,,,,,,,,,,,,,,,,,62.10944787500193,62.130550666999625,62.130550666999625,62.130550666999625,62.130550666999625,62.12572687566741,62.130550666999625,62.130550666999625,62.13122595900131,Correct! صحیح است,1,2.383076207999693,None,0,7,62.134976042001654,62.142742374999216,64.1340303750003,64.15439662499921,,,,,,,,,,,,,,,,,,,,,,,,,,,,,,,,,,,,,,,,483646,001,2024-06-30_16h42.01.447,5-24,2024.1.4,None,2024-06-30 16h42.07.189795 +0900,
Images/Speaker1.jpg,Images/Speaker2.jpg,Images/Speaker3.jpg,Images/Speaker4.jpg,Audio/Speaker4_En/P4-20-En.wav,Speaker4,گوینده۴,,,,,,,,,,,,,,,,0,7,7,79,,,,,,,,,,,,,64.15439662499921,,,,,,,,,,,,,,,,,,,,,,,,,,,,,,,,,,,,,,,,,,,,,64.13421933399877,64.15439662499921,64.15439662499921,64.15439662499921,64.15439662499921,64.15048204166693,64.15439662499921,64.15439662499921,64.16552199999933,Incorrect! The correct answer is Speaker4. نادرست! پاسخ صحیح گوینده۴ است,1,0.009572958002536325,None,0,8,64.1696102499991,64.18215545899875,66.17657749999853,,,,,,,,,,,,,,,,,,,,,,,,,,,,,,,,,,,,,,,,,483646,001,2024-06-30_16h42.01.447,5-24,2024.1.4,None,2024-06-30 16h42.07.189795 +0900,
Images/Speaker1.jpg,Images/Speaker2.jpg,Images/Speaker3.jpg,Images/Speaker4.jpg,Audio/Speaker3_En/P3-9-En.wav,Speaker3,گوینده۳,,,,,,,,,,,,,,,,0,8,8,48,,,,,,,,,,,,,66.2016637500019,,,,,,,,,,,,,,,,,,,,,,,,,,,,,,,,,,,,,,,,,,,,,66.17715979200148,66.2016637500019,66.2016637500019,66.2016637500019,66.2016637500019,66.20975200033402,66.2016637500019,66.2016637500019,66.70852545900198,Incorrect! The correct answer is Speaker3. نادرست! پاسخ صحیح گوینده۳ است,1,0.502868125000532,None,0,9,66.712208500001,66.72487195899885,68.71479362500031,,,,,,,,,,,,,,,,,,,,,,,,,,,,,,,,,,,,,,,,,483646,001,2024-06-30_16h42.01.447,5-24,2024.1.4,None,2024-06-30 16h42.07.189795 +0900,
Images/Speaker1.jpg,Images/Speaker2.jpg,Images/Speaker3.jpg,Images/Speaker4.jpg,Audio/Speaker1_En/P1-8-En.wav,Speaker1,گوینده ۱,,,,,,,,,,,,,,,,0,9,9,7,,,,,,,,,,,,,68.73807608399875,,,,,,,,,,,,,,,,,,,,,,,,,,,,,,,,,,,,,,,,,,,,,68.71549941700141,68.73807608399875,68.73807608399875,68.73807608399875,68.73807608399875,68.74793754233227,68.73807608399875,68.73807608399875,68.75080312499995,Correct! صحیح است,1,0.010254832999635255,None,0,10,68.75475604199892,68.76528958400013,70.75132004199986,70.7744467090015,,,,,,,,,,,,,,,,,,,,,,,,,,,,,,,,,,,,,,,,483646,001,2024-06-30_16h42.01.447,5-24,2024.1.4,None,2024-06-30 16h42.07.189795 +0900,
Images/Speaker1.jpg,Images/Speaker2.jpg,Images/Speaker3.jpg,Images/Speaker4.jpg,Audio/Speaker4_En/P4-7-En.wav,Speaker4,گوینده۴,,,,,,,,,,,,,,,,0,10,10,66,,,,,,,,,,,,,70.7744467090015,,,,,,,,,,,,,,,,,,,,,,,,,,,,,,,,,,,,,,,,,,,,,70.75152512500063,70.7744467090015,70.7744467090015,70.7744467090015,70.7744467090015,70.784444583333,70.7744467090015,70.7744467090015,70.86288133400012,Incorrect! The correct answer is Speaker4. نادرست! پاسخ صحیح گوینده۴ است,1,0.08380108300116262,None,0,11,70.86668037500203,70.87999991700053,72.87037420900015,,,,,,,,,,,,,,,,,,,,,,,,,,,,,,,,,,,,,,,,,483646,001,2024-06-30_16h42.01.447,5-24,2024.1.4,None,2024-06-30 16h42.07.189795 +0900,
Images/Speaker1.jpg,Images/Speaker2.jpg,Images/Speaker3.jpg,Images/Speaker4.jpg,Audio/Speaker4_En/P4-11-En.wav,Speaker4,گوینده۴,,,,,,,,,,,,,,,,0,11,11,70,,,,,,,,,,,,,72.89247733400043,,,,,,,,,,,,,,,,,,,,,,,,,,,,,,,,,,,,,,,,,,,,,72.87053366699911,72.89247733400043,72.89247733400043,72.89247733400043,72.89247733400043,72.88699983366702,72.89247733400043,72.89247733400043,73.26115550000031,Incorrect! The correct answer is Speaker4. نادرست! پاسخ صحیح گوینده۴ است,1,0.36594358300135355,None,0,12,73.26505216700025,73.27778962500088,75.26250837499902,75.28433408400088,,,,,,,,,,,,,,,,,,,,,,,,,,,,,,,,,,,,,,,,483646,001,2024-06-30_16h42.01.447,5-24,2024.1.4,None,2024-06-30 16h42.07.189795 +0900,
Images/Speaker1.jpg,Images/Speaker2.jpg,Images/Speaker3.jpg,Images/Speaker4.jpg,Audio/Speaker3_En/P3-15-En.wav,Speaker3,گوینده۳,,,,,,,,,,,,,,,,0,12,12,54,,,,,,,,,,,,,75.28433408400088,,,,,,,,,,,,,,,,,,,,,,,,,,,,,,,,,,,,,,,,,,,,,75.262686459002,75.28433408400088,75.28433408400088,75.28433408400088,75.28433408400088,75.27895666666542,75.28433408400088,75.28433408400088,75.37195029199938,Incorrect! The correct answer is Speaker3. نادرست! پاسخ صحیح گوینده۳ است,1,0.08509641700220527,None,0,13,75.37595362499997,75.38850137500049,77.38166379199902,,,,,,,,,,,,,,,,,,,,,,,,,,,,,,,,,,,,,,,,,483646,001,2024-06-30_16h42.01.447,5-24,2024.1.4,None,2024-06-30 16h42.07.189795 +0900,
Images/Speaker1.jpg,Images/Speaker2.jpg,Images/Speaker3.jpg,Images/Speaker4.jpg,Audio/Speaker3_En/P3-19-En.wav,Speaker3,گوینده۳,,,,,,,,,,,,,,,,0,13,13,58,,,,,,,,,,,,,77.40218154200193,,,,,,,,,,,,,,,,,,,,,,,,,,,,,,,,,,,,,,,,,,,,,77.38185508400056,77.40218154200193,77.40218154200193,77.40218154200193,77.40218154200193,77.39829612566633,77.40218154200193,77.40218154200193,77.68151470900193,Incorrect! The correct answer is Speaker3. نادرست! پاسخ صحیح گوینده۳ است,1,0.2774871670007997,None,0,14,77.6853853749999,77.69826637499864,79.68656025000018,,,,,,,,,,,,,,,,,,,,,,,,,,,,,,,,,,,,,,,,,483646,001,2024-06-30_16h42.01.447,5-24,2024.1.4,None,2024-06-30 16h42.07.189795 +0900,
Images/Speaker1.jpg,Images/Speaker2.jpg,Images/Speaker3.jpg,Images/Speaker4.jpg,Audio/Speaker3_En/P3-2-En.wav,Speaker3,گوینده۳,,,,,,,,,,,,,,,,0,14,14,41,,,,,,,,,,,,,79.70892133400048,,,,,,,,,,,,,,,,,,,,,,,,,,,,,,,,,,,,,,,,,,,,,79.6867157500019,79.70892133400048,79.70892133400048,79.70892133400048,79.70892133400048,79.70319658366522,79.70892133400048,79.70892133400048,79.70956558399848,Incorrect! The correct answer is Speaker3. نادرست! پاسخ صحیح گوینده۳ است,1,2.225158375000319,None,0,15,79.71348299999954,79.72298249999949,81.71410162499888,,,,,,,,,,,,,,,,,,,,,,,,,,,,,,,,,,,,,,,,,483646,001,2024-06-30_16h42.01.447,5-24,2024.1.4,None,2024-06-30 16h42.07.189795 +0900,
Images/Speaker1.jpg,Images/Speaker2.jpg,Images/Speaker3.jpg,Images/Speaker4.jpg,Audio/Speaker2_En/P2-7-En.wav,Speaker2,گوینده۲,,,,,,,,,,,,,,,,0,15,15,26,,,,,,,,,,,,,81.7348394590008,,,,,,,,,,,,,,,,,,,,,,,,,,,,,,,,,,,,,,,,,,,,,81.71424720900177,81.7348394590008,81.7348394590008,81.7348394590008,81.7348394590008,81.73073633366609,81.7348394590008,81.7348394590008,81.73541670900158,Incorrect! The correct answer is Speaker2. نادرست! پاسخ صحیح گوینده۲ است,1,1.9872875420005585,None,0,16,81.73913616700156,81.74891929200021,83.73781712500204,83.75960954200127,,,,,,,,,,,,,,,,,,,,,,,,,,,,,,,,,,,,,,,,483646,001,2024-06-30_16h42.01.447,5-24,2024.1.4,None,2024-06-30 16h42.07.189795 +0900,
Images/Speaker1.jpg,Images/Speaker2.jpg,Images/Speaker3.jpg,Images/Speaker4.jpg,Audio/Speaker1_En/P1-4-En.wav,Speaker1,گوینده ۱,,,,,,,,,,,,,,,,0,16,16,3,,,,,,,,,,,,,83.75960954200127,,,,,,,,,,,,,,,,,,,,,,,,,,,,,,,,,,,,,,,,,,,,,83.73798950000128,83.75960954200127,83.75960954200127,83.75960954200127,83.75960954200127,83.7541934166659,83.75960954200127,83.75960954200127,83.84713133400146,Correct! صحیح است,1,0.07969937499728985,None,0,17,83.85134770900186,83.8622322500014,85.85813616700034,,,,,,,,,,,,,,,,,,,,,,,,,,,,,,,,,,,,,,,,,483646,001,2024-06-30_16h42.01.447,5-24,2024.1.4,None,2024-06-30 16h42.07.189795 +0900,
Images/Speaker1.jpg,Images/Speaker2.jpg,Images/Speaker3.jpg,Images/Speaker4.jpg,Audio/Speaker2_En/P2-2-En.wav,Speaker2,گوینده۲,,,,,,,,,,,,,,,,0,17,17,21,,,,,,,,,,,,,85.87955091700132,,,,,,,,,,,,,,,,,,,,,,,,,,,,,,,,,,,,,,,,,,,,,85.85829845899934,85.87955091700132,85.87955091700132,85.87955091700132,85.87955091700132,85.87476320866723,85.87955091700132,85.87955091700132,85.88011604200074,Incorrect! The correct answer is Speaker2. نادرست! پاسخ صحیح گوینده۲ است,1,2.0124782919992867,None,0,18,85.88415083400105,85.89395499999955,87.88049845899877,87.9022927090009,,,,,,,,,,,,,,,,,,,,,,,,,,,,,,,,,,,,,,,,483646,001,2024-06-30_16h42.01.447,5-24,2024.1.4,None,2024-06-30 16h42.07.189795 +0900,
Images/Speaker1.jpg,Images/Speaker2.jpg,Images/Speaker3.jpg,Images/Speaker4.jpg,Audio/Speaker3_En/P3-5-En.wav,Speaker3,گوینده۳,,,,,,,,,,,,,,,,0,18,18,44,,,,,,,,,,,,,87.9022927090009,,,,,,,,,,,,,,,,,,,,,,,,,,,,,,,,,,,,,,,,,,,,,87.88066220900146,87.9022927090009,87.9022927090009,87.9022927090009,87.9022927090009,87.89691137566867,87.9022927090009,87.9022927090009,87.90283529199951,Incorrect! The correct answer is Speaker3. نادرست! پاسخ صحیح گوینده۳ است,1,1.8898120000012568,None,0,19,87.90664554199975,87.91649200000029,89.90563529200153,89.92688179200195,,,,,,,,,,,,,,,,,,,,,,,,,,,,,,,,,,,,,,,,483646,001,2024-06-30_16h42.01.447,5-24,2024.1.4,None,2024-06-30 16h42.07.189795 +0900,
Images/Speaker1.jpg,Images/Speaker2.jpg,Images/Speaker3.jpg,Images/Speaker4.jpg,Audio/Speaker3_En/P3-1-En.wav,Speaker3,گوینده۳,,,,,,,,,,,,,,,,0,19,19,40,,,,,,,,,,,,,89.92688179200195,,,,,,,,,,,,,,,,,,,,,,,,,,,,,,,,,,,,,,,,,,,,,89.90578633399855,89.92688179200195,89.92688179200195,89.92688179200195,89.92688179200195,89.92205770866737,89.92688179200195,89.92688179200195,90.26324783400196,Incorrect! The correct answer is Speaker3. نادرست! پاسخ صحیح گوینده۳ است,1,0.33093312500204775,None,0,20,90.26788604200192,90.28183283399994,92.26857749999908,,,,,,,,,,,,,,,,,,,,,,,,,,,,,,,,,,,,,,,,,483646,001,2024-06-30_16h42.01.447,5-24,2024.1.4,None,2024-06-30 16h42.07.189795 +0900,
Images/Speaker1.jpg,Images/Speaker2.jpg,Images/Speaker3.jpg,Images/Speaker4.jpg,Audio/Speaker4_En/P4-3-En.wav,Speaker4,گوینده۴,,,,,,,,,,,,,,,,0,20,20,62,,,,,,,,,,,,,92.28954283400162,,,,,,,,,,,,,,,,,,,,,,,,,,,,,,,,,,,,,,,,,,,,,92.26875324999855,92.28954283400162,92.28954283400162,92.28954283400162,92.28954283400162,92.28520108366526,92.28954283400162,92.28954283400162,92.54090616699978,Incorrect! The correct answer is Speaker4. نادرست! پاسخ صحیح گوینده۴ است,1,0.24818820899963612,None,0,21,92.54488479200154,92.55828287500117,94.54209179200188,94.56304454199926,,,,,,,,,,,,,,,,,,,,,,,,,,,,,,,,,,,,,,,,483646,001,2024-06-30_16h42.01.447,5-24,2024.1.4,None,2024-06-30 16h42.07.189795 +0900,
Images/Speaker1.jpg,Images/Speaker2.jpg,Images/Speaker3.jpg,Images/Speaker4.jpg,Audio/Speaker2_En/P2-19-En.wav,Speaker2,گوینده۲,,,,,,,,,,,,,,,,0,21,21,38,,,,,,,,,,,,,94.56304454199926,,,,,,,,,,,,,,,,,,,,,,,,,,,,,,,,,,,,,,,,,,,,,94.54227545899994,94.56304454199926,94.56304454199926,94.56304454199926,94.56304454199926,94.55855854166681,94.56304454199926,94.56304454199926,94.85670108400154,Incorrect! The correct answer is Speaker2. نادرست! پاسخ صحیح گوینده۲ است,1,0.2816843330001575,None,0,22,94.8604585840003,94.8730116250008,96.86362387500048,,,,,,,,,,,,,,,,,,,,,,,,,,,,,,,,,,,,,,,,,483646,001,2024-06-30_16h42.01.447,5-24,2024.1.4,None,2024-06-30 16h42.07.189795 +0900,
Images/Speaker1.jpg,Images/Speaker2.jpg,Images/Speaker3.jpg,Images/Speaker4.jpg,Audio/Speaker1_En/P1-7-En.wav,Speaker1,گوینده ۱,,,,,,,,,,,,,,,,0,22,22,6,,,,,,,,,,,,,96.88593683400177,,,,,,,,,,,,,,,,,,,,,,,,,,,,,,,,,,,,,,,,,,,,,96.86379179199866,96.88593683400177,96.88593683400177,96.88593683400177,96.88593683400177,96.88025179166677,96.88593683400177,96.88593683400177,97.1552097499989,Correct! صحیح است,1,0.2644109170032607,None,0,23,97.15926083399972,97.17176387500149,99.16606066700115,,,,,,,,,,,,,,,,,,,,,,,,,,,,,,,,,,,,,,,,,483646,001,2024-06-30_16h42.01.447,5-24,2024.1.4,None,2024-06-30 16h42.07.189795 +0900,
Images/Speaker1.jpg,Images/Speaker2.jpg,Images/Speaker3.jpg,Images/Speaker4.jpg,Audio/Speaker1_En/P1-3-En.wav,Speaker1,گوینده ۱,,,,,,,,,,,,,,,,0,23,23,2,,,,,,,,,,,,,99.18745166699955,,,,,,,,,,,,,,,,,,,,,,,,,,,,,,,,,,,,,,,,,,,,,99.16622075000123,99.18745166699955,99.18745166699955,99.18745166699955,99.18745166699955,99.18268850066694,99.18745166699955,99.18745166699955,99.4274698750014,Correct! صحیح است,1,0.238973999999871,None,0,24,99.4314319590012,99.44253787500202,101.43084779199853,101.45457433399861,,,,,,,,,,,,,,,,,,,,,,,,,,,,,,,,,,,,,,,,483646,001,2024-06-30_16h42.01.447,5-24,2024.1.4,None,2024-06-30 16h42.07.189795 +0900,
Images/Speaker1.jpg,Images/Speaker2.jpg,Images/Speaker3.jpg,Images/Speaker4.jpg,Audio/Speaker2_En/P2-3-En.wav,Speaker2,گوینده۲,,,,,,,,,,,,,,,,0,24,24,22,,,,,,,,,,,,,101.45457433399861,,,,,,,,,,,,,,,,,,,,,,,,,,,,,,,,,,,,,,,,,,,,,101.43179379199864,101.45457433399861,101.45457433399861,101.45457433399861,101.45457433399861,101.46330120833275,101.45457433399861,101.45457433399861,101.45529412500036,Incorrect! The correct answer is Speaker2. نادرست! پاسخ صحیح گوینده۲ است,1,2.189419040998473,None,0,25,101.45577179199972,101.46524308399967,103.45067095899867,103.47162337500049,,,,,,,,,,,,,,,,,,,,,,,,,,,,,,,,,,,,,,,,483646,001,2024-06-30_16h42.01.447,5-24,2024.1.4,None,2024-06-30 16h42.07.189795 +0900,
Images/Speaker1.jpg,Images/Speaker2.jpg,Images/Speaker3.jpg,Images/Speaker4.jpg,Audio/Speaker2_En/P2-16-En.wav,Speaker2,گوینده۲,,,,,,,,,,,,,,,,0,25,25,35,,,,,,,,,,,,,103.47162337500049,,,,,,,,,,,,,,,,,,,,,,,,,,,,,,,,,,,,,,,,,,,,,103.4508276250017,103.47162337500049,103.47162337500049,103.47162337500049,103.47162337500049,103.46714533366709,103.47162337500049,103.47162337500049,105.03277204199912,Incorrect! The correct answer is Speaker2. نادرست! پاسخ صحیح گوینده۲ است,1,1.558483332999458,None,0,26,105.03679704200113,105.049703708999,107.03444395900078,107.05587741699856,,,,,,,,,,,,,,,,,,,,,,,,,,,,,,,,,,,,,,,,483646,001,2024-06-30_16h42.01.447,5-24,2024.1.4,None,2024-06-30 16h42.07.189795 +0900,
Images/Speaker1.jpg,Images/Speaker2.jpg,Images/Speaker3.jpg,Images/Speaker4.jpg,Audio/Speaker1_En/P1-6-En.wav,Speaker1,گوینده ۱,,,,,,,,,,,,,,,,0,26,26,5,,,,,,,,,,,,,107.05587741699856,,,,,,,,,,,,,,,,,,,,,,,,,,,,,,,,,,,,,,,,,,,,,107.03461866699945,107.05587741699856,107.05587741699856,107.05587741699856,107.05587741699856,107.05088395866575,107.05587741699856,107.05587741699856,107.68245200000092,Correct! صحیح است,1,0.6147849170010886,None,0,27,107.68617637499847,107.69708850000097,109.6823645000004,109.7073553750015,,,,,,,,,,,,,,,,,,,,,,,,,,,,,,,,,,,,,,,,483646,001,2024-06-30_16h42.01.447,5-24,2024.1.4,None,2024-06-30 16h42.07.189795 +0900,
Images/Speaker1.jpg,Images/Speaker2.jpg,Images/Speaker3.jpg,Images/Speaker4.jpg,Audio/Speaker2_En/P2-17-En.wav,Speaker2,گوینده۲,,,,,,,,,,,,,,,,0,27,27,36,,,,,,,,,,,,,109.7073553750015,,,,,,,,,,,,,,,,,,,,,,,,,,,,,,,,,,,,,,,,,,,,,109.68286220899972,109.7073553750015,109.7073553750015,109.7073553750015,109.7073553750015,109.71473433333497,109.7073553750015,109.7073553750015,110.1208328749999,Incorrect! The correct answer is Speaker2. نادرست! پاسخ صحیح گوینده۲ است,1,0.4124977499996021,None,0,28,110.12495266699989,110.13763749999998,112.12417470899891,112.14788950000002,,,,,,,,,,,,,,,,,,,,,,,,,,,,,,,,,,,,,,,,483646,001,2024-06-30_16h42.01.447,5-24,2024.1.4,None,2024-06-30 16h42.07.189795 +0900,
Images/Speaker1.jpg,Images/Speaker2.jpg,Images/Speaker3.jpg,Images/Speaker4.jpg,Audio/Speaker1_En/P1-4-En.wav,Speaker1,گوینده ۱,,,,,,,,,,,,,,,,0,28,28,13,,,,,,,,,,,,,112.14788950000002,,,,,,,,,,,,,,,,,,,,,,,,,,,,,,,,,,,,,,,,,,,,,112.1243507500003,112.14788950000002,112.14788950000002,112.14788950000002,112.14788950000002,112.15727241733524,112.14788950000002,112.14788950000002,112.63850504199945,Correct! صحیح است,1,0.48145424999893294,None,0,29,112.64242395900146,112.65073325000048,114.63815766699918,114.65962945900174,,,,,,,,,,,,,,,,,,,,,,,,,,,,,,,,,,,,,,,,483646,001,2024-06-30_16h42.01.447,5-24,2024.1.4,None,2024-06-30 16h42.07.189795 +0900,
Images/Speaker1.jpg,Images/Speaker2.jpg,Images/Speaker3.jpg,Images/Speaker4.jpg,Audio/Speaker2_En/P2-8-En.wav,Speaker2,گوینده۲,,,,,,,,,,,,,,,,0,29,29,27,,,,,,,,,,,,,114.65962945900174,,,,,,,,,,,,,,,,,,,,,,,,,,,,,,,,,,,,,,,,,,,,,114.6383202500001,114.65962945900174,114.65962945900174,114.65962945900174,114.65962945900174,114.6546156666666,114.65962945900174,114.65962945900174,116.25594049999927,Incorrect! The correct answer is Speaker2. نادرست! پاسخ صحیح گوینده۲ است,1,1.5935275830015598,None,0,30,116.26001600000018,116.27323550000074,118.25795004199972,118.28367287500078,,,,,,,,,,,,,,,,,,,,,,,,,,,,,,,,,,,,,,,,483646,001,2024-06-30_16h42.01.447,5-24,2024.1.4,None,2024-06-30 16h42.07.189795 +0900,
Images/Speaker1.jpg,Images/Speaker2.jpg,Images/Speaker3.jpg,Images/Speaker4.jpg,Audio/Speaker3_En/P3-11-En.wav,Speaker3,گوینده۳,,,,,,,,,,,,,,,,0,30,30,50,,,,,,,,,,,,,118.28367287500078,,,,,,,,,,,,,,,,,,,,,,,,,,,,,,,,,,,,,,,,,,,,,118.25866395900084,118.28367287500078,118.28367287500078,118.28367287500078,118.28367287500078,118.29043787533422,118.28367287500078,118.28367287500078,118.28429308400155,Incorrect! The correct answer is Speaker3. نادرست! پاسخ صحیح گوینده۳ است,1,3.5497412500008068,None,0,31,118.28461079200133,118.29496295900026,120.2839934170006,120.30896908399882,,,,,,,,,,,,,,,,,,,,,,,,,,,,,,,,,,,,,,,,483646,001,2024-06-30_16h42.01.447,5-24,2024.1.4,None,2024-06-30 16h42.07.189795 +0900,
Images/Speaker1.jpg,Images/Speaker2.jpg,Images/Speaker3.jpg,Images/Speaker4.jpg,Audio/Speaker1_En/P1-16-En.wav,Speaker1,گوینده ۱,,,,,,,,,,,,,,,,0,31,31,15,,,,,,,,,,,,,120.30896908399882,,,,,,,,,,,,,,,,,,,,,,,,,,,,,,,,,,,,,,,,,,,,,120.28478887500023,120.30896908399882,120.30896908399882,120.30896908399882,120.30896908399882,120.29984983366764,120.30896908399882,120.30896908399882,120.30963591700129,Correct! صحیح است,1,2.0042278330001864,None,0,32,120.31340266700136,120.32137745900036,122.31312841700128,122.33735320900087,,,,,,,,,,,,,,,,,,,,,,,,,,,,,,,,,,,,,,,,483646,001,2024-06-30_16h42.01.447,5-24,2024.1.4,None,2024-06-30 16h42.07.189795 +0900,
Images/Speaker1.jpg,Images/Speaker2.jpg,Images/Speaker3.jpg,Images/Speaker4.jpg,Audio/Speaker4_En/P4-9-En.wav,Speaker4,گوینده۴,,,,,,,,,,,,,,,,0,32,32,68,,,,,,,,,,,,,122.33735320900087,,,,,,,,,,,,,,,,,,,,,,,,,,,,,,,,,,,,,,,,,,,,,122.3139418339997,122.33735320900087,122.33735320900087,122.33735320900087,122.33735320900087,122.3456303753342,122.33735320900087,122.33735320900087,122.6977165419994,Incorrect! The correct answer is Speaker4. نادرست! پاسخ صحیح گوینده۴ است,1,0.35540795900305966,None,0,33,122.70183750000069,122.7139288340004,124.70210983400102,,,,,,,,,,,,,,,,,,,,,,,,,,,,,,,,,,,,,,,,,483646,001,2024-06-30_16h42.01.447,5-24,2024.1.4,None,2024-06-30 16h42.07.189795 +0900,
Images/Speaker1.jpg,Images/Speaker2.jpg,Images/Speaker3.jpg,Images/Speaker4.jpg,Audio/Speaker2_En/P2-6-En.wav,Speaker2,گوینده۲,,,,,,,,,,,,,,,,0,33,33,25,,,,,,,,,,,,,124.72420941699966,,,,,,,,,,,,,,,,,,,,,,,,,,,,,,,,,,,,,,,,,,,,,124.7022605839993,124.72420941699966,124.72420941699966,124.72420941699966,124.72420941699966,124.71874187566597,124.72420941699966,124.72420941699966,125.13811270899896,Incorrect! The correct answer is Speaker2. نادرست! پاسخ صحیح گوینده۲ است,1,0.4048000420007156,None,0,34,125.14219266700093,125.15267233399936,127.13869899999918,127.15946075000102,,,,,,,,,,,,,,,,,,,,,,,,,,,,,,,,,,,,,,,,483646,001,2024-06-30_16h42.01.447,5-24,2024.1.4,None,2024-06-30 16h42.07.189795 +0900,
Images/Speaker1.jpg,Images/Speaker2.jpg,Images/Speaker3.jpg,Images/Speaker4.jpg,Audio/Speaker3_En/P3-7-En.wav,Speaker3,گوینده۳,,,,,,,,,,,,,,,,0,34,34,46,,,,,,,,,,,,,127.15946075000102,,,,,,,,,,,,,,,,,,,,,,,,,,,,,,,,,,,,,,,,,,,,,127.13885141699939,127.15946075000102,127.15946075000102,127.15946075000102,127.15946075000102,127.15515708366753,127.15946075000102,127.15946075000102,127.24300083400158,Incorrect! The correct answer is Speaker3. نادرست! پاسخ صحیح گوینده۳ است,1,0.0816981250027311,None,0,35,127.24688629199954,127.25936699999875,129.24370608400204,129.26390154199908,,,,,,,,,,,,,,,,,,,,,,,,,,,,,,,,,,,,,,,,483646,001,2024-06-30_16h42.01.447,5-24,2024.1.4,None,2024-06-30 16h42.07.189795 +0900,
Images/Speaker1.jpg,Images/Speaker2.jpg,Images/Speaker3.jpg,Images/Speaker4.jpg,Audio/Speaker1_En/P1-17-En.wav,Speaker1,گوینده ۱,,,,,,,,,,,,,,,,0,35,35,16,,,,,,,,,,,,,129.26390154199908,,,,,,,,,,,,,,,,,,,,,,,,,,,,,,,,,,,,,,,,,,,,,129.2438629169992,129.26390154199908,129.26390154199908,129.26390154199908,129.26390154199908,129.2600902916677,129.26390154199908,129.26390154199908,129.3691581669991,Correct! صحیح است,1,0.09588600000279257,None,0,36,129.37330075000136,129.38483612500204,131.37106595899968,131.39363824999964,,,,,,,,,,,,,,,,,,,,,,,,,,,,,,,,,,,,,,,,483646,001,2024-06-30_16h42.01.447,5-24,2024.1.4,None,2024-06-30 16h42.07.189795 +0900,
Images/Speaker1.jpg,Images/Speaker2.jpg,Images/Speaker3.jpg,Images/Speaker4.jpg,Audio/Speaker1_En/P1-2-En.wav,Speaker1,گوینده ۱,,,,,,,,,,,,,,,,0,36,36,1,,,,,,,,,,,,,131.39363824999964,,,,,,,,,,,,,,,,,,,,,,,,,,,,,,,,,,,,,,,,,,,,,131.37199025000155,131.39363824999964,131.39363824999964,131.39363824999964,131.39363824999964,131.4035082503329,131.39363824999964,131.39363824999964,131.71911262499998,Correct! صحیح است,1,0.3237699169985717,None,0,37,131.72367120900162,131.7356240420013,133.71858404199884,133.74110012500023,,,,,,,,,,,,,,,,,,,,,,,,,,,,,,,,,,,,,,,,483646,001,2024-06-30_16h42.01.447,5-24,2024.1.4,None,2024-06-30 16h42.07.189795 +0900,
Images/Speaker1.jpg,Images/Speaker2.jpg,Images/Speaker3.jpg,Images/Speaker4.jpg,Audio/Speaker2_En/P2-18-En.wav,Speaker2,گوینده۲,,,,,,,,,,,,,,,,0,37,37,37,,,,,,,,,,,,,133.74110012500023,,,,,,,,,,,,,,,,,,,,,,,,,,,,,,,,,,,,,,,,,,,,,133.71874145900074,133.74110012500023,133.74110012500023,133.74110012500023,133.74110012500023,133.73467320866646,133.74110012500023,133.74110012500023,133.74175395899874,Incorrect! The correct answer is Speaker2. نادرست! پاسخ صحیح گوینده۲ است,1,2.3212576669975533,None,0,38,133.74594312499903,133.75572974999886,135.74180908400012,135.76333233400146,,,,,,,,,,,,,,,,,,,,,,,,,,,,,,,,,,,,,,,,483646,001,2024-06-30_16h42.01.447,5-24,2024.1.4,None,2024-06-30 16h42.07.189795 +0900,
Images/Speaker1.jpg,Images/Speaker2.jpg,Images/Speaker3.jpg,Images/Speaker4.jpg,Audio/Speaker4_En/P4-16-En.wav,Speaker4,گوینده۴,,,,,,,,,,,,,,,,0,38,38,75,,,,,,,,,,,,,135.76333233400146,,,,,,,,,,,,,,,,,,,,,,,,,,,,,,,,,,,,,,,,,,,,,135.74198533399976,135.76333233400146,135.76333233400146,135.76333233400146,135.76333233400146,135.75818037566594,135.76333233400146,135.76333233400146,136.10990929200125,Incorrect! The correct answer is Speaker4. نادرست! پاسخ صحیح گوینده۴ است,1,0.34500895900055184,None,0,39,136.1146182500015,136.12881208399995,138.11889608400088,,,,,,,,,,,,,,,,,,,,,,,,,,,,,,,,,,,,,,,,,483646,001,2024-06-30_16h42.01.447,5-24,2024.1.4,None,2024-06-30 16h42.07.189795 +0900,
Images/Speaker1.jpg,Images/Speaker2.jpg,Images/Speaker3.jpg,Images/Speaker4.jpg,Audio/Speaker3_En/P3-14-En.wav,Speaker3,گوینده۳,,,,,,,,,,,,,,,,0,39,39,53,,,,,,,,,,,,,138.14202520899926,,,,,,,,,,,,,,,,,,,,,,,,,,,,,,,,,,,,,,,,,,,,,138.1194952090009,138.14202520899926,138.14202520899926,138.14202520899926,138.14202520899926,138.1520811253327,138.14202520899926,138.14202520899926,138.5268544999999,Incorrect! The correct answer is Speaker3. نادرست! پاسخ صحیح گوینده۳ است,1,0.373909083999024,None,0,40,138.53099754199866,138.54347866700118,140.52647479200095,140.54726358400148,,,,,,,,,,,,,,,,,,,,,,,,,,,,,,,,,,,,,,,,483646,001,2024-06-30_16h42.01.447,5-24,2024.1.4,None,2024-06-30 16h42.07.189795 +0900,
Images/Speaker1.jpg,Images/Speaker2.jpg,Images/Speaker3.jpg,Images/Speaker4.jpg,Audio/Speaker4_En/P4-18-En.wav,Speaker4,گوینده۴,,,,,,,,,,,,,,,,0,40,40,77,,,,,,,,,,,,,140.54726358400148,,,,,,,,,,,,,,,,,,,,,,,,,,,,,,,,,,,,,,,,,,,,,140.52662300000156,140.54726358400148,140.54726358400148,140.54726358400148,140.54726358400148,140.54291566666532,140.54726358400148,140.54726358400148,141.16197866700168,Incorrect! The correct answer is Speaker4. نادرست! پاسخ صحیح گوینده۴ است,1,0.6112407500004338,None,0,41,141.16570783399948,141.17893808400186,143.16247733400087,143.18394391699985,,,,,,,,,,,,,,,,,,,,,,,,,,,,,,,,,,,,,,,,483646,001,2024-06-30_16h42.01.447,5-24,2024.1.4,None,2024-06-30 16h42.07.189795 +0900,
Images/Speaker1.jpg,Images/Speaker2.jpg,Images/Speaker3.jpg,Images/Speaker4.jpg,Audio/Speaker1_En/P1-10-En.wav,Speaker1,گوینده ۱,,,,,,,,,,,,,,,,0,41,41,9,,,,,,,,,,,,,143.18394391699985,,,,,,,,,,,,,,,,,,,,,,,,,,,,,,,,,,,,,,,,,,,,,143.1626467089991,143.18394391699985,143.18394391699985,143.18394391699985,143.18394391699985,143.17886270866828,143.18394391699985,143.18394391699985,143.3181050839994,Correct! صحیح است,1,0.12658816700059106,None,0,42,143.32197641699895,143.33296891699865,145.32900750000044,,,,,,,,,,,,,,,,,,,,,,,,,,,,,,,,,,,,,,,,,483646,001,2024-06-30_16h42.01.447,5-24,2024.1.4,None,2024-06-30 16h42.07.189795 +0900,
Images/Speaker1.jpg,Images/Speaker2.jpg,Images/Speaker3.jpg,Images/Speaker4.jpg,Audio/Speaker2_En/P2-15-En.wav,Speaker2,گوینده۲,,,,,,,,,,,,,,,,0,42,42,34,,,,,,,,,,,,,145.3537353339998,,,,,,,,,,,,,,,,,,,,,,,,,,,,,,,,,,,,,,,,,,,,,145.3295442919989,145.3537353339998,145.3537353339998,145.3537353339998,145.3537353339998,145.36219600033343,145.3537353339998,145.3537353339998,146.7594405839991,Incorrect! The correct answer is Speaker2. نادرست! پاسخ صحیح گوینده۲ است,1,1.3949959589990613,None,0,43,146.76358633400014,146.77795970900115,148.76551137500064,,,,,,,,,,,,,,,,,,,,,,,,,,,,,,,,,,,,,,,,,483646,001,2024-06-30_16h42.01.447,5-24,2024.1.4,None,2024-06-30 16h42.07.189795 +0900,
Images/Speaker1.jpg,Images/Speaker2.jpg,Images/Speaker3.jpg,Images/Speaker4.jpg,Audio/Speaker1_En/P1-19-En.wav,Speaker1,گوینده ۱,,,,,,,,,,,,,,,,0,43,43,18,,,,,,,,,,,,,148.7877413339993,,,,,,,,,,,,,,,,,,,,,,,,,,,,,,,,,,,,,,,,,,,,,148.76570524999988,148.7877413339993,148.7877413339993,148.7877413339993,148.7877413339993,148.78210391666678,148.7877413339993,148.7877413339993,149.20276400000148,Correct! صحیح است,1,0.4039657920002355,None,0,44,149.20699425000203,149.21827491699878,151.2129805000004,,,,,,,,,,,,,,,,,,,,,,,,,,,,,,,,,,,,,,,,,483646,001,2024-06-30_16h42.01.447,5-24,2024.1.4,None,2024-06-30 16h42.07.189795 +0900,
Images/Speaker1.jpg,Images/Speaker2.jpg,Images/Speaker3.jpg,Images/Speaker4.jpg,Audio/Speaker4_En/P4-14-En.wav,Speaker4,گوینده۴,,,,,,,,,,,,,,,,0,44,44,73,,,,,,,,,,,,,151.239474375001,,,,,,,,,,,,,,,,,,,,,,,,,,,,,,,,,,,,,,,,,,,,,151.21366549999948,151.239474375001,151.239474375001,151.239474375001,151.239474375001,151.24612912533536,151.239474375001,151.239474375001,151.41933033399982,Incorrect! The correct answer is Speaker4. نادرست! پاسخ صحیح گوینده۴ است,1,0.17304229099681834,None,0,45,151.4235621250009,151.43596804199842,153.42241483399994,153.4476375000013,,,,,,,,,,,,,,,,,,,,,,,,,,,,,,,,,,,,,,,,483646,001,2024-06-30_16h42.01.447,5-24,2024.1.4,None,2024-06-30 16h42.07.189795 +0900,
Images/Speaker1.jpg,Images/Speaker2.jpg,Images/Speaker3.jpg,Images/Speaker4.jpg,Audio/Speaker4_En/P4-5-En.wav,Speaker4,گوینده۴,,,,,,,,,,,,,,,,0,45,45,64,,,,,,,,,,,,,153.4476375000013,,,,,,,,,,,,,,,,,,,,,,,,,,,,,,,,,,,,,,,,,,,,,153.42332650000026,153.4476375000013,153.4476375000013,153.4476375000013,153.4476375000013,153.45473366733182,153.4476375000013,153.4476375000013,153.78863487499984,Incorrect! The correct answer is Speaker4. نادرست! پاسخ صحیح گوینده۴ است,1,0.3382557500008261,None,0,46,153.79264862499986,153.8060639590003,155.79242441699898,155.81370674999926,,,,,,,,,,,,,,,,,,,,,,,,,,,,,,,,,,,,,,,,483646,001,2024-06-30_16h42.01.447,5-24,2024.1.4,None,2024-06-30 16h42.07.189795 +0900,
Images/Speaker1.jpg,Images/Speaker2.jpg,Images/Speaker3.jpg,Images/Speaker4.jpg,Audio/Speaker3_En/P3-3-En.wav,Speaker3,گوینده۳,,,,,,,,,,,,,,,,0,46,46,42,,,,,,,,,,,,,155.81370674999926,,,,,,,,,,,,,,,,,,,,,,,,,,,,,,,,,,,,,,,,,,,,,155.79259725000156,155.81370674999926,155.81370674999926,155.81370674999926,155.81370674999926,155.80876604166795,155.81370674999926,155.81370674999926,156.05618620899986,Incorrect! The correct answer is Speaker3. نادرست! پاسخ صحیح گوینده۳ است,1,0.23735354199743597,None,0,47,156.0601265840014,156.0722643750014,158.0621229999997,,,,,,,,,,,,,,,,,,,,,,,,,,,,,,,,,,,,,,,,,483646,001,2024-06-30_16h42.01.447,5-24,2024.1.4,None,2024-06-30 16h42.07.189795 +0900,
Images/Speaker1.jpg,Images/Speaker2.jpg,Images/Speaker3.jpg,Images/Speaker4.jpg,Audio/Speaker1_En/P1-20-En.wav,Speaker1,گوینده ۱,,,,,,,,,,,,,,,,0,47,47,19,,,,,,,,,,,,,158.084982417,,,,,,,,,,,,,,,,,,,,,,,,,,,,,,,,,,,,,,,,,,,,,158.06270520899852,158.084982417,158.084982417,158.084982417,158.084982417,158.07862283366583,158.084982417,158.084982417,158.79806974999883,Correct! صحیح است,1,0.7119149999998626,None,0,48,158.8023194999987,158.81328620899876,160.7964246670017,160.81767508399935,,,,,,,,,,,,,,,,,,,,,,,,,,,,,,,,,,,,,,,,483646,001,2024-06-30_16h42.01.447,5-24,2024.1.4,None,2024-06-30 16h42.07.189795 +0900,
Images/Speaker1.jpg,Images/Speaker2.jpg,Images/Speaker3.jpg,Images/Speaker4.jpg,Audio/Speaker4_En/P4-8-En.wav,Speaker4,گوینده۴,,,,,,,,,,,,,,,,0,48,48,67,,,,,,,,,,,,,160.81767508399935,,,,,,,,,,,,,,,,,,,,,,,,,,,,,,,,,,,,,,,,,,,,,160.79657162500007,160.81767508399935,160.81767508399935,160.81767508399935,160.81767508399935,160.8128825416682,160.81767508399935,160.81767508399935,160.8182709169996,Incorrect! The correct answer is Speaker4. نادرست! پاسخ صحیح گوینده۴ است,1,2.636823083001218,None,0,49,160.82200879200172,160.83202595900002,162.82713733399942,,,,,,,,,,,,,,,,,,,,,,,,,,,,,,,,,,,,,,,,,483646,001,2024-06-30_16h42.01.447,5-24,2024.1.4,None,2024-06-30 16h42.07.189795 +0900,
Images/Speaker1.jpg,Images/Speaker2.jpg,Images/Speaker3.jpg,Images/Speaker4.jpg,Audio/Speaker2_En/P2-14-En.wav,Speaker2,گوینده۲,,,,,,,,,,,,,,,,0,49,49,33,,,,,,,,,,,,,162.85067783400154,,,,,,,,,,,,,,,,,,,,,,,,,,,,,,,,,,,,,,,,,,,,,162.8277799589996,162.85067783400154,162.85067783400154,162.85067783400154,162.85067783400154,162.86029704233493,162.85067783400154,162.85067783400154,163.1276053340007,Incorrect! The correct answer is Speaker2. نادرست! پاسخ صحیح گوینده۲ است,1,0.2758914999976696,None,0,50,163.13142608400085,163.14562820900028,165.1300289589999,165.15212375000192,,,,,,,,,,,,,,,,,,,,,,,,,,,,,,,,,,,,,,,,483646,001,2024-06-30_16h42.01.447,5-24,2024.1.4,None,2024-06-30 16h42.07.189795 +0900,
Images/Speaker1.jpg,Images/Speaker2.jpg,Images/Speaker3.jpg,Images/Speaker4.jpg,Audio/Speaker2_En/P2-11-En.wav,Speaker2,گوینده۲,,,,,,,,,,,,,,,,0,50,50,30,,,,,,,,,,,,,165.15212375000192,,,,,,,,,,,,,,,,,,,,,,,,,,,,,,,,,,,,,,,,,,,,,165.1301959170014,165.15212375000192,165.15212375000192,165.15212375000192,165.15212375000192,165.1464834166657,165.15212375000192,165.15212375000192,165.7073315000016,Incorrect! The correct answer is Speaker2. نادرست! پاسخ صحیح گوینده۲ است,1,0.5457152080016385,None,0,51,165.71115991699844,165.7223065420003,167.71829641699878,,,,,,,,,,,,,,,,,,,,,,,,,,,,,,,,,,,,,,,,,483646,001,2024-06-30_16h42.01.447,5-24,2024.1.4,None,2024-06-30 16h42.07.189795 +0900,
Images/Speaker1.jpg,Images/Speaker2.jpg,Images/Speaker3.jpg,Images/Speaker4.jpg,Audio/Speaker2_En/P2-12-En.wav,Speaker2,گوینده۲,,,,,,,,,,,,,,,,0,51,51,31,,,,,,,,,,,,,167.739208125,,,,,,,,,,,,,,,,,,,,,,,,,,,,,,,,,,,,,,,,,,,,,167.7184544590018,167.739208125,167.739208125,167.739208125,167.739208125,167.73492933366677,167.739208125,167.739208125,167.739837000001,Incorrect! The correct answer is Speaker2. نادرست! پاسخ صحیح گوینده۲ است,1,2.5350680420015124,None,0,52,167.7439015839991,167.7538621249987,169.74595545899865,,,,,,,,,,,,,,,,,,,,,,,,,,,,,,,,,,,,,,,,,483646,001,2024-06-30_16h42.01.447,5-24,2024.1.4,None,2024-06-30 16h42.07.189795 +0900,
Images/Speaker1.jpg,Images/Speaker2.jpg,Images/Speaker3.jpg,Images/Speaker4.jpg,Audio/Speaker1_En/P1-13-En.wav,Speaker1,گوینده ۱,,,,,,,,,,,,,,,,0,52,52,12,,,,,,,,,,,,,169.76993116700032,,,,,,,,,,,,,,,,,,,,,,,,,,,,,,,,,,,,,,,,,,,,,169.74655454200183,169.76993116700032,169.76993116700032,169.76993116700032,169.76993116700032,169.77913912533455,169.76993116700032,169.76993116700032,171.03938641700006,Correct! صحیح است,1,1.267295000001468,None,0,53,171.04365912499998,171.0545672920016,173.04554358400128,,,,,,,,,,,,,,,,,,,,,,,,,,,,,,,,,,,,,,,,,483646,001,2024-06-30_16h42.01.447,5-24,2024.1.4,None,2024-06-30 16h42.07.189795 +0900,
Images/Speaker1.jpg,Images/Speaker2.jpg,Images/Speaker3.jpg,Images/Speaker4.jpg,Audio/Speaker3_En/P3-6-En.wav,Speaker3,گوینده۳,,,,,,,,,,,,,,,,0,53,53,45,,,,,,,,,,,,,173.07269195900153,,,,,,,,,,,,,,,,,,,,,,,,,,,,,,,,,,,,,,,,,,,,,173.0461400839995,173.07269195900153,173.07269195900153,173.07269195900153,173.07269195900153,173.07869125033227,173.07269195900153,173.07269195900153,173.43938983399858,Incorrect! The correct answer is Speaker3. نادرست! پاسخ صحیح گوینده۳ است,1,0.3561169999993581,None,0,54,173.44367379200048,173.4566268339986,175.44197037499907,175.46224395899844,,,,,,,,,,,,,,,,,,,,,,,,,,,,,,,,,,,,,,,,483646,001,2024-06-30_16h42.01.447,5-24,2024.1.4,None,2024-06-30 16h42.07.189795 +0900,
Images/Speaker1.jpg,Images/Speaker2.jpg,Images/Speaker3.jpg,Images/Speaker4.jpg,Audio/Speaker2_En/P2-20-En.wav,Speaker2,گوینده۲,,,,,,,,,,,,,,,,0,54,54,39,,,,,,,,,,,,,175.46224395899844,,,,,,,,,,,,,,,,,,,,,,,,,,,,,,,,,,,,,,,,,,,,,175.44212883400178,175.46224395899844,175.46224395899844,175.46224395899844,175.46224395899844,175.45840350066672,175.46224395899844,175.46224395899844,176.4573142090012,Incorrect! The correct answer is Speaker2. نادرست! پاسخ صحیح گوینده۲ است,1,0.9938062910005101,None,0,55,176.4611782920001,176.4739980000013,178.4696461249987,,,,,,,,,,,,,,,,,,,,,,,,,,,,,,,,,,,,,,,,,483646,001,2024-06-30_16h42.01.447,5-24,2024.1.4,None,2024-06-30 16h42.07.189795 +0900,
Images/Speaker1.jpg,Images/Speaker2.jpg,Images/Speaker3.jpg,Images/Speaker4.jpg,Audio/Speaker4_En/P4-17-En.wav,Speaker4,گوینده۴,,,,,,,,,,,,,,,,0,55,55,76,,,,,,,,,,,,,178.49420224999994,,,,,,,,,,,,,,,,,,,,,,,,,,,,,,,,,,,,,,,,,,,,,178.47032291700089,178.49420224999994,178.49420224999994,178.49420224999994,178.49420224999994,178.50272804233515,178.49420224999994,178.49420224999994,178.73757583399856,Incorrect! The correct answer is Speaker4. نادرست! پاسخ صحیح گوینده۴ است,1,0.23751124999762396,None,0,56,178.7423689169991,178.75709941700188,180.74496129199906,,,,,,,,,,,,,,,,,,,,,,,,,,,,,,,,,,,,,,,,,483646,001,2024-06-30_16h42.01.447,5-24,2024.1.4,None,2024-06-30 16h42.07.189795 +0900,
Images/Speaker1.jpg,Images/Speaker2.jpg,Images/Speaker3.jpg,Images/Speaker4.jpg,Audio/Speaker1_En/P1-12-En.wav,Speaker1,گوینده ۱,,,,,,,,,,,,,,,,0,56,56,11,,,,,,,,,,,,,180.768010374999,,,,,,,,,,,,,,,,,,,,,,,,,,,,,,,,,,,,,,,,,,,,,180.74553883399858,180.768010374999,180.768010374999,180.768010374999,180.768010374999,180.77807887533396,180.768010374999,180.768010374999,180.76868312499937,Correct! صحیح است,1,2.11153233299774,None,0,57,180.76895104199866,180.7770183749999,182.7604311670002,182.78088812499846,,,,,,,,,,,,,,,,,,,,,,,,,,,,,,,,,,,,,,,,483646,001,2024-06-30_16h42.01.447,5-24,2024.1.4,None,2024-06-30 16h42.07.189795 +0900,
Images/Speaker1.jpg,Images/Speaker2.jpg,Images/Speaker3.jpg,Images/Speaker4.jpg,Audio/Speaker4_En/P4-1-En.wav,Speaker4,گوینده۴,,,,,,,,,,,,,,,,0,57,57,60,,,,,,,,,,,,,182.78088812499846,,,,,,,,,,,,,,,,,,,,,,,,,,,,,,,,,,,,,,,,,,,,,182.76059158399949,182.78088812499846,182.78088812499846,182.78088812499846,182.78088812499846,182.77682570866844,182.78088812499846,182.78088812499846,183.20476804200007,Incorrect! The correct answer is Speaker4. نادرست! پاسخ صحیح گوینده۴ است,1,0.4150970420014346,None,0,58,183.20901524999863,183.22193925000101,185.20592958400084,185.22940262500197,,,,,,,,,,,,,,,,,,,,,,,,,,,,,,,,,,,,,,,,483646,001,2024-06-30_16h42.01.447,5-24,2024.1.4,None,2024-06-30 16h42.07.189795 +0900,
Images/Speaker1.jpg,Images/Speaker2.jpg,Images/Speaker3.jpg,Images/Speaker4.jpg,Audio/Speaker4_En/P4-13-En.wav,Speaker4,گوینده۴,,,,,,,,,,,,,,,,0,58,58,72,,,,,,,,,,,,,185.22940262500197,,,,,,,,,,,,,,,,,,,,,,,,,,,,,,,,,,,,,,,,,,,,,185.2068145000012,185.22940262500197,185.22940262500197,185.22940262500197,185.22940262500197,185.2381167503341,185.22940262500197,185.22940262500197,185.23002162500052,Incorrect! The correct answer is Speaker4. نادرست! پاسخ صحیح گوینده۴ است,1,2.290908667000622,None,0,59,185.230220292,185.23965204200067,187.22931941700153,187.249663417002,,,,,,,,,,,,,,,,,,,,,,,,,,,,,,,,,,,,,,,,483646,001,2024-06-30_16h42.01.447,5-24,2024.1.4,None,2024-06-30 16h42.07.189795 +0900,
Images/Speaker1.jpg,Images/Speaker2.jpg,Images/Speaker3.jpg,Images/Speaker4.jpg,Audio/Speaker3_En/P3-18-En.wav,Speaker3,گوینده۳,,,,,,,,,,,,,,,,0,59,59,57,,,,,,,,,,,,,187.249663417002,,,,,,,,,,,,,,,,,,,,,,,,,,,,,,,,,,,,,,,,,,,,,187.22951533400192,187.249663417002,187.249663417002,187.249663417002,187.249663417002,187.24573995866766,187.249663417002,187.249663417002,188.04273250000188,Incorrect! The correct answer is Speaker3. نادرست! پاسخ صحیح گوینده۳ است,1,0.7916667499994219,None,0,60,188.04699445900042,188.05925766699875,190.04612191699925,190.07086029199854,,,,,,,,,,,,,,,,,,,,,,,,,,,,,,,,,,,,,,,,483646,001,2024-06-30_16h42.01.447,5-24,2024.1.4,None,2024-06-30 16h42.07.189795 +0900,
Images/Speaker1.jpg,Images/Speaker2.jpg,Images/Speaker3.jpg,Images/Speaker4.jpg,Audio/Speaker4_En/P4-15-En.wav,Speaker4,گوینده۴,,,,,,,,,,,,,,,,0,60,60,74,,,,,,,,,,,,,190.07086029199854,,,,,,,,,,,,,,,,,,,,,,,,,,,,,,,,,,,,,,,,,,,,,190.04688199999873,190.07086029199854,190.07086029199854,190.07086029199854,190.07086029199854,190.0785637083323,190.07086029199854,190.07086029199854,190.91773958400154,Incorrect! The correct answer is Speaker4. نادرست! پاسخ صحیح گوینده۴ است,1,0.8417999160010368,None,0,61,190.92189625000174,190.93675191700095,192.9293857090015,,,,,,,,,,,,,,,,,,,,,,,,,,,,,,,,,,,,,,,,,483646,001,2024-06-30_16h42.01.447,5-24,2024.1.4,None,2024-06-30 16h42.07.189795 +0900,
Images/Speaker1.jpg,Images/Speaker2.jpg,Images/Speaker3.jpg,Images/Speaker4.jpg,Audio/Speaker1_En/P1-9-En.wav,Speaker1,گوینده ۱,,,,,,,,,,,,,,,,0,61,61,8,,,,,,,,,,,,,192.95036362500105,,,,,,,,,,,,,,,,,,,,,,,,,,,,,,,,,,,,,,,,,,,,,192.92955104200155,192.95036362500105,192.95036362500105,192.95036362500105,192.95036362500105,192.9460142916653,192.95036362500105,192.95036362500105,192.95098074999987,Correct! صحیح است,1,2.7273582500019984,None,0,62,192.9549481670001,192.96260641700064,194.9474020839989,194.97083316700082,,,,,,,,,,,,,,,,,,,,,,,,,,,,,,,,,,,,,,,,483646,001,2024-06-30_16h42.01.447,5-24,2024.1.4,None,2024-06-30 16h42.07.189795 +0900,
Images/Speaker1.jpg,Images/Speaker2.jpg,Images/Speaker3.jpg,Images/Speaker4.jpg,Audio/Speaker1_En/P1-1-En.wav,Speaker1,گوینده ۱,,,,,,,,,,,,,,,,0,62,62,0,,,,,,,,,,,,,194.97083316700082,,,,,,,,,,,,,,,,,,,,,,,,,,,,,,,,,,,,,,,,,,,,,194.94820791700113,194.97083316700082,194.97083316700082,194.97083316700082,194.97083316700082,194.9797879583353,194.97083316700082,194.97083316700082,195.16037262499958,Correct! صحیح است,1,0.18277870800011442,None,0,63,195.16438779199962,195.17536408399974,197.1697482089985,,,,,,,,,,,,,,,,,,,,,,,,,,,,,,,,,,,,,,,,,483646,001,2024-06-30_16h42.01.447,5-24,2024.1.4,None,2024-06-30 16h42.07.189795 +0900,
Images/Speaker1.jpg,Images/Speaker2.jpg,Images/Speaker3.jpg,Images/Speaker4.jpg,Audio/Speaker4_En/P4-6-En.wav,Speaker4,گوینده۴,,,,,,,,,,,,,,,,0,63,63,65,,,,,,,,,,,,,197.19472300000052,,,,,,,,,,,,,,,,,,,,,,,,,,,,,,,,,,,,,,,,,,,,,197.1699523339994,197.19472300000052,197.19472300000052,197.19472300000052,197.19472300000052,197.18636750066824,197.19472300000052,197.19472300000052,197.19537208399925,Incorrect! The correct answer is Speaker4. نادرست! پاسخ صحیح گوینده۴ است,1,2.1999435420002555,None,0,64,197.1990488340016,197.20932395899945,199.19193720900148,199.21382300000187,,,,,,,,,,,,,,,,,,,,,,,,,,,,,,,,,,,,,,,,483646,001,2024-06-30_16h42.01.447,5-24,2024.1.4,None,2024-06-30 16h42.07.189795 +0900,
Images/Speaker1.jpg,Images/Speaker2.jpg,Images/Speaker3.jpg,Images/Speaker4.jpg,Audio/Speaker3_En/P3-20-En.wav,Speaker3,گوینده۳,,,,,,,,,,,,,,,,0,64,64,59,,,,,,,,,,,,,199.21382300000187,,,,,,,,,,,,,,,,,,,,,,,,,,,,,,,,,,,,,,,,,,,,,199.19213004199992,199.21382300000187,199.21382300000187,199.21382300000187,199.21382300000187,199.20837304166733,199.21382300000187,199.21382300000187,200.1488091249994,Incorrect! The correct answer is Speaker3. نادرست! پاسخ صحیح گوینده۳ است,1,0.9331630839988065,None,0,65,200.15287045900186,200.1655728750011,202.1533505840016,,,,,,,,,,,,,,,,,,,,,,,,,,,,,,,,,,,,,,,,,483646,001,2024-06-30_16h42.01.447,5-24,2024.1.4,None,2024-06-30 16h42.07.189795 +0900,
Images/Speaker1.jpg,Images/Speaker2.jpg,Images/Speaker3.jpg,Images/Speaker4.jpg,Audio/Speaker4_En/P4-10-En.wav,Speaker4,گوینده۴,,,,,,,,,,,,,,,,0,65,65,69,,,,,,,,,,,,,202.17453995899996,,,,,,,,,,,,,,,,,,,,,,,,,,,,,,,,,,,,,,,,,,,,,202.1535194169992,202.17453995899996,202.17453995899996,202.17453995899996,202.17453995899996,202.1699825006656,202.17453995899996,202.17453995899996,202.23913275000086,Incorrect! The correct answer is Speaker4. نادرست! پاسخ صحیح گوینده۴ است,1,0.06341274999795132,None,0,66,202.24280875000113,202.25520254200092,204.24709158399855,,,,,,,,,,,,,,,,,,,,,,,,,,,,,,,,,,,,,,,,,483646,001,2024-06-30_16h42.01.447,5-24,2024.1.4,None,2024-06-30 16h42.07.189795 +0900,
Images/Speaker1.jpg,Images/Speaker2.jpg,Images/Speaker3.jpg,Images/Speaker4.jpg,Audio/Speaker4_En/P4-2-En.wav,Speaker4,گوینده۴,,,,,,,,,,,,,,,,0,66,66,61,,,,,,,,,,,,,204.26901308400193,,,,,,,,,,,,,,,,,,,,,,,,,,,,,,,,,,,,,,,,,,,,,204.2472461670004,204.26901308400193,204.26901308400193,204.26901308400193,204.26901308400193,204.26372450066654,204.26901308400193,204.26901308400193,204.55895795900142,Incorrect! The correct answer is Speaker4. نادرست! پاسخ صحیح گوینده۴ است,1,0.28746262500135344,None,0,67,204.56316808400152,204.57592570899942,206.5621033339994,206.58274425000127,,,,,,,,,,,,,,,,,,,,,,,,,,,,,,,,,,,,,,,,483646,001,2024-06-30_16h42.01.447,5-24,2024.1.4,None,2024-06-30 16h42.07.189795 +0900,
Images/Speaker1.jpg,Images/Speaker2.jpg,Images/Speaker3.jpg,Images/Speaker4.jpg,Audio/Speaker2_En/P2-5-En.wav,Speaker2,گوینده۲,,,,,,,,,,,,,,,,0,67,67,24,,,,,,,,,,,,,206.58274425000127,,,,,,,,,,,,,,,,,,,,,,,,,,,,,,,,,,,,,,,,,,,,,206.5622513749986,206.58274425000127,206.58274425000127,206.58274425000127,206.58274425000127,206.5785304586682,206.58274425000127,206.58274425000127,206.75466479199895,Incorrect! The correct answer is Speaker2. نادرست! پاسخ صحیح گوینده۲ است,1,0.16842787499990663,None,0,68,206.75876425000024,206.77115904200036,208.75594695900145,208.77865804199973,,,,,,,,,,,,,,,,,,,,,,,,,,,,,,,,,,,,,,,,483646,001,2024-06-30_16h42.01.447,5-24,2024.1.4,None,2024-06-30 16h42.07.189795 +0900,
Images/Speaker1.jpg,Images/Speaker2.jpg,Images/Speaker3.jpg,Images/Speaker4.jpg,Audio/Speaker3_En/P3-4-En.wav,Speaker3,گوینده۳,,,,,,,,,,,,,,,,0,68,68,43,,,,,,,,,,,,,208.77865804199973,,,,,,,,,,,,,,,,,,,,,,,,,,,,,,,,,,,,,,,,,,,,,208.7561162919992,208.77865804199973,208.77865804199973,208.77865804199973,208.77865804199973,208.77236737566662,208.77865804199973,208.77865804199973,208.9971414169995,Incorrect! The correct answer is Speaker3. نادرست! پاسخ صحیح گوینده۳ است,1,0.21363204199951724,None,0,69,209.0013219169996,209.01370212500115,210.99907129200074,211.02010787499967,,,,,,,,,,,,,,,,,,,,,,,,,,,,,,,,,,,,,,,,483646,001,2024-06-30_16h42.01.447,5-24,2024.1.4,None,2024-06-30 16h42.07.189795 +0900,
Images/Speaker1.jpg,Images/Speaker2.jpg,Images/Speaker3.jpg,Images/Speaker4.jpg,Audio/Speaker3_En/P3-13-En.wav,Speaker3,گوینده۳,,,,,,,,,,,,,,,,0,69,69,52,,,,,,,,,,,,,211.02010787499967,,,,,,,,,,,,,,,,,,,,,,,,,,,,,,,,,,,,,,,,,,,,,210.9992481670015,211.02010787499967,211.02010787499967,211.02010787499967,211.02010787499967,211.0153865006653,211.02010787499967,211.02010787499967,212.08351841699914,Incorrect! The correct answer is Speaker3. نادرست! پاسخ صحیح گوینده۳ است,1,1.0541769999981625,None,0,70,212.0872718339997,212.09961158399892,214.0891447089998,,,,,,,,,,,,,,,,,,,,,,,,,,,,,,,,,,,,,,,,,483646,001,2024-06-30_16h42.01.447,5-24,2024.1.4,None,2024-06-30 16h42.07.189795 +0900,
Images/Speaker1.jpg,Images/Speaker2.jpg,Images/Speaker3.jpg,Images/Speaker4.jpg,Audio/Speaker4_En/P4-12-En.wav,Speaker4,گوینده۴,,,,,,,,,,,,,,,,0,70,70,71,,,,,,,,,,,,,214.10981870899923,,,,,,,,,,,,,,,,,,,,,,,,,,,,,,,,,,,,,,,,,,,,,214.0893043340002,214.10981870899923,214.10981870899923,214.10981870899923,214.10981870899923,214.1057726256661,214.10981870899923,214.10981870899923,214.4772057500013,Incorrect! The correct answer is Speaker4. نادرست! پاسخ صحیح گوینده۴ است,1,0.3654296250024345,None,0,71,214.481342209001,214.49483966700063,216.48170454199862,,,,,,,,,,,,,,,,,,,,,,,,,,,,,,,,,,,,,,,,,483646,001,2024-06-30_16h42.01.447,5-24,2024.1.4,None,2024-06-30 16h42.07.189795 +0900,
Images/Speaker1.jpg,Images/Speaker2.jpg,Images/Speaker3.jpg,Images/Speaker4.jpg,Audio/Speaker1_En/P1-5-En.wav,Speaker1,گوینده ۱,,,,,,,,,,,,,,,,0,71,71,4,,,,,,,,,,,,,216.50580949999858,,,,,,,,,,,,,,,,,,,,,,,,,,,,,,,,,,,,,,,,,,,,,216.4818706670012,216.50580949999858,216.50580949999858,216.50580949999858,216.50580949999858,216.49831520866817,216.50580949999858,216.50580949999858,216.50655033400108,Correct! صحیح است,1,2.373564500001521,None,0,72,216.51039504200162,216.51817250000022,218.508937958999,218.53106874999867,,,,,,,,,,,,,,,,,,,,,,,,,,,,,,,,,,,,,,,,483646,001,2024-06-30_16h42.01.447,5-24,2024.1.4,None,2024-06-30 16h42.07.189795 +0900,
Images/Speaker1.jpg,Images/Speaker2.jpg,Images/Speaker3.jpg,Images/Speaker4.jpg,Audio/Speaker2_En/P2-10-En.wav,Speaker2,گوینده۲,,,,,,,,,,,,,,,,0,72,72,29,,,,,,,,,,,,,218.53106874999867,,,,,,,,,,,,,,,,,,,,,,,,,,,,,,,,,,,,,,,,,,,,,218.50986429200202,218.53106874999867,218.53106874999867,218.53106874999867,218.53106874999867,218.52465145866543,218.53106874999867,218.53106874999867,218.91170762500042,Incorrect! The correct answer is Speaker2. نادرست! پاسخ صحیح گوینده۲ است,1,0.37766774999909103,None,0,73,218.91541829199923,218.92795050000132,220.91428775000168,220.93565237499934,,,,,,,,,,,,,,,,,,,,,,,,,,,,,,,,,,,,,,,,483646,001,2024-06-30_16h42.01.447,5-24,2024.1.4,None,2024-06-30 16h42.07.189795 +0900,
Images/Speaker1.jpg,Images/Speaker2.jpg,Images/Speaker3.jpg,Images/Speaker4.jpg,Audio/Speaker3_En/P3-10-En.wav,Speaker3,گوینده۳,,,,,,,,,,,,,,,,0,73,73,49,,,,,,,,,,,,,220.93565237499934,,,,,,,,,,,,,,,,,,,,,,,,,,,,,,,,,,,,,,,,,,,,,220.91444783399857,220.93565237499934,220.93565237499934,220.93565237499934,220.93565237499934,220.93068933366547,220.93565237499934,220.93565237499934,221.5867270000017,Incorrect! The correct answer is Speaker3. نادرست! پاسخ صحیح گوینده۳ است,1,0.6470675829987158,None,0,74,221.59164375000182,221.6059884589995,223.59191429199927,,,,,,,,,,,,,,,,,,,,,,,,,,,,,,,,,,,,,,,,,483646,001,2024-06-30_16h42.01.447,5-24,2024.1.4,None,2024-06-30 16h42.07.189795 +0900,
Images/Speaker1.jpg,Images/Speaker2.jpg,Images/Speaker3.jpg,Images/Speaker4.jpg,Audio/Speaker3_En/P3-17-En.wav,Speaker3,گوینده۳,,,,,,,,,,,,,,,,0,74,74,56,,,,,,,,,,,,,223.61322937500154,,,,,,,,,,,,,,,,,,,,,,,,,,,,,,,,,,,,,,,,,,,,,223.59211670900186,223.61322937500154,223.61322937500154,223.61322937500154,223.61322937500154,223.60850508366664,223.61322937500154,223.61322937500154,224.47500950000176,Incorrect! The correct answer is Speaker3. نادرست! پاسخ صحیح گوینده۳ است,1,0.8579923329998564,None,0,75,224.47920595899996,224.49155758399866,226.47933941700103,,,,,,,,,,,,,,,,,,,,,,,,,,,,,,,,,,,,,,,,,483646,001,2024-06-30_16h42.01.447,5-24,2024.1.4,None,2024-06-30 16h42.07.189795 +0900,
Images/Speaker1.jpg,Images/Speaker2.jpg,Images/Speaker3.jpg,Images/Speaker4.jpg,Audio/Speaker2_En/P2-1-En.wav,Speaker2,گوینده۲,,,,,,,,,,,,,,,,0,75,75,20,,,,,,,,,,,,,226.5002180420015,,,,,,,,,,,,,,,,,,,,,,,,,,,,,,,,,,,,,,,,,,,,,226.47950800000035,226.5002180420015,226.5002180420015,226.5002180420015,226.5002180420015,226.49595979166796,226.5002180420015,226.5002180420015,226.7391885420002,Incorrect! The correct answer is Speaker2. نادرست! پاسخ صحیح گوینده۲ است,1,0.23409991700100363,None,0,76,226.74328462500125,226.75625270900127,228.73999674999868,228.7607405000017,,,,,,,,,,,,,,,,,,,,,,,,,,,,,,,,,,,,,,,,483646,001,2024-06-30_16h42.01.447,5-24,2024.1.4,None,2024-06-30 16h42.07.189795 +0900,
Images/Speaker1.jpg,Images/Speaker2.jpg,Images/Speaker3.jpg,Images/Speaker4.jpg,Audio/Speaker4_En/P4-19-En.wav,Speaker4,گوینده۴,,,,,,,,,,,,,,,,0,76,76,78,,,,,,,,,,,,,228.7607405000017,,,,,,,,,,,,,,,,,,,,,,,,,,,,,,,,,,,,,,,,,,,,,228.7401799170002,228.7607405000017,228.7607405000017,228.7607405000017,228.7607405000017,228.75641933366595,228.7607405000017,228.7607405000017,228.7817123749992,Incorrect! The correct answer is Speaker4. نادرست! پاسخ صحیح گوینده۴ است,1,0.019599582999944687,None,0,77,228.78575724999973,228.7983889169991,230.78710129200044,,,,,,,,,,,,,,,,,,,,,,,,,,,,,,,,,,,,,,,,,483646,001,2024-06-30_16h42.01.447,5-24,2024.1.4,None,2024-06-30 16h42.07.189795 +0900,
Images/Speaker1.jpg,Images/Speaker2.jpg,Images/Speaker3.jpg,Images/Speaker4.jpg,Audio/Speaker3_En/P3-16-En.wav,Speaker3,گوینده۳,,,,,,,,,,,,,,,,0,77,77,55,,,,,,,,,,,,,230.80804195900055,,,,,,,,,,,,,,,,,,,,,,,,,,,,,,,,,,,,,,,,,,,,,230.7872637090004,230.80804195900055,230.80804195900055,230.80804195900055,230.80804195900055,230.80373629166596,230.80804195900055,230.80804195900055,230.81701233399872,Incorrect! The correct answer is Speaker3. نادرست! پاسخ صحیح گوینده۳ است,1,0.0012534579982457217,None,0,78,230.82108933400013,230.83111645900135,232.81749004200174,232.84134837500096,,,,,,,,,,,,,,,,,,,,,,,,,,,,,,,,,,,,,,,,483646,001,2024-06-30_16h42.01.447,5-24,2024.1.4,None,2024-06-30 16h42.07.189795 +0900,
Images/Speaker1.jpg,Images/Speaker2.jpg,Images/Speaker3.jpg,Images/Speaker4.jpg,Audio/Speaker4_En/P4-4-En.wav,Speaker4,گوینده۴,,,,,,,,,,,,,,,,0,78,78,63,,,,,,,,,,,,,232.84134837500096,,,,,,,,,,,,,,,,,,,,,,,,,,,,,,,,,,,,,,,,,,,,,232.81841324999914,232.84134837500096,232.84134837500096,232.84134837500096,232.84134837500096,232.84983637533202,232.84134837500096,232.84134837500096,233.43520816700038,Incorrect! The correct answer is Speaker4. نادرست! پاسخ صحیح گوینده۴ است,1,0.5911915830001817,None,0,79,233.43924741700175,233.45204462499896,235.43885166700056,235.4633828340011,,,,,,,,,,,,,,,,,,,,,,,,,,,,,,,,,,,,,,,,483646,001,2024-06-30_16h42.01.447,5-24,2024.1.4,None,2024-06-30 16h42.07.189795 +0900,
Images/Speaker1.jpg,Images/Speaker2.jpg,Images/Speaker3.jpg,Images/Speaker4.jpg,Audio/Speaker3_En/P3-8-En.wav,Speaker3,گوینده۳,,,,,,,,,,,,,,,,0,79,79,47,,,,,,,,,,,,,235.4633828340011,,,,,,,,,,,,,,,,,,,,,,,,,,,,,,,,,,,,,,,,,,,,,235.43975800000044,235.4633828340011,235.4633828340011,235.4633828340011,235.4633828340011,235.47124379233406,235.4633828340011,235.4633828340011,235.55216383399966,Incorrect! The correct answer is Speaker3. نادرست! پاسخ صحیح گوینده۳ است,1,0.08604737499990733,None,0,80,235.55644012500125,235.56856754199907,237.55358433400033,237.56543666699872,,,,,,,,,,,,,,,,,,,,,,,,,,,,,,,,,,,,,,,,483646,001,2024-06-30_16h42.01.447,5-24,2024.1.4,None,2024-06-30 16h42.07.189795 +0900,
,,,,,,,,,,,,,,,,,,,,,,,,,,,,,,,,,,,,,,,,,,,,,,,,,,,,,,,,,,,,,,,,,,,,,,,,,,,,,,,,,,,,,,,,,,,,,,,,,,,,,,237.55363183400186,0,0,0.0,False,237.55383358399922,,,,,,,,,,,,,,,,,,,,,,,,,,,,,,,,,,483646,001,2024-06-30_16h42.01.447,5-24,2024.1.4,None,2024-06-30 16h42.07.189795 +0900,
,,,,,,,,,,,,,,,,,,,,,,,,,,,,,,,,,,,,,,,,,,,,,,,,,,,,,,,,,,,,,,,,,,,,,,,,,,,,,,,,,,,,,,,,,,,,,,,,,,,,,,,,,,,,237.55384654199952,237.56543666699872,245.1596677919988,242.54960708400176,,,,,,,,,,,,,,,,,,,,,,,,,,,,,,483646,001,2024-06-30_16h42.01.447,5-24,2024.1.4,None,2024-06-30 16h42.07.189795 +0900,
,,,,,,,Images/Speaker1.jpg,Images/Speaker2.jpg,Images/Speaker3.jpg,Images/Speaker4.jpg,Audio/Speaker2_Per/P2-18-Per.wav,Speaker2,گوینده۲,,,,,,,,,,,,,0,0,0,37,,,,,,,,,245.1596677919988,,,,,,,,,,,,,,,,,,,,,,,,,,,,,,,,,,,,,,,,,,,,,,,,,,,,,,,,,,,,,,,,,,,,,,,,,,242.57263950000197,242.58884445900185,None,No response,Images/Speaker1.jpg,Images/Speaker2.jpg,Images/Speaker3.jpg,Images/Speaker4.jpg,Audio/Speaker2_Per/P2-18-Per.wav,Speaker3,گوینده۳,,,,,,,,,,,,,,,,,,,483646,001,2024-06-30_16h42.01.447,5-24,2024.1.4,None,2024-06-30 16h42.07.189795 +0900,
,,,,,,,Images/Speaker1.jpg,Images/Speaker2.jpg,Images/Speaker3.jpg,Images/Speaker4.jpg,Audio/Speaker2_Per/P2-16-Per.wav,Speaker2,گوینده۲,,,,,,,,,,,,,0,1,1,35,,,,,,,,,245.1596677919988,,,,,,,,,,,,,,,,,,,,,,,,,,,,,,,,,,,,,,,,,,,,,,,,,,,,,,,,,,,,,,,,,,,,,,,,,,242.5891361670001,242.60124608399929,None,No response,Images/Speaker1.jpg,Images/Speaker2.jpg,Images/Speaker3.jpg,Images/Speaker4.jpg,Audio/Speaker2_Per/P2-16-Per.wav,Speaker3,گوینده۳,,,,,,,,,,,,,,,,,,,483646,001,2024-06-30_16h42.01.447,5-24,2024.1.4,None,2024-06-30 16h42.07.189795 +0900,
,,,,,,,Images/Speaker1.jpg,Images/Speaker2.jpg,Images/Speaker3.jpg,Images/Speaker4.jpg,Audio/Speaker1_Per/P1-16-Per.wav,Speaker1,گوینده ۱,,,,,,,,,,,,,0,2,2,15,,,,,,,,,245.1596677919988,,,,,,,,,,,,,,,,,,,,,,,,,,,,,,,,,,,,,,,,,,,,,,,,,,,,,,,,,,,,,,,,,,,,,,,,,,242.60142595900106,242.61324279200198,None,No response,Images/Speaker1.jpg,Images/Speaker2.jpg,Images/Speaker3.jpg,Images/Speaker4.jpg,Audio/Speaker1_Per/P1-16-Per.wav,Speaker3,گوینده۳,,,,,,,,,,,,,,,,,,,483646,001,2024-06-30_16h42.01.447,5-24,2024.1.4,None,2024-06-30 16h42.07.189795 +0900,
,,,,,,,Images/Speaker1.jpg,Images/Speaker2.jpg,Images/Speaker3.jpg,Images/Speaker4.jpg,Audio/Speaker4_Per/P4-3-Per.wav,Speaker4,گوینده۴,,,,,,,,,,,,,0,3,3,62,,,,,,,,,245.1596677919988,,,,,,,,,,,,,,,,,,,,,,,,,,,,,,,,,,,,,,,,,,,,,,,,,,,,,,,,,,,,,,,,,,,,,,,,,,242.6134145420001,242.62564812500204,None,No response,Images/Speaker1.jpg,Images/Speaker2.jpg,Images/Speaker3.jpg,Images/Speaker4.jpg,Audio/Speaker4_Per/P4-3-Per.wav,Speaker3,گوینده۳,,,,,,,,,,,,,,,,,,,483646,001,2024-06-30_16h42.01.447,5-24,2024.1.4,None,2024-06-30 16h42.07.189795 +0900,
,,,,,,,Images/Speaker1.jpg,Images/Speaker2.jpg,Images/Speaker3.jpg,Images/Speaker4.jpg,Audio/Speaker2_Per/P2-19-Per.wav,Speaker2,گوینده۲,,,,,,,,,,,,,0,4,4,38,,,,,,,,,245.1596677919988,,,,,,,,,,,,,,,,,,,,,,,,,,,,,,,,,,,,,,,,,,,,,,,,,,,,,,,,,,,,,,,,,,,,,,,,,,242.62582216699957,242.63819254199916,None,No response,Images/Speaker1.jpg,Images/Speaker2.jpg,Images/Speaker3.jpg,Images/Speaker4.jpg,Audio/Speaker2_Per/P2-19-Per.wav,Speaker3,گوینده۳,,,,,,,,,,,,,,,,,,,483646,001,2024-06-30_16h42.01.447,5-24,2024.1.4,None,2024-06-30 16h42.07.189795 +0900,
,,,,,,,Images/Speaker1.jpg,Images/Speaker2.jpg,Images/Speaker3.jpg,Images/Speaker4.jpg,Audio/Speaker1_Per/P1-20-Per.wav,Speaker1,گوینده ۱,,,,,,,,,,,,,0,5,5,19,,,,,,,,,245.1596677919988,,,,,,,,,,,,,,,,,,,,,,,,,,,,,,,,,,,,,,,,,,,,,,,,,,,,,,,,,,,,,,,,,,,,,,,,,,242.63835429200117,242.64950354200118,None,No response,Images/Speaker1.jpg,Images/Speaker2.jpg,Images/Speaker3.jpg,Images/Speaker4.jpg,Audio/Speaker1_Per/P1-20-Per.wav,Speaker3,گوینده۳,,,,,,,,,,,,,,,,,,,483646,001,2024-06-30_16h42.01.447,5-24,2024.1.4,None,2024-06-30 16h42.07.189795 +0900,
,,,,,,,Images/Speaker1.jpg,Images/Speaker2.jpg,Images/Speaker3.jpg,Images/Speaker4.jpg,Audio/Speaker3_Per/P3-11-Per.wav,Speaker3,گوینده۳,,,,,,,,,,,,,0,6,6,50,,,,,,,,,245.1596677919988,,,,,,,,,,,,,,,,,,,,,,,,,,,,,,,,,,,,,,,,,,,,,,,,,,,,,,,,,,,,,,,,,,,,,,,,,,242.64965858399955,242.66174654199858,None,No response,Images/Speaker1.jpg,Images/Speaker2.jpg,Images/Speaker3.jpg,Images/Speaker4.jpg,Audio/Speaker3_Per/P3-11-Per.wav,Speaker3,گوینده۳,,,,,,,,,,,,,,,,,,,483646,001,2024-06-30_16h42.01.447,5-24,2024.1.4,None,2024-06-30 16h42.07.189795 +0900,
,,,,,,,Images/Speaker1.jpg,Images/Speaker2.jpg,Images/Speaker3.jpg,Images/Speaker4.jpg,Audio/Speaker4_Per/P4-5-Per.wav,Speaker4,گوینده۴,,,,,,,,,,,,,0,7,7,64,,,,,,,,,245.1596677919988,,,,,,,,,,,,,,,,,,,,,,,,,,,,,,,,,,,,,,,,,,,,,,,,,,,,,,,,,,,,,,,,,,,,,,,,,,242.66190774999995,242.67263466700024,None,No response,Images/Speaker1.jpg,Images/Speaker2.jpg,Images/Speaker3.jpg,Images/Speaker4.jpg,Audio/Speaker4_Per/P4-5-Per.wav,Speaker3,گوینده۳,,,,,,,,,,,,,,,,,,,483646,001,2024-06-30_16h42.01.447,5-24,2024.1.4,None,2024-06-30 16h42.07.189795 +0900,
,,,,,,,Images/Speaker1.jpg,Images/Speaker2.jpg,Images/Speaker3.jpg,Images/Speaker4.jpg,Audio/Speaker1_Per/P1-7-Per.wav,Speaker1,گوینده ۱,,,,,,,,,,,,,0,8,8,6,,,,,,,,,245.1596677919988,,,,,,,,,,,,,,,,,,,,,,,,,,,,,,,,,,,,,,,,,,,,,,,,,,,,,,,,,,,,,,,,,,,,,,,,,,242.67278204200193,242.68318745899887,None,No response,Images/Speaker1.jpg,Images/Speaker2.jpg,Images/Speaker3.jpg,Images/Speaker4.jpg,Audio/Speaker1_Per/P1-7-Per.wav,Speaker3,گوینده۳,,,,,,,,,,,,,,,,,,,483646,001,2024-06-30_16h42.01.447,5-24,2024.1.4,None,2024-06-30 16h42.07.189795 +0900,
,,,,,,,Images/Speaker1.jpg,Images/Speaker2.jpg,Images/Speaker3.jpg,Images/Speaker4.jpg,Audio/Speaker2_Per/P2-6-Per.wav,Speaker2,گوینده۲,,,,,,,,,,,,,0,9,9,25,,,,,,,,,245.1596677919988,,,,,,,,,,,,,,,,,,,,,,,,,,,,,,,,,,,,,,,,,,,,,,,,,,,,,,,,,,,,,,,,,,,,,,,,,,242.68334187499931,242.69406512500063,None,No response,Images/Speaker1.jpg,Images/Speaker2.jpg,Images/Speaker3.jpg,Images/Speaker4.jpg,Audio/Speaker2_Per/P2-6-Per.wav,Speaker3,گوینده۳,,,,,,,,,,,,,,,,,,,483646,001,2024-06-30_16h42.01.447,5-24,2024.1.4,None,2024-06-30 16h42.07.189795 +0900,
,,,,,,,Images/Speaker1.jpg,Images/Speaker2.jpg,Images/Speaker3.jpg,Images/Speaker4.jpg,Audio/Speaker4_Per/P4-20-Per.wav,Speaker4,گوینده۴,,,,,,,,,,,,,0,10,10,79,,,,,,,,,245.1596677919988,,,,,,,,,,,,,,,,,,,,,,,,,,,,,,,,,,,,,,,,,,,,,,,,,,,,,,,,,,,,,,,,,,,,,,,,,,242.69421554200017,242.70465316699847,None,No response,Images/Speaker1.jpg,Images/Speaker2.jpg,Images/Speaker3.jpg,Images/Speaker4.jpg,Audio/Speaker4_Per/P4-20-Per.wav,Speaker3,گوینده۳,,,,,,,,,,,,,,,,,,,483646,001,2024-06-30_16h42.01.447,5-24,2024.1.4,None,2024-06-30 16h42.07.189795 +0900,
,,,,,,,Images/Speaker1.jpg,Images/Speaker2.jpg,Images/Speaker3.jpg,Images/Speaker4.jpg,Audio/Speaker4_Per/P4-10-Per.wav,Speaker4,گوینده۴,,,,,,,,,,,,,0,11,11,69,,,,,,,,,245.1596677919988,,,,,,,,,,,,,,,,,,,,,,,,,,,,,,,,,,,,,,,,,,,,,,,,,,,,,,,,,,,,,,,,,,,,,,,,,,242.70479374999923,242.71533454200107,None,No response,Images/Speaker1.jpg,Images/Speaker2.jpg,Images/Speaker3.jpg,Images/Speaker4.jpg,Audio/Speaker4_Per/P4-10-Per.wav,Speaker3,گوینده۳,,,,,,,,,,,,,,,,,,,483646,001,2024-06-30_16h42.01.447,5-24,2024.1.4,None,2024-06-30 16h42.07.189795 +0900,
,,,,,,,Images/Speaker1.jpg,Images/Speaker2.jpg,Images/Speaker3.jpg,Images/Speaker4.jpg,Audio/Speaker1_Per/P1-8-Per.wav,Speaker1,گوینده ۱,,,,,,,,,,,,,0,12,12,7,,,,,,,,,245.1596677919988,,,,,,,,,,,,,,,,,,,,,,,,,,,,,,,,,,,,,,,,,,,,,,,,,,,,,,,,,,,,,,,,,,,,,,,,,,242.71547462500166,242.72601391699936,None,No response,Images/Speaker1.jpg,Images/Speaker2.jpg,Images/Speaker3.jpg,Images/Speaker4.jpg,Audio/Speaker1_Per/P1-8-Per.wav,Speaker3,گوینده۳,,,,,,,,,,,,,,,,,,,483646,001,2024-06-30_16h42.01.447,5-24,2024.1.4,None,2024-06-30 16h42.07.189795 +0900,
,,,,,,,Images/Speaker1.jpg,Images/Speaker2.jpg,Images/Speaker3.jpg,Images/Speaker4.jpg,Audio/Speaker3_Per/P3-3-Per.wav,Speaker3,گوینده۳,,,,,,,,,,,,,0,13,13,42,,,,,,,,,245.1596677919988,,,,,,,,,,,,,,,,,,,,,,,,,,,,,,,,,,,,,,,,,,,,,,,,,,,,,,,,,,,,,,,,,,,,,,,,,,242.72615666699858,242.73638016699988,None,No response,Images/Speaker1.jpg,Images/Speaker2.jpg,Images/Speaker3.jpg,Images/Speaker4.jpg,Audio/Speaker3_Per/P3-3-Per.wav,Speaker3,گوینده۳,,,,,,,,,,,,,,,,,,,483646,001,2024-06-30_16h42.01.447,5-24,2024.1.4,None,2024-06-30 16h42.07.189795 +0900,
,,,,,,,Images/Speaker1.jpg,Images/Speaker2.jpg,Images/Speaker3.jpg,Images/Speaker4.jpg,Audio/Speaker3_Per/P3-4-Per.wav,Speaker3,گوینده۳,,,,,,,,,,,,,0,14,14,43,,,,,,,,,245.1596677919988,,,,,,,,,,,,,,,,,,,,,,,,,,,,,,,,,,,,,,,,,,,,,,,,,,,,,,,,,,,,,,,,,,,,,,,,,,242.73652333399878,242.7472879170018,None,No response,Images/Speaker1.jpg,Images/Speaker2.jpg,Images/Speaker3.jpg,Images/Speaker4.jpg,Audio/Speaker3_Per/P3-4-Per.wav,Speaker3,گوینده۳,,,,,,,,,,,,,,,,,,,483646,001,2024-06-30_16h42.01.447,5-24,2024.1.4,None,2024-06-30 16h42.07.189795 +0900,
,,,,,,,Images/Speaker1.jpg,Images/Speaker2.jpg,Images/Speaker3.jpg,Images/Speaker4.jpg,Audio/Speaker1_Per/P1-17-Per.wav,Speaker1,گوینده ۱,,,,,,,,,,,,,0,15,15,16,,,,,,,,,245.1596677919988,,,,,,,,,,,,,,,,,,,,,,,,,,,,,,,,,,,,,,,,,,,,,,,,,,,,,,,,,,,,,,,,,,,,,,,,,,242.74743079200198,242.75730008399842,None,No response,Images/Speaker1.jpg,Images/Speaker2.jpg,Images/Speaker3.jpg,Images/Speaker4.jpg,Audio/Speaker1_Per/P1-17-Per.wav,Speaker3,گوینده۳,,,,,,,,,,,,,,,,,,,483646,001,2024-06-30_16h42.01.447,5-24,2024.1.4,None,2024-06-30 16h42.07.189795 +0900,
,,,,,,,Images/Speaker1.jpg,Images/Speaker2.jpg,Images/Speaker3.jpg,Images/Speaker4.jpg,Audio/Speaker4_Per/P4-19-Per.wav,Speaker4,گوینده۴,,,,,,,,,,,,,0,16,16,78,,,,,,,,,245.1596677919988,,,,,,,,,,,,,,,,,,,,,,,,,,,,,,,,,,,,,,,,,,,,,,,,,,,,,,,,,,,,,,,,,,,,,,,,,,242.75743841700023,242.7681972499995,None,No response,Images/Speaker1.jpg,Images/Speaker2.jpg,Images/Speaker3.jpg,Images/Speaker4.jpg,Audio/Speaker4_Per/P4-19-Per.wav,Speaker3,گوینده۳,,,,,,,,,,,,,,,,,,,483646,001,2024-06-30_16h42.01.447,5-24,2024.1.4,None,2024-06-30 16h42.07.189795 +0900,
,,,,,,,Images/Speaker1.jpg,Images/Speaker2.jpg,Images/Speaker3.jpg,Images/Speaker4.jpg,Audio/Speaker2_Per/P2-15-Per.wav,Speaker2,گوینده۲,,,,,,,,,,,,,0,17,17,34,,,,,,,,,245.1596677919988,,,,,,,,,,,,,,,,,,,,,,,,,,,,,,,,,,,,,,,,,,,,,,,,,,,,,,,,,,,,,,,,,,,,,,,,,,242.7683324589998,242.77885441699982,None,No response,Images/Speaker1.jpg,Images/Speaker2.jpg,Images/Speaker3.jpg,Images/Speaker4.jpg,Audio/Speaker2_Per/P2-15-Per.wav,Speaker3,گوینده۳,,,,,,,,,,,,,,,,,,,483646,001,2024-06-30_16h42.01.447,5-24,2024.1.4,None,2024-06-30 16h42.07.189795 +0900,
,,,,,,,Images/Speaker1.jpg,Images/Speaker2.jpg,Images/Speaker3.jpg,Images/Speaker4.jpg,Audio/Speaker3_Per/P3-8-Per.wav,Speaker3,گوینده۳,,,,,,,,,,,,,0,18,18,47,,,,,,,,,245.1596677919988,,,,,,,,,,,,,,,,,,,,,,,,,,,,,,,,,,,,,,,,,,,,,,,,,,,,,,,,,,,,,,,,,,,,,,,,,,242.7790000419991,242.78963891700187,None,No response,Images/Speaker1.jpg,Images/Speaker2.jpg,Images/Speaker3.jpg,Images/Speaker4.jpg,Audio/Speaker3_Per/P3-8-Per.wav,Speaker3,گوینده۳,,,,,,,,,,,,,,,,,,,483646,001,2024-06-30_16h42.01.447,5-24,2024.1.4,None,2024-06-30 16h42.07.189795 +0900,
,,,,,,,Images/Speaker1.jpg,Images/Speaker2.jpg,Images/Speaker3.jpg,Images/Speaker4.jpg,Audio/Speaker3_Per/P3-20-Per.wav,Speaker3,گوینده۳,,,,,,,,,,,,,0,19,19,59,,,,,,,,,245.1596677919988,,,,,,,,,,,,,,,,,,,,,,,,,,,,,,,,,,,,,,,,,,,,,,,,,,,,,,,,,,,,,,,,,,,,,,,,,,242.78978095899947,242.79992258399943,None,No response,Images/Speaker1.jpg,Images/Speaker2.jpg,Images/Speaker3.jpg,Images/Speaker4.jpg,Audio/Speaker3_Per/P3-20-Per.wav,Speaker3,گوینده۳,,,,,,,,,,,,,,,,,,,483646,001,2024-06-30_16h42.01.447,5-24,2024.1.4,None,2024-06-30 16h42.07.189795 +0900,
,,,,,,,Images/Speaker1.jpg,Images/Speaker2.jpg,Images/Speaker3.jpg,Images/Speaker4.jpg,Audio/Speaker2_Per/P2-4-Per.wav,Speaker2,گوینده۲,,,,,,,,,,,,,0,20,20,23,,,,,,,,,245.1596677919988,,,,,,,,,,,,,,,,,,,,,,,,,,,,,,,,,,,,,,,,,,,,,,,,,,,,,,,,,,,,,,,,,,,,,,,,,,242.800069334,242.81034916700082,None,No response,Images/Speaker1.jpg,Images/Speaker2.jpg,Images/Speaker3.jpg,Images/Speaker4.jpg,Audio/Speaker2_Per/P2-4-Per.wav,Speaker3,گوینده۳,,,,,,,,,,,,,,,,,,,483646,001,2024-06-30_16h42.01.447,5-24,2024.1.4,None,2024-06-30 16h42.07.189795 +0900,
,,,,,,,Images/Speaker1.jpg,Images/Speaker2.jpg,Images/Speaker3.jpg,Images/Speaker4.jpg,Audio/Speaker4_Per/P4-18-Per.wav,Speaker4,گوینده۴,,,,,,,,,,,,,0,21,21,77,,,,,,,,,245.1596677919988,,,,,,,,,,,,,,,,,,,,,,,,,,,,,,,,,,,,,,,,,,,,,,,,,,,,,,,,,,,,,,,,,,,,,,,,,,242.81048595899847,242.8204404169992,None,No response,Images/Speaker1.jpg,Images/Speaker2.jpg,Images/Speaker3.jpg,Images/Speaker4.jpg,Audio/Speaker4_Per/P4-18-Per.wav,Speaker3,گوینده۳,,,,,,,,,,,,,,,,,,,483646,001,2024-06-30_16h42.01.447,5-24,2024.1.4,None,2024-06-30 16h42.07.189795 +0900,
,,,,,,,Images/Speaker1.jpg,Images/Speaker2.jpg,Images/Speaker3.jpg,Images/Speaker4.jpg,Audio/Speaker2_Per/P2-11-Per.wav,Speaker2,گوینده۲,,,,,,,,,,,,,0,22,22,30,,,,,,,,,245.1596677919988,,,,,,,,,,,,,,,,,,,,,,,,,,,,,,,,,,,,,,,,,,,,,,,,,,,,,,,,,,,,,,,,,,,,,,,,,,242.8205760000019,242.8312440840018,None,No response,Images/Speaker1.jpg,Images/Speaker2.jpg,Images/Speaker3.jpg,Images/Speaker4.jpg,Audio/Speaker2_Per/P2-11-Per.wav,Speaker3,گوینده۳,,,,,,,,,,,,,,,,,,,483646,001,2024-06-30_16h42.01.447,5-24,2024.1.4,None,2024-06-30 16h42.07.189795 +0900,
,,,,,,,Images/Speaker1.jpg,Images/Speaker2.jpg,Images/Speaker3.jpg,Images/Speaker4.jpg,Audio/Speaker2_Per/P2-2-Per.wav,Speaker2,گوینده۲,,,,,,,,,,,,,0,23,23,21,,,,,,,,,245.1596677919988,,,,,,,,,,,,,,,,,,,,,,,,,,,,,,,,,,,,,,,,,,,,,,,,,,,,,,,,,,,,,,,,,,,,,,,,,,242.83138195900028,242.8421984589986,None,No response,Images/Speaker1.jpg,Images/Speaker2.jpg,Images/Speaker3.jpg,Images/Speaker4.jpg,Audio/Speaker2_Per/P2-2-Per.wav,Speaker3,گوینده۳,,,,,,,,,,,,,,,,,,,483646,001,2024-06-30_16h42.01.447,5-24,2024.1.4,None,2024-06-30 16h42.07.189795 +0900,
,,,,,,,Images/Speaker1.jpg,Images/Speaker2.jpg,Images/Speaker3.jpg,Images/Speaker4.jpg,Audio/Speaker1_Per/P1-11-Per.wav,Speaker1,گوینده ۱,,,,,,,,,,,,,0,24,24,10,,,,,,,,,245.1596677919988,,,,,,,,,,,,,,,,,,,,,,,,,,,,,,,,,,,,,,,,,,,,,,,,,,,,,,,,,,,,,,,,,,,,,,,,,,242.84233258400127,242.85344958399946,None,No response,Images/Speaker1.jpg,Images/Speaker2.jpg,Images/Speaker3.jpg,Images/Speaker4.jpg,Audio/Speaker1_Per/P1-11-Per.wav,Speaker3,گوینده۳,,,,,,,,,,,,,,,,,,,483646,001,2024-06-30_16h42.01.447,5-24,2024.1.4,None,2024-06-30 16h42.07.189795 +0900,
,,,,,,,Images/Speaker1.jpg,Images/Speaker2.jpg,Images/Speaker3.jpg,Images/Speaker4.jpg,Audio/Speaker1_Per/P1-1-Per.wav,Speaker1,گوینده ۱,,,,,,,,,,,,,0,25,25,0,,,,,,,,,245.1596677919988,,,,,,,,,,,,,,,,,,,,,,,,,,,,,,,,,,,,,,,,,,,,,,,,,,,,,,,,,,,,,,,,,,,,,,,,,,242.8535941250011,242.86384349999935,None,No response,Images/Speaker1.jpg,Images/Speaker2.jpg,Images/Speaker3.jpg,Images/Speaker4.jpg,Audio/Speaker1_Per/P1-1-Per.wav,Speaker3,گوینده۳,,,,,,,,,,,,,,,,,,,483646,001,2024-06-30_16h42.01.447,5-24,2024.1.4,None,2024-06-30 16h42.07.189795 +0900,
,,,,,,,Images/Speaker1.jpg,Images/Speaker2.jpg,Images/Speaker3.jpg,Images/Speaker4.jpg,Audio/Speaker4_Per/P4-11-Per.wav,Speaker4,گوینده۴,,,,,,,,,,,,,0,26,26,70,,,,,,,,,245.1596677919988,,,,,,,,,,,,,,,,,,,,,,,,,,,,,,,,,,,,,,,,,,,,,,,,,,,,,,,,,,,,,,,,,,,,,,,,,,242.8639809999986,242.8745286250014,None,No response,Images/Speaker1.jpg,Images/Speaker2.jpg,Images/Speaker3.jpg,Images/Speaker4.jpg,Audio/Speaker4_Per/P4-11-Per.wav,Speaker3,گوینده۳,,,,,,,,,,,,,,,,,,,483646,001,2024-06-30_16h42.01.447,5-24,2024.1.4,None,2024-06-30 16h42.07.189795 +0900,
,,,,,,,Images/Speaker1.jpg,Images/Speaker2.jpg,Images/Speaker3.jpg,Images/Speaker4.jpg,Audio/Speaker3_Per/P3-15-Per.wav,Speaker3,گوینده۳,,,,,,,,,,,,,0,27,27,54,,,,,,,,,245.1596677919988,,,,,,,,,,,,,,,,,,,,,,,,,,,,,,,,,,,,,,,,,,,,,,,,,,,,,,,,,,,,,,,,,,,,,,,,,,242.87466866700197,242.88565120899875,None,No response,Images/Speaker1.jpg,Images/Speaker2.jpg,Images/Speaker3.jpg,Images/Speaker4.jpg,Audio/Speaker3_Per/P3-15-Per.wav,Speaker3,گوینده۳,,,,,,,,,,,,,,,,,,,483646,001,2024-06-30_16h42.01.447,5-24,2024.1.4,None,2024-06-30 16h42.07.189795 +0900,
,,,,,,,Images/Speaker1.jpg,Images/Speaker2.jpg,Images/Speaker3.jpg,Images/Speaker4.jpg,Audio/Speaker3_Per/P3-9-Per.wav,Speaker3,گوینده۳,,,,,,,,,,,,,0,28,28,48,,,,,,,,,245.1596677919988,,,,,,,,,,,,,,,,,,,,,,,,,,,,,,,,,,,,,,,,,,,,,,,,,,,,,,,,,,,,,,,,,,,,,,,,,,242.88579920900156,242.89625375000105,None,No response,Images/Speaker1.jpg,Images/Speaker2.jpg,Images/Speaker3.jpg,Images/Speaker4.jpg,Audio/Speaker3_Per/P3-9-Per.wav,Speaker3,گوینده۳,,,,,,,,,,,,,,,,,,,483646,001,2024-06-30_16h42.01.447,5-24,2024.1.4,None,2024-06-30 16h42.07.189795 +0900,
,,,,,,,Images/Speaker1.jpg,Images/Speaker2.jpg,Images/Speaker3.jpg,Images/Speaker4.jpg,Audio/Speaker2_Per/P2-14-Per.wav,Speaker2,گوینده۲,,,,,,,,,,,,,0,29,29,33,,,,,,,,,245.1596677919988,,,,,,,,,,,,,,,,,,,,,,,,,,,,,,,,,,,,,,,,,,,,,,,,,,,,,,,,,,,,,,,,,,,,,,,,,,242.89639762500155,242.9073517500001,None,No response,Images/Speaker1.jpg,Images/Speaker2.jpg,Images/Speaker3.jpg,Images/Speaker4.jpg,Audio/Speaker2_Per/P2-14-Per.wav,Speaker3,گوینده۳,,,,,,,,,,,,,,,,,,,483646,001,2024-06-30_16h42.01.447,5-24,2024.1.4,None,2024-06-30 16h42.07.189795 +0900,
,,,,,,,Images/Speaker1.jpg,Images/Speaker2.jpg,Images/Speaker3.jpg,Images/Speaker4.jpg,Audio/Speaker2_Per/P2-13-Per.wav,Speaker2,گوینده۲,,,,,,,,,,,,,0,30,30,32,,,,,,,,,245.1596677919988,,,,,,,,,,,,,,,,,,,,,,,,,,,,,,,,,,,,,,,,,,,,,,,,,,,,,,,,,,,,,,,,,,,,,,,,,,242.90749370900085,242.9178942920007,None,No response,Images/Speaker1.jpg,Images/Speaker2.jpg,Images/Speaker3.jpg,Images/Speaker4.jpg,Audio/Speaker2_Per/P2-13-Per.wav,Speaker3,گوینده۳,,,,,,,,,,,,,,,,,,,483646,001,2024-06-30_16h42.01.447,5-24,2024.1.4,None,2024-06-30 16h42.07.189795 +0900,
,,,,,,,Images/Speaker1.jpg,Images/Speaker2.jpg,Images/Speaker3.jpg,Images/Speaker4.jpg,Audio/Speaker3_Per/P3-5-Per.wav,Speaker3,گوینده۳,,,,,,,,,,,,,0,31,31,44,,,,,,,,,245.1596677919988,,,,,,,,,,,,,,,,,,,,,,,,,,,,,,,,,,,,,,,,,,,,,,,,,,,,,,,,,,,,,,,,,,,,,,,,,,242.91803179199997,242.9285936669985,None,No response,Images/Speaker1.jpg,Images/Speaker2.jpg,Images/Speaker3.jpg,Images/Speaker4.jpg,Audio/Speaker3_Per/P3-5-Per.wav,Speaker3,گوینده۳,,,,,,,,,,,,,,,,,,,483646,001,2024-06-30_16h42.01.447,5-24,2024.1.4,None,2024-06-30 16h42.07.189795 +0900,
,,,,,,,Images/Speaker1.jpg,Images/Speaker2.jpg,Images/Speaker3.jpg,Images/Speaker4.jpg,Audio/Speaker4_Per/P4-9-Per.wav,Speaker4,گوینده۴,,,,,,,,,,,,,0,32,32,68,,,,,,,,,245.1596677919988,,,,,,,,,,,,,,,,,,,,,,,,,,,,,,,,,,,,,,,,,,,,,,,,,,,,,,,,,,,,,,,,,,,,,,,,,,242.92873879200124,242.93889229200067,None,No response,Images/Speaker1.jpg,Images/Speaker2.jpg,Images/Speaker3.jpg,Images/Speaker4.jpg,Audio/Speaker4_Per/P4-9-Per.wav,Speaker3,گوینده۳,,,,,,,,,,,,,,,,,,,483646,001,2024-06-30_16h42.01.447,5-24,2024.1.4,None,2024-06-30 16h42.07.189795 +0900,
,,,,,,,Images/Speaker1.jpg,Images/Speaker2.jpg,Images/Speaker3.jpg,Images/Speaker4.jpg,Audio/Speaker2_Per/P2-7-Per.wav,Speaker2,گوینده۲,,,,,,,,,,,,,0,33,33,26,,,,,,,,,245.1596677919988,,,,,,,,,,,,,,,,,,,,,,,,,,,,,,,,,,,,,,,,,,,,,,,,,,,,,,,,,,,,,,,,,,,,,,,,,,242.9390346250002,242.94931641700168,None,No response,Images/Speaker1.jpg,Images/Speaker2.jpg,Images/Speaker3.jpg,Images/Speaker4.jpg,Audio/Speaker2_Per/P2-7-Per.wav,Speaker3,گوینده۳,,,,,,,,,,,,,,,,,,,483646,001,2024-06-30_16h42.01.447,5-24,2024.1.4,None,2024-06-30 16h42.07.189795 +0900,
,,,,,,,Images/Speaker1.jpg,Images/Speaker2.jpg,Images/Speaker3.jpg,Images/Speaker4.jpg,Audio/Speaker3_Per/P3-2-Per.wav,Speaker3,گوینده۳,,,,,,,,,,,,,0,34,34,41,,,,,,,,,245.1596677919988,,,,,,,,,,,,,,,,,,,,,,,,,,,,,,,,,,,,,,,,,,,,,,,,,,,,,,,,,,,,,,,,,,,,,,,,,,242.94947170900195,242.96045729199977,None,No response,Images/Speaker1.jpg,Images/Speaker2.jpg,Images/Speaker3.jpg,Images/Speaker4.jpg,Audio/Speaker3_Per/P3-2-Per.wav,Speaker3,گوینده۳,,,,,,,,,,,,,,,,,,,483646,001,2024-06-30_16h42.01.447,5-24,2024.1.4,None,2024-06-30 16h42.07.189795 +0900,
,,,,,,,Images/Speaker1.jpg,Images/Speaker2.jpg,Images/Speaker3.jpg,Images/Speaker4.jpg,Audio/Speaker2_Per/P2-1-Per.wav,Speaker2,گوینده۲,,,,,,,,,,,,,0,35,35,20,,,,,,,,,245.1596677919988,,,,,,,,,,,,,,,,,,,,,,,,,,,,,,,,,,,,,,,,,,,,,,,,,,,,,,,,,,,,,,,,,,,,,,,,,,242.96060208400013,242.9709720840001,None,No response,Images/Speaker1.jpg,Images/Speaker2.jpg,Images/Speaker3.jpg,Images/Speaker4.jpg,Audio/Speaker2_Per/P2-1-Per.wav,Speaker3,گوینده۳,,,,,,,,,,,,,,,,,,,483646,001,2024-06-30_16h42.01.447,5-24,2024.1.4,None,2024-06-30 16h42.07.189795 +0900,
,,,,,,,Images/Speaker1.jpg,Images/Speaker2.jpg,Images/Speaker3.jpg,Images/Speaker4.jpg,Audio/Speaker4_Per/P4-6-Per.wav,Speaker4,گوینده۴,,,,,,,,,,,,,0,36,36,65,,,,,,,,,245.1596677919988,,,,,,,,,,,,,,,,,,,,,,,,,,,,,,,,,,,,,,,,,,,,,,,,,,,,,,,,,,,,,,,,,,,,,,,,,,242.97111591700013,242.9814546250018,None,No response,Images/Speaker1.jpg,Images/Speaker2.jpg,Images/Speaker3.jpg,Images/Speaker4.jpg,Audio/Speaker4_Per/P4-6-Per.wav,Speaker3,گوینده۳,,,,,,,,,,,,,,,,,,,483646,001,2024-06-30_16h42.01.447,5-24,2024.1.4,None,2024-06-30 16h42.07.189795 +0900,
,,,,,,,Images/Speaker1.jpg,Images/Speaker2.jpg,Images/Speaker3.jpg,Images/Speaker4.jpg,Audio/Speaker1_Per/P1-15-Per.wav,Speaker1,گوینده ۱,,,,,,,,,,,,,0,37,37,14,,,,,,,,,245.1596677919988,,,,,,,,,,,,,,,,,,,,,,,,,,,,,,,,,,,,,,,,,,,,,,,,,,,,,,,,,,,,,,,,,,,,,,,,,,242.98160216700126,242.99208675000045,None,No response,Images/Speaker1.jpg,Images/Speaker2.jpg,Images/Speaker3.jpg,Images/Speaker4.jpg,Audio/Speaker1_Per/P1-15-Per.wav,Speaker3,گوینده۳,,,,,,,,,,,,,,,,,,,483646,001,2024-06-30_16h42.01.447,5-24,2024.1.4,None,2024-06-30 16h42.07.189795 +0900,
,,,,,,,Images/Speaker1.jpg,Images/Speaker2.jpg,Images/Speaker3.jpg,Images/Speaker4.jpg,Audio/Speaker1_Per/P1-5-Per.wav,Speaker1,گوینده ۱,,,,,,,,,,,,,0,38,38,4,,,,,,,,,245.1596677919988,,,,,,,,,,,,,,,,,,,,,,,,,,,,,,,,,,,,,,,,,,,,,,,,,,,,,,,,,,,,,,,,,,,,,,,,,,242.99223350000102,243.00276737500099,None,No response,Images/Speaker1.jpg,Images/Speaker2.jpg,Images/Speaker3.jpg,Images/Speaker4.jpg,Audio/Speaker1_Per/P1-5-Per.wav,Speaker3,گوینده۳,,,,,,,,,,,,,,,,,,,483646,001,2024-06-30_16h42.01.447,5-24,2024.1.4,None,2024-06-30 16h42.07.189795 +0900,
,,,,,,,Images/Speaker1.jpg,Images/Speaker2.jpg,Images/Speaker3.jpg,Images/Speaker4.jpg,Audio/Speaker2_Per/P2-5-Per.wav,Speaker2,گوینده۲,,,,,,,,,,,,,0,39,39,24,,,,,,,,,245.1596677919988,,,,,,,,,,,,,,,,,,,,,,,,,,,,,,,,,,,,,,,,,,,,,,,,,,,,,,,,,,,,,,,,,,,,,,,,,,243.00291054199988,243.0133171669986,None,No response,Images/Speaker1.jpg,Images/Speaker2.jpg,Images/Speaker3.jpg,Images/Speaker4.jpg,Audio/Speaker2_Per/P2-5-Per.wav,Speaker3,گوینده۳,,,,,,,,,,,,,,,,,,,483646,001,2024-06-30_16h42.01.447,5-24,2024.1.4,None,2024-06-30 16h42.07.189795 +0900,
,,,,,,,Images/Speaker1.jpg,Images/Speaker2.jpg,Images/Speaker3.jpg,Images/Speaker4.jpg,Audio/Speaker1_Per/P1-9-Per.wav,Speaker1,گوینده ۱,,,,,,,,,,,,,0,40,40,8,,,,,,,,,245.1596677919988,,,,,,,,,,,,,,,,,,,,,,,,,,,,,,,,,,,,,,,,,,,,,,,,,,,,,,,,,,,,,,,,,,,,,,,,,,243.01346212499993,243.0239243750002,None,No response,Images/Speaker1.jpg,Images/Speaker2.jpg,Images/Speaker3.jpg,Images/Speaker4.jpg,Audio/Speaker1_Per/P1-9-Per.wav,Speaker3,گوینده۳,,,,,,,,,,,,,,,,,,,483646,001,2024-06-30_16h42.01.447,5-24,2024.1.4,None,2024-06-30 16h42.07.189795 +0900,
,,,,,,,Images/Speaker1.jpg,Images/Speaker2.jpg,Images/Speaker3.jpg,Images/Speaker4.jpg,Audio/Speaker3_Per/P3-19-Per.wav,Speaker3,گوینده۳,,,,,,,,,,,,,0,41,41,58,,,,,,,,,245.1596677919988,,,,,,,,,,,,,,,,,,,,,,,,,,,,,,,,,,,,,,,,,,,,,,,,,,,,,,,,,,,,,,,,,,,,,,,,,,243.0240675419991,243.03484925000157,None,No response,Images/Speaker1.jpg,Images/Speaker2.jpg,Images/Speaker3.jpg,Images/Speaker4.jpg,Audio/Speaker3_Per/P3-19-Per.wav,Speaker3,گوینده۳,,,,,,,,,,,,,,,,,,,483646,001,2024-06-30_16h42.01.447,5-24,2024.1.4,None,2024-06-30 16h42.07.189795 +0900,
,,,,,,,Images/Speaker1.jpg,Images/Speaker2.jpg,Images/Speaker3.jpg,Images/Speaker4.jpg,Audio/Speaker3_Per/P3-10-Per.wav,Speaker3,گوینده۳,,,,,,,,,,,,,0,42,42,49,,,,,,,,,245.1596677919988,,,,,,,,,,,,,,,,,,,,,,,,,,,,,,,,,,,,,,,,,,,,,,,,,,,,,,,,,,,,,,,,,,,,,,,,,,243.0349932499994,243.04567416699865,None,No response,Images/Speaker1.jpg,Images/Speaker2.jpg,Images/Speaker3.jpg,Images/Speaker4.jpg,Audio/Speaker3_Per/P3-10-Per.wav,Speaker3,گوینده۳,,,,,,,,,,,,,,,,,,,483646,001,2024-06-30_16h42.01.447,5-24,2024.1.4,None,2024-06-30 16h42.07.189795 +0900,
,,,,,,,Images/Speaker1.jpg,Images/Speaker2.jpg,Images/Speaker3.jpg,Images/Speaker4.jpg,Audio/Speaker1_Per/P1-3-Per.wav,Speaker1,گوینده ۱,,,,,,,,,,,,,0,43,43,2,,,,,,,,,245.1596677919988,,,,,,,,,,,,,,,,,,,,,,,,,,,,,,,,,,,,,,,,,,,,,,,,,,,,,,,,,,,,,,,,,,,,,,,,,,243.04581004200008,243.05587204200128,None,No response,Images/Speaker1.jpg,Images/Speaker2.jpg,Images/Speaker3.jpg,Images/Speaker4.jpg,Audio/Speaker1_Per/P1-3-Per.wav,Speaker3,گوینده۳,,,,,,,,,,,,,,,,,,,483646,001,2024-06-30_16h42.01.447,5-24,2024.1.4,None,2024-06-30 16h42.07.189795 +0900,
,,,,,,,Images/Speaker1.jpg,Images/Speaker2.jpg,Images/Speaker3.jpg,Images/Speaker4.jpg,Audio/Speaker4_Per/P4-14-Per.wav,Speaker4,گوینده۴,,,,,,,,,,,,,0,44,44,73,,,,,,,,,245.1596677919988,,,,,,,,,,,,,,,,,,,,,,,,,,,,,,,,,,,,,,,,,,,,,,,,,,,,,,,,,,,,,,,,,,,,,,,,,,243.05601295900124,243.06685808399925,None,No response,Images/Speaker1.jpg,Images/Speaker2.jpg,Images/Speaker3.jpg,Images/Speaker4.jpg,Audio/Speaker4_Per/P4-14-Per.wav,Speaker3,گوینده۳,,,,,,,,,,,,,,,,,,,483646,001,2024-06-30_16h42.01.447,5-24,2024.1.4,None,2024-06-30 16h42.07.189795 +0900,
,,,,,,,Images/Speaker1.jpg,Images/Speaker2.jpg,Images/Speaker3.jpg,Images/Speaker4.jpg,Audio/Speaker3_Per/P3-6-Per.wav,Speaker3,گوینده۳,,,,,,,,,,,,,0,45,45,45,,,,,,,,,245.1596677919988,,,,,,,,,,,,,,,,,,,,,,,,,,,,,,,,,,,,,,,,,,,,,,,,,,,,,,,,,,,,,,,,,,,,,,,,,,243.06700079200164,243.0776442919996,None,No response,Images/Speaker1.jpg,Images/Speaker2.jpg,Images/Speaker3.jpg,Images/Speaker4.jpg,Audio/Speaker3_Per/P3-6-Per.wav,Speaker3,گوینده۳,,,,,,,,,,,,,,,,,,,483646,001,2024-06-30_16h42.01.447,5-24,2024.1.4,None,2024-06-30 16h42.07.189795 +0900,
,,,,,,,Images/Speaker1.jpg,Images/Speaker2.jpg,Images/Speaker3.jpg,Images/Speaker4.jpg,Audio/Speaker3_Per/P3-13-Per.wav,Speaker3,گوینده۳,,,,,,,,,,,,,0,46,46,52,,,,,,,,,245.1596677919988,,,,,,,,,,,,,,,,,,,,,,,,,,,,,,,,,,,,,,,,,,,,,,,,,,,,,,,,,,,,,,,,,,,,,,,,,,243.07778241699998,243.08836412500023,None,No response,Images/Speaker1.jpg,Images/Speaker2.jpg,Images/Speaker3.jpg,Images/Speaker4.jpg,Audio/Speaker3_Per/P3-13-Per.wav,Speaker3,گوینده۳,,,,,,,,,,,,,,,,,,,483646,001,2024-06-30_16h42.01.447,5-24,2024.1.4,None,2024-06-30 16h42.07.189795 +0900,
,,,,,,,Images/Speaker1.jpg,Images/Speaker2.jpg,Images/Speaker3.jpg,Images/Speaker4.jpg,Audio/Speaker4_Per/P4-15-Per.wav,Speaker4,گوینده۴,,,,,,,,,,,,,0,47,47,74,,,,,,,,,245.1596677919988,,,,,,,,,,,,,,,,,,,,,,,,,,,,,,,,,,,,,,,,,,,,,,,,,,,,,,,,,,,,,,,,,,,,,,,,,,243.0885075840015,243.09924812499958,None,No response,Images/Speaker1.jpg,Images/Speaker2.jpg,Images/Speaker3.jpg,Images/Speaker4.jpg,Audio/Speaker4_Per/P4-15-Per.wav,Speaker3,گوینده۳,,,,,,,,,,,,,,,,,,,483646,001,2024-06-30_16h42.01.447,5-24,2024.1.4,None,2024-06-30 16h42.07.189795 +0900,
,,,,,,,Images/Speaker1.jpg,Images/Speaker2.jpg,Images/Speaker3.jpg,Images/Speaker4.jpg,Audio/Speaker4_Per/P4-2-Per.wav,Speaker4,گوینده۴,,,,,,,,,,,,,0,48,48,61,,,,,,,,,245.1596677919988,,,,,,,,,,,,,,,,,,,,,,,,,,,,,,,,,,,,,,,,,,,,,,,,,,,,,,,,,,,,,,,,,,,,,,,,,,243.09938812499968,243.1102289590017,None,No response,Images/Speaker1.jpg,Images/Speaker2.jpg,Images/Speaker3.jpg,Images/Speaker4.jpg,Audio/Speaker4_Per/P4-2-Per.wav,Speaker3,گوینده۳,,,,,,,,,,,,,,,,,,,483646,001,2024-06-30_16h42.01.447,5-24,2024.1.4,None,2024-06-30 16h42.07.189795 +0900,
,,,,,,,Images/Speaker1.jpg,Images/Speaker2.jpg,Images/Speaker3.jpg,Images/Speaker4.jpg,Audio/Speaker1_Per/P1-10-Per.wav,Speaker1,گوینده ۱,,,,,,,,,,,,,0,49,49,9,,,,,,,,,245.1596677919988,,,,,,,,,,,,,,,,,,,,,,,,,,,,,,,,,,,,,,,,,,,,,,,,,,,,,,,,,,,,,,,,,,,,,,,,,,243.11037600000054,243.12103704200126,None,No response,Images/Speaker1.jpg,Images/Speaker2.jpg,Images/Speaker3.jpg,Images/Speaker4.jpg,Audio/Speaker1_Per/P1-10-Per.wav,Speaker3,گوینده۳,,,,,,,,,,,,,,,,,,,483646,001,2024-06-30_16h42.01.447,5-24,2024.1.4,None,2024-06-30 16h42.07.189795 +0900,
,,,,,,,Images/Speaker1.jpg,Images/Speaker2.jpg,Images/Speaker3.jpg,Images/Speaker4.jpg,Audio/Speaker4_Per/P4-8-Per.wav,Speaker4,گوینده۴,,,,,,,,,,,,,0,50,50,67,,,,,,,,,245.1596677919988,,,,,,,,,,,,,,,,,,,,,,,,,,,,,,,,,,,,,,,,,,,,,,,,,,,,,,,,,,,,,,,,,,,,,,,,,,243.12117325000145,243.1314552090007,None,No response,Images/Speaker1.jpg,Images/Speaker2.jpg,Images/Speaker3.jpg,Images/Speaker4.jpg,Audio/Speaker4_Per/P4-8-Per.wav,Speaker3,گوینده۳,,,,,,,,,,,,,,,,,,,483646,001,2024-06-30_16h42.01.447,5-24,2024.1.4,None,2024-06-30 16h42.07.189795 +0900,
,,,,,,,Images/Speaker1.jpg,Images/Speaker2.jpg,Images/Speaker3.jpg,Images/Speaker4.jpg,Audio/Speaker4_Per/P4-17-Per.wav,Speaker4,گوینده۴,,,,,,,,,,,,,0,51,51,76,,,,,,,,,245.1596677919988,,,,,,,,,,,,,,,,,,,,,,,,,,,,,,,,,,,,,,,,,,,,,,,,,,,,,,,,,,,,,,,,,,,,,,,,,,243.13160124999922,243.141685958999,None,No response,Images/Speaker1.jpg,Images/Speaker2.jpg,Images/Speaker3.jpg,Images/Speaker4.jpg,Audio/Speaker4_Per/P4-17-Per.wav,Speaker3,گوینده۳,,,,,,,,,,,,,,,,,,,483646,001,2024-06-30_16h42.01.447,5-24,2024.1.4,None,2024-06-30 16h42.07.189795 +0900,
,,,,,,,Images/Speaker1.jpg,Images/Speaker2.jpg,Images/Speaker3.jpg,Images/Speaker4.jpg,Audio/Speaker4_Per/P4-4-Per.wav,Speaker4,گوینده۴,,,,,,,,,,,,,0,52,52,63,,,,,,,,,245.1596677919988,,,,,,,,,,,,,,,,,,,,,,,,,,,,,,,,,,,,,,,,,,,,,,,,,,,,,,,,,,,,,,,,,,,,,,,,,,243.141818125001,243.15212650000103,None,No response,Images/Speaker1.jpg,Images/Speaker2.jpg,Images/Speaker3.jpg,Images/Speaker4.jpg,Audio/Speaker4_Per/P4-4-Per.wav,Speaker3,گوینده۳,,,,,,,,,,,,,,,,,,,483646,001,2024-06-30_16h42.01.447,5-24,2024.1.4,None,2024-06-30 16h42.07.189795 +0900,
,,,,,,,Images/Speaker1.jpg,Images/Speaker2.jpg,Images/Speaker3.jpg,Images/Speaker4.jpg,Audio/Speaker1_Per/P1-13-Per.wav,Speaker1,گوینده ۱,,,,,,,,,,,,,0,53,53,12,,,,,,,,,245.1596677919988,,,,,,,,,,,,,,,,,,,,,,,,,,,,,,,,,,,,,,,,,,,,,,,,,,,,,,,,,,,,,,,,,,,,,,,,,,243.1522717500011,243.16265679199932,None,No response,Images/Speaker1.jpg,Images/Speaker2.jpg,Images/Speaker3.jpg,Images/Speaker4.jpg,Audio/Speaker1_Per/P1-13-Per.wav,Speaker3,گوینده۳,,,,,,,,,,,,,,,,,,,483646,001,2024-06-30_16h42.01.447,5-24,2024.1.4,None,2024-06-30 16h42.07.189795 +0900,
,,,,,,,Images/Speaker1.jpg,Images/Speaker2.jpg,Images/Speaker3.jpg,Images/Speaker4.jpg,Audio/Speaker2_Per/P2-10-Per.wav,Speaker2,گوینده۲,,,,,,,,,,,,,0,54,54,29,,,,,,,,,245.1596677919988,,,,,,,,,,,,,,,,,,,,,,,,,,,,,,,,,,,,,,,,,,,,,,,,,,,,,,,,,,,,,,,,,,,,,,,,,,243.1627951670016,243.17320587499853,None,No response,Images/Speaker1.jpg,Images/Speaker2.jpg,Images/Speaker3.jpg,Images/Speaker4.jpg,Audio/Speaker2_Per/P2-10-Per.wav,Speaker3,گوینده۳,,,,,,,,,,,,,,,,,,,483646,001,2024-06-30_16h42.01.447,5-24,2024.1.4,None,2024-06-30 16h42.07.189795 +0900,
,,,,,,,Images/Speaker1.jpg,Images/Speaker2.jpg,Images/Speaker3.jpg,Images/Speaker4.jpg,Audio/Speaker3_Per/P3-16-Per.wav,Speaker3,گوینده۳,,,,,,,,,,,,,0,55,55,55,,,,,,,,,245.1596677919988,,,,,,,,,,,,,,,,,,,,,,,,,,,,,,,,,,,,,,,,,,,,,,,,,,,,,,,,,,,,,,,,,,,,,,,,,,243.17334120899977,243.18336158400052,None,No response,Images/Speaker1.jpg,Images/Speaker2.jpg,Images/Speaker3.jpg,Images/Speaker4.jpg,Audio/Speaker3_Per/P3-16-Per.wav,Speaker3,گوینده۳,,,,,,,,,,,,,,,,,,,483646,001,2024-06-30_16h42.01.447,5-24,2024.1.4,None,2024-06-30 16h42.07.189795 +0900,
,,,,,,,Images/Speaker1.jpg,Images/Speaker2.jpg,Images/Speaker3.jpg,Images/Speaker4.jpg,Audio/Speaker1_Per/P1-18-Per.wav,Speaker1,گوینده ۱,,,,,,,,,,,,,0,56,56,17,,,,,,,,,245.1596677919988,,,,,,,,,,,,,,,,,,,,,,,,,,,,,,,,,,,,,,,,,,,,,,,,,,,,,,,,,,,,,,,,,,,,,,,,,,243.18350866699984,243.1935879590019,None,No response,Images/Speaker1.jpg,Images/Speaker2.jpg,Images/Speaker3.jpg,Images/Speaker4.jpg,Audio/Speaker1_Per/P1-18-Per.wav,Speaker3,گوینده۳,,,,,,,,,,,,,,,,,,,483646,001,2024-06-30_16h42.01.447,5-24,2024.1.4,None,2024-06-30 16h42.07.189795 +0900,
,,,,,,,Images/Speaker1.jpg,Images/Speaker2.jpg,Images/Speaker3.jpg,Images/Speaker4.jpg,Audio/Speaker4_Per/P4-1-Per.wav,Speaker4,گوینده۴,,,,,,,,,,,,,0,57,57,60,,,,,,,,,245.1596677919988,,,,,,,,,,,,,,,,,,,,,,,,,,,,,,,,,,,,,,,,,,,,,,,,,,,,,,,,,,,,,,,,,,,,,,,,,,243.19372424999892,243.20391316699897,None,No response,Images/Speaker1.jpg,Images/Speaker2.jpg,Images/Speaker3.jpg,Images/Speaker4.jpg,Audio/Speaker4_Per/P4-1-Per.wav,Speaker3,گوینده۳,,,,,,,,,,,,,,,,,,,483646,001,2024-06-30_16h42.01.447,5-24,2024.1.4,None,2024-06-30 16h42.07.189795 +0900,
,,,,,,,Images/Speaker1.jpg,Images/Speaker2.jpg,Images/Speaker3.jpg,Images/Speaker4.jpg,Audio/Speaker1_Per/P1-4-Per.wav,Speaker1,گوینده ۱,,,,,,,,,,,,,0,58,58,13,,,,,,,,,245.1596677919988,,,,,,,,,,,,,,,,,,,,,,,,,,,,,,,,,,,,,,,,,,,,,,,,,,,,,,,,,,,,,,,,,,,,,,,,,,243.20405233400015,243.21474875000058,None,No response,Images/Speaker1.jpg,Images/Speaker2.jpg,Images/Speaker3.jpg,Images/Speaker4.jpg,Audio/Speaker1_Per/P1-4-Per.wav,Speaker3,گوینده۳,,,,,,,,,,,,,,,,,,,483646,001,2024-06-30_16h42.01.447,5-24,2024.1.4,None,2024-06-30 16h42.07.189795 +0900,
,,,,,,,Images/Speaker1.jpg,Images/Speaker2.jpg,Images/Speaker3.jpg,Images/Speaker4.jpg,Audio/Speaker1_Per/P1-4-Per.wav,Speaker1,گوینده ۱,,,,,,,,,,,,,0,59,59,3,,,,,,,,,245.1596677919988,,,,,,,,,,,,,,,,,,,,,,,,,,,,,,,,,,,,,,,,,,,,,,,,,,,,,,,,,,,,,,,,,,,,,,,,,,243.21488758399937,243.22528333399896,None,No response,Images/Speaker1.jpg,Images/Speaker2.jpg,Images/Speaker3.jpg,Images/Speaker4.jpg,Audio/Speaker1_Per/P1-4-Per.wav,Speaker3,گوینده۳,,,,,,,,,,,,,,,,,,,483646,001,2024-06-30_16h42.01.447,5-24,2024.1.4,None,2024-06-30 16h42.07.189795 +0900,
,,,,,,,Images/Speaker1.jpg,Images/Speaker2.jpg,Images/Speaker3.jpg,Images/Speaker4.jpg,Audio/Speaker3_Per/P3-18-Per.wav,Speaker3,گوینده۳,,,,,,,,,,,,,0,60,60,57,,,,,,,,,245.1596677919988,,,,,,,,,,,,,,,,,,,,,,,,,,,,,,,,,,,,,,,,,,,,,,,,,,,,,,,,,,,,,,,,,,,,,,,,,,243.22542299999986,243.23529254200184,None,No response,Images/Speaker1.jpg,Images/Speaker2.jpg,Images/Speaker3.jpg,Images/Speaker4.jpg,Audio/Speaker3_Per/P3-18-Per.wav,Speaker3,گوینده۳,,,,,,,,,,,,,,,,,,,483646,001,2024-06-30_16h42.01.447,5-24,2024.1.4,None,2024-06-30 16h42.07.189795 +0900,
,,,,,,,Images/Speaker1.jpg,Images/Speaker2.jpg,Images/Speaker3.jpg,Images/Speaker4.jpg,Audio/Speaker1_Per/P1-19-Per.wav,Speaker1,گوینده ۱,,,,,,,,,,,,,0,61,61,18,,,,,,,,,245.1596677919988,,,,,,,,,,,,,,,,,,,,,,,,,,,,,,,,,,,,,,,,,,,,,,,,,,,,,,,,,,,,,,,,,,,,,,,,,,243.23543270899972,243.24572004199945,None,No response,Images/Speaker1.jpg,Images/Speaker2.jpg,Images/Speaker3.jpg,Images/Speaker4.jpg,Audio/Speaker1_Per/P1-19-Per.wav,Speaker3,گوینده۳,,,,,,,,,,,,,,,,,,,483646,001,2024-06-30_16h42.01.447,5-24,2024.1.4,None,2024-06-30 16h42.07.189795 +0900,
,,,,,,,Images/Speaker1.jpg,Images/Speaker2.jpg,Images/Speaker3.jpg,Images/Speaker4.jpg,Audio/Speaker2_Per/P2-3-Per.wav,Speaker2,گوینده۲,,,,,,,,,,,,,0,62,62,22,,,,,,,,,245.1596677919988,,,,,,,,,,,,,,,,,,,,,,,,,,,,,,,,,,,,,,,,,,,,,,,,,,,,,,,,,,,,,,,,,,,,,,,,,,243.2458562089996,243.25598000000173,None,No response,Images/Speaker1.jpg,Images/Speaker2.jpg,Images/Speaker3.jpg,Images/Speaker4.jpg,Audio/Speaker2_Per/P2-3-Per.wav,Speaker3,گوینده۳,,,,,,,,,,,,,,,,,,,483646,001,2024-06-30_16h42.01.447,5-24,2024.1.4,None,2024-06-30 16h42.07.189795 +0900,
,,,,,,,Images/Speaker1.jpg,Images/Speaker2.jpg,Images/Speaker3.jpg,Images/Speaker4.jpg,Audio/Speaker1_Per/P1-2-Per.wav,Speaker1,گوینده ۱,,,,,,,,,,,,,0,63,63,1,,,,,,,,,245.1596677919988,,,,,,,,,,,,,,,,,,,,,,,,,,,,,,,,,,,,,,,,,,,,,,,,,,,,,,,,,,,,,,,,,,,,,,,,,,243.25611304199992,243.26657637500102,None,No response,Images/Speaker1.jpg,Images/Speaker2.jpg,Images/Speaker3.jpg,Images/Speaker4.jpg,Audio/Speaker1_Per/P1-2-Per.wav,Speaker3,گوینده۳,,,,,,,,,,,,,,,,,,,483646,001,2024-06-30_16h42.01.447,5-24,2024.1.4,None,2024-06-30 16h42.07.189795 +0900,
,,,,,,,Images/Speaker1.jpg,Images/Speaker2.jpg,Images/Speaker3.jpg,Images/Speaker4.jpg,Audio/Speaker2_Per/P2-20-Per.wav,Speaker2,گوینده۲,,,,,,,,,,,,,0,64,64,39,,,,,,,,,245.1596677919988,,,,,,,,,,,,,,,,,,,,,,,,,,,,,,,,,,,,,,,,,,,,,,,,,,,,,,,,,,,,,,,,,,,,,,,,,,243.26671258400165,243.27672291699855,None,No response,Images/Speaker1.jpg,Images/Speaker2.jpg,Images/Speaker3.jpg,Images/Speaker4.jpg,Audio/Speaker2_Per/P2-20-Per.wav,Speaker3,گوینده۳,,,,,,,,,,,,,,,,,,,483646,001,2024-06-30_16h42.01.447,5-24,2024.1.4,None,2024-06-30 16h42.07.189795 +0900,
,,,,,,,Images/Speaker1.jpg,Images/Speaker2.jpg,Images/Speaker3.jpg,Images/Speaker4.jpg,Audio/Speaker2_Per/P2-8-Per.wav,Speaker2,گوینده۲,,,,,,,,,,,,,0,65,65,27,,,,,,,,,245.1596677919988,,,,,,,,,,,,,,,,,,,,,,,,,,,,,,,,,,,,,,,,,,,,,,,,,,,,,,,,,,,,,,,,,,,,,,,,,,243.2768645420001,243.28718212500098,None,No response,Images/Speaker1.jpg,Images/Speaker2.jpg,Images/Speaker3.jpg,Images/Speaker4.jpg,Audio/Speaker2_Per/P2-8-Per.wav,Speaker3,گوینده۳,,,,,,,,,,,,,,,,,,,483646,001,2024-06-30_16h42.01.447,5-24,2024.1.4,None,2024-06-30 16h42.07.189795 +0900,
,,,,,,,Images/Speaker1.jpg,Images/Speaker2.jpg,Images/Speaker3.jpg,Images/Speaker4.jpg,Audio/Speaker1_Per/P1-12-Per.wav,Speaker1,گوینده ۱,,,,,,,,,,,,,0,66,66,11,,,,,,,,,245.1596677919988,,,,,,,,,,,,,,,,,,,,,,,,,,,,,,,,,,,,,,,,,,,,,,,,,,,,,,,,,,,,,,,,,,,,,,,,,,243.2873201250004,243.29738920900127,None,No response,Images/Speaker1.jpg,Images/Speaker2.jpg,Images/Speaker3.jpg,Images/Speaker4.jpg,Audio/Speaker1_Per/P1-12-Per.wav,Speaker3,گوینده۳,,,,,,,,,,,,,,,,,,,483646,001,2024-06-30_16h42.01.447,5-24,2024.1.4,None,2024-06-30 16h42.07.189795 +0900,
,,,,,,,Images/Speaker1.jpg,Images/Speaker2.jpg,Images/Speaker3.jpg,Images/Speaker4.jpg,Audio/Speaker3_Per/P3-7-Per.wav,Speaker3,گوینده۳,,,,,,,,,,,,,0,67,67,46,,,,,,,,,245.1596677919988,,,,,,,,,,,,,,,,,,,,,,,,,,,,,,,,,,,,,,,,,,,,,,,,,,,,,,,,,,,,,,,,,,,,,,,,,,243.2975268750015,243.30788475000008,None,No response,Images/Speaker1.jpg,Images/Speaker2.jpg,Images/Speaker3.jpg,Images/Speaker4.jpg,Audio/Speaker3_Per/P3-7-Per.wav,Speaker3,گوینده۳,,,,,,,,,,,,,,,,,,,483646,001,2024-06-30_16h42.01.447,5-24,2024.1.4,None,2024-06-30 16h42.07.189795 +0900,
,,,,,,,Images/Speaker1.jpg,Images/Speaker2.jpg,Images/Speaker3.jpg,Images/Speaker4.jpg,Audio/Speaker3_Per/P3-17-Per.wav,Speaker3,گوینده۳,,,,,,,,,,,,,0,68,68,56,,,,,,,,,245.1596677919988,,,,,,,,,,,,,,,,,,,,,,,,,,,,,,,,,,,,,,,,,,,,,,,,,,,,,,,,,,,,,,,,,,,,,,,,,,243.30802345900156,243.31785574999958,None,No response,Images/Speaker1.jpg,Images/Speaker2.jpg,Images/Speaker3.jpg,Images/Speaker4.jpg,Audio/Speaker3_Per/P3-17-Per.wav,Speaker3,گوینده۳,,,,,,,,,,,,,,,,,,,483646,001,2024-06-30_16h42.01.447,5-24,2024.1.4,None,2024-06-30 16h42.07.189795 +0900,
,,,,,,,Images/Speaker1.jpg,Images/Speaker2.jpg,Images/Speaker3.jpg,Images/Speaker4.jpg,Audio/Speaker4_Per/P4-13-Per.wav,Speaker4,گوینده۴,,,,,,,,,,,,,0,69,69,72,,,,,,,,,245.1596677919988,,,,,,,,,,,,,,,,,,,,,,,,,,,,,,,,,,,,,,,,,,,,,,,,,,,,,,,,,,,,,,,,,,,,,,,,,,243.31799104200036,243.32862575000036,None,No response,Images/Speaker1.jpg,Images/Speaker2.jpg,Images/Speaker3.jpg,Images/Speaker4.jpg,Audio/Speaker4_Per/P4-13-Per.wav,Speaker3,گوینده۳,,,,,,,,,,,,,,,,,,,483646,001,2024-06-30_16h42.01.447,5-24,2024.1.4,None,2024-06-30 16h42.07.189795 +0900,
,,,,,,,Images/Speaker1.jpg,Images/Speaker2.jpg,Images/Speaker3.jpg,Images/Speaker4.jpg,Audio/Speaker4_Per/P4-12-Per.wav,Speaker4,گوینده۴,,,,,,,,,,,,,0,70,70,71,,,,,,,,,245.1596677919988,,,,,,,,,,,,,,,,,,,,,,,,,,,,,,,,,,,,,,,,,,,,,,,,,,,,,,,,,,,,,,,,,,,,,,,,,,243.3287608339997,243.33905216700077,None,No response,Images/Speaker1.jpg,Images/Speaker2.jpg,Images/Speaker3.jpg,Images/Speaker4.jpg,Audio/Speaker4_Per/P4-12-Per.wav,Speaker3,گوینده۳,,,,,,,,,,,,,,,,,,,483646,001,2024-06-30_16h42.01.447,5-24,2024.1.4,None,2024-06-30 16h42.07.189795 +0900,
,,,,,,,Images/Speaker1.jpg,Images/Speaker2.jpg,Images/Speaker3.jpg,Images/Speaker4.jpg,Audio/Speaker3_Per/P3-14-Per.wav,Speaker3,گوینده۳,,,,,,,,,,,,,0,71,71,53,,,,,,,,,245.1596677919988,,,,,,,,,,,,,,,,,,,,,,,,,,,,,,,,,,,,,,,,,,,,,,,,,,,,,,,,,,,,,,,,,,,,,,,,,,243.33918920900032,243.34999904199867,None,No response,Images/Speaker1.jpg,Images/Speaker2.jpg,Images/Speaker3.jpg,Images/Speaker4.jpg,Audio/Speaker3_Per/P3-14-Per.wav,Speaker3,گوینده۳,,,,,,,,,,,,,,,,,,,483646,001,2024-06-30_16h42.01.447,5-24,2024.1.4,None,2024-06-30 16h42.07.189795 +0900,
,,,,,,,Images/Speaker1.jpg,Images/Speaker2.jpg,Images/Speaker3.jpg,Images/Speaker4.jpg,Audio/Speaker3_Per/P3-1-Per.wav,Speaker3,گوینده۳,,,,,,,,,,,,,0,72,72,40,,,,,,,,,245.1596677919988,,,,,,,,,,,,,,,,,,,,,,,,,,,,,,,,,,,,,,,,,,,,,,,,,,,,,,,,,,,,,,,,,,,,,,,,,,243.35013954199894,243.36070562500026,None,No response,Images/Speaker1.jpg,Images/Speaker2.jpg,Images/Speaker3.jpg,Images/Speaker4.jpg,Audio/Speaker3_Per/P3-1-Per.wav,Speaker3,گوینده۳,,,,,,,,,,,,,,,,,,,483646,001,2024-06-30_16h42.01.447,5-24,2024.1.4,None,2024-06-30 16h42.07.189795 +0900,
