SpeakerImage1,SpeakerImage2,SpeakerImage3,SpeakerImage4,TrainingSound,EnglishCorrectAnswer,PersianCorrectAnswer,TrainingLoopGroup1.thisRepN,TrainingLoopGroup1.thisTrialN,TrainingLoopGroup1.thisN,TrainingLoopGroup1.thisIndex,thisRow.t,notes,trial.started,trial.stopped,GroupSelection.started,GroupInstructions.started,key_resp.started,GroupSelection.stopped,key_resp.keys,key_resp.rt,key_resp.duration,Introduction.started,text_2.started,image.started,sound_7.started,text_4.started,text_2.stopped,sound_8.started,image.stopped,text_4.stopped,image_7.started,sound_9.started,text_5.started,sound_10.started,image_7.stopped,text_5.stopped,image_8.started,sound_11.started,text_6.started,sound_12.started,image_8.stopped,text_6.stopped,image_9.started,sound_13.started,text_7.started,sound_14.started,image_9.stopped,text_7.stopped,Introduction.stopped,Instructions.started,InstructionText.started,InstructionText.stopped,Instructions.stopped,InitializeExperiment.started,InitializeExperiment.stopped,TrainingGroup1.started,image_1.started,image_2.started,image_3.started,image_4.started,sound1.started,Instruction.started,ResponseKey.started,TrainingGroup1.stopped,feedbackText,ResponseKey.keys,ResponseKey.rt,ResponseKey.duration,correct_responses,total_trials,FeedbackRoutine1.started,FeedbackText.started,FeedbackRoutine1.stopped,FeedbackText.stopped,participant,session,date,expName,psychopyVersion,frameRate,expStart,
,,,,,,,,,,,,,0.01198437498533167,0.01897287499741651,,,,,,,,,,,,,,,,,,,,,,,,,,,,,,,,,,,,,,,,,,,,,,,,,,,,,,,,,,,,,555449,001,2024-06-28_11h57.08.810,5-20,2024.1.4,None,2024-06-28 11h57.14.624146 +0900,
,,,,,,,,,,,,,,,0.01899158299784176,0.024585832987213507,0.024585832987213507,3.3015017499856185,1,3.23779529199237,None,,,,,,,,,,,,,,,,,,,,,,,,,,,,,,,,,,,,,,,,,,,,,,,,,,,,,,555449,001,2024-06-28_11h57.08.810,5-20,2024.1.4,None,2024-06-28 11h57.14.624146 +0900,
,,,,,,,,,,,,,,,,,,,,,,3.3015299169928767,3.373824957991019,8.295922374993097,8.30310062467858,8.295922374993097,8.372120124986395,13.303137791667057,18.289517291996162,18.289517291996162,18.289517291996162,18.3011417496639,18.289517291996162,23.311837999677905,28.28658941699541,28.28658941699541,28.29146354200202,28.303256083662077,28.29146354200202,33.31231870866419,38.289438500010874,38.289438500010874,38.289438500010874,38.301702041677586,38.289438500010874,43.30220616667454,48.28027416698751,48.28027416698751,48.278165374998935,,,,,,,,,,,,,,,,,,,,,,,,,,555449,001,2024-06-28_11h57.08.810,5-20,2024.1.4,None,2024-06-28 11h57.14.624146 +0900,
,,,,,,,,,,,,,,,,,,,,,,,,,,,,,,,,,,,,,,,,,,,,,,,,,,48.27818662498612,48.30224799999269,49.32173083300586,49.2877972080023,,,,,,,,,,,,,,,,,,,,,,555449,001,2024-06-28_11h57.08.810,5-20,2024.1.4,None,2024-06-28 11h57.14.624146 +0900,
,,,,,,,,,,,,,,,,,,,,,,,,,,,,,,,,,,,,,,,,,,,,,,,,,,,,,,49.287828750006156,49.28808287499123,,,,,,,,,,,,,,,,,,,,555449,001,2024-06-28_11h57.08.810,5-20,2024.1.4,None,2024-06-28 11h57.14.624146 +0900,
None,None,None,None,None,None,None,0,0,0,19,49.32173083300586,,,,,,,,,,,,,,,,,,,,,,,,,,,,,,,,,,,,,,,,,,,,,49.30761337498552,49.32173083300586,49.32173083300586,49.32173083300586,49.32173083300586,49.3203014163378,49.32173083300586,49.32173083300586,53.600806292000925,Incorrect! The correct answer is None. نادرست! پاسخ صحیح None است,1,4.2763177909946535,None,0,0,53.60488912501023,53.62459837499773,55.61819504198502,,555449,001,2024-06-28_11h57.08.810,5-20,2024.1.4,None,2024-06-28 11h57.14.624146 +0900,
Images/Speaker1.jpg,Images/Speaker2.jpg,Images/Speaker3.jpg,Images/Speaker4.jpg,Audio/Speaker1_Per/P1-3-Per.wav,Speaker1,گوینده ۱,0,1,1,2,55.64376320800511,,,,,,,,,,,,,,,,,,,,,,,,,,,,,,,,,,,,,,,,,,,,,55.61836679201224,55.64376320800511,55.64376320800511,55.64376320800511,55.64376320800511,55.651498083324014,55.64376320800511,55.64376320800511,61.02767025001231,Incorrect! The correct answer is Speaker1. نادرست! پاسخ صحیح گوینده ۱ است,3,5.382609958003741,None,0,0,61.02793341700453,61.04114195800503,63.023793917003786,63.035601499985205,555449,001,2024-06-28_11h57.08.810,5-20,2024.1.4,None,2024-06-28 11h57.14.624146 +0900,
None,None,None,None,None,None,None,0,2,2,74,63.035601499985205,,,,,,,,,,,,,,,,,,,,,,,,,,,,,,,,,,,,,,,,,,,,,63.02395233299467,63.035601499985205,63.035601499985205,63.035601499985205,63.035601499985205,63.04019820865166,63.035601499985205,63.035601499985205,63.81862433301285,Incorrect! The correct answer is None. نادرست! پاسخ صحیح None است,3,0.7810772079974413,None,0,0,63.822739625000395,63.83640699999523,65.82323412501137,,555449,001,2024-06-28_11h57.08.810,5-20,2024.1.4,None,2024-06-28 11h57.14.624146 +0900,
None,None,None,None,None,None,None,0,3,3,68,65.83518608298618,,,,,,,,,,,,,,,,,,,,,,,,,,,,,,,,,,,,,,,,,,,,,65.82340070800274,65.83518608298618,65.83518608298618,65.83518608298618,65.83518608298618,65.83984287467707,65.83518608298618,65.83518608298618,67.31016562500736,Incorrect! The correct answer is None. نادرست! پاسخ صحیح None است,3,1.4736034169909544,None,0,0,67.31433620798634,67.32734916699701,69.32248404200072,,555449,001,2024-06-28_11h57.08.810,5-20,2024.1.4,None,2024-06-28 11h57.14.624146 +0900,
None,None,None,None,None,None,None,0,4,4,22,69.33386691700434,,,,,,,,,,,,,,,,,,,,,,,,,,,,,,,,,,,,,,,,,,,,,69.32267695799237,69.33386691700434,69.33386691700434,69.33386691700434,69.33386691700434,69.33911129166178,69.33386691700434,69.33386691700434,69.75103341700742,Incorrect! The correct answer is None. نادرست! پاسخ صحیح None است,3,0.4083738750196062,None,0,0,69.75501341698691,69.76541758299572,71.74869087498519,71.76055804200587,555449,001,2024-06-28_11h57.08.810,5-20,2024.1.4,None,2024-06-28 11h57.14.624146 +0900,
None,None,None,None,None,None,None,0,5,5,43,71.76055804200587,,,,,,,,,,,,,,,,,,,,,,,,,,,,,,,,,,,,,,,,,,,,,71.74887524999212,71.76055804200587,71.76055804200587,71.76055804200587,71.76055804200587,71.76511949967632,71.76055804200587,71.76055804200587,72.03176499999245,Incorrect! The correct answer is None. نادرست! پاسخ صحیح None است,3,0.25670804202673025,None,0,0,72.03592237501289,72.04621729199425,74.03378624998732,74.04545270800008,555449,001,2024-06-28_11h57.08.810,5-20,2024.1.4,None,2024-06-28 11h57.14.624146 +0900,
None,None,None,None,None,None,None,0,6,6,37,74.04545270800008,,,,,,,,,,,,,,,,,,,,,,,,,,,,,,,,,,,,,,,,,,,,,74.03394500000286,74.04545270800008,74.04545270800008,74.04545270800008,74.04545270800008,74.05024204167809,74.04545270800008,74.04545270800008,74.87524870800553,Incorrect! The correct answer is None. نادرست! پاسخ صحیح None است,1,0.822537750005722,None,0,0,74.8793974579894,74.89245124999434,76.88007824998931,,555449,001,2024-06-28_11h57.08.810,5-20,2024.1.4,None,2024-06-28 11h57.14.624146 +0900,
None,None,None,None,None,None,None,0,7,7,65,76.89178262499627,,,,,,,,,,,,,,,,,,,,,,,,,,,,,,,,,,,,,,,,,,,,,76.88026558299316,76.89178262499627,76.89178262499627,76.89178262499627,76.89178262499627,76.89670929167575,76.89178262499627,76.89178262499627,77.37579954200191,Incorrect! The correct answer is None. نادرست! پاسخ صحیح None است,1,0.4798245409911033,None,0,0,77.38000816700514,77.39319500001147,79.37744037498487,79.38891895799316,555449,001,2024-06-28_11h57.08.810,5-20,2024.1.4,None,2024-06-28 11h57.14.624146 +0900,
None,None,None,None,None,None,None,0,8,8,46,79.38891895799316,,,,,,,,,,,,,,,,,,,,,,,,,,,,,,,,,,,,,,,,,,,,,79.37759774998995,79.38891895799316,79.38891895799316,79.38891895799316,79.38891895799316,79.39381058366077,79.38891895799316,79.38891895799316,79.61674420800409,Incorrect! The correct answer is None. نادرست! پاسخ صحیح None است,1,0.21313829201972112,None,0,0,79.62063525000121,79.63187287500477,81.61803379200865,81.6294644580048,555449,001,2024-06-28_11h57.08.810,5-20,2024.1.4,None,2024-06-28 11h57.14.624146 +0900,
None,None,None,None,None,None,None,0,9,9,44,81.6294644580048,,,,,,,,,,,,,,,,,,,,,,,,,,,,,,,,,,,,,,,,,,,,,81.61820729199098,81.6294644580048,81.6294644580048,81.6294644580048,81.6294644580048,81.63449354167484,81.6294644580048,81.6294644580048,81.85867816698737,Incorrect! The correct answer is None. نادرست! پاسخ صحیح None است,1,0.22774020899669267,None,0,0,81.86251045801328,81.87491820799187,83.85934450000059,83.87130633299239,555449,001,2024-06-28_11h57.08.810,5-20,2024.1.4,None,2024-06-28 11h57.14.624146 +0900,
None,None,None,None,None,None,None,0,10,10,24,83.87130633299239,,,,,,,,,,,,,,,,,,,,,,,,,,,,,,,,,,,,,,,,,,,,,83.85954262499581,83.87130633299239,83.87130633299239,83.87130633299239,83.87130633299239,83.87580616667789,83.87130633299239,83.87130633299239,84.32810524999513,Incorrect! The correct answer is None. نادرست! پاسخ صحیح None است,1,0.4448214170115534,None,0,0,84.33222974999808,84.34640458298963,86.33332574999076,86.34686216700356,555449,001,2024-06-28_11h57.08.810,5-20,2024.1.4,None,2024-06-28 11h57.14.624146 +0900,
None,None,None,None,None,None,None,0,11,11,70,86.34686216700356,,,,,,,,,,,,,,,,,,,,,,,,,,,,,,,,,,,,,,,,,,,,,86.33405033301096,86.34686216700356,86.34686216700356,86.34686216700356,86.34686216700356,86.34878116666029,86.34686216700356,86.34686216700356,86.54618287499761,Incorrect! The correct answer is None. نادرست! پاسخ صحیح None است,1,0.1961522920173593,None,0,0,86.55034804198658,86.56277320798836,88.55458875000477,,555449,001,2024-06-28_11h57.08.810,5-20,2024.1.4,None,2024-06-28 11h57.14.624146 +0900,
None,None,None,None,None,None,None,0,12,12,71,88.56644366699038,,,,,,,,,,,,,,,,,,,,,,,,,,,,,,,,,,,,,,,,,,,,,88.55477700001211,88.56644366699038,88.56644366699038,88.56644366699038,88.56644366699038,88.57122470866695,88.56644366699038,88.56644366699038,88.56699424999533,Incorrect! The correct answer is None. نادرست! پاسخ صحیح None است,1,2.1289695420127828,None,0,0,88.56751783299842,88.57782233299804,90.56566975000896,90.57711008298793,555449,001,2024-06-28_11h57.08.810,5-20,2024.1.4,None,2024-06-28 11h57.14.624146 +0900,
,,,,,,,,,,,90.57711008298793,,,,,,,,,,,,,,,,,,,,,,,,,,,,,,,,,,,,,,,,,,,,,90.56590824999148,90.57711008298793,90.57711008298793,90.57711008298793,90.57711008298793,90.5821174996711,90.57711008298793,90.57711008298793,,,,,,,,,,,,,,,,,,,
