SpeakerImage1,SpeakerImage2,SpeakerImage3,SpeakerImage4,TrainingSound,EnglishCorrectAnswer,PersianCorrectAnswer,SpeakerPhoto1,SpeakerPhoto2,SpeakerPhoto3,SpeakerPhoto4,TestingSound,EnglishCorrectResponse,PersianCorrectResponse,TrainingLoopGroup1.thisRepN,TrainingLoopGroup1.thisTrialN,TrainingLoopGroup1.thisN,TrainingLoopGroup1.thisIndex,TrainingLoopGroup2.thisRepN,TrainingLoopGroup2.thisTrialN,TrainingLoopGroup2.thisN,TrainingLoopGroup2.thisIndex,TrainingLoopGroup3.thisRepN,TrainingLoopGroup3.thisTrialN,TrainingLoopGroup3.thisN,TrainingLoopGroup3.thisIndex,testPhase1Loop.thisRepN,testPhase1Loop.thisTrialN,testPhase1Loop.thisN,testPhase1Loop.thisIndex,thisRow.t,notes,trial.started,trial.stopped,GroupSelection.started,GroupInstructions.started,key_resp.started,GroupSelection.stopped,key_resp.keys,key_resp.rt,key_resp.duration,Introduction.started,text_2.started,image.started,sound_7.started,text_4.started,text_2.stopped,sound_8.started,image.stopped,text_4.stopped,image_7.started,sound_9.started,text_5.started,sound_10.started,image_7.stopped,text_5.stopped,image_8.started,sound_11.started,text_6.started,sound_12.started,image_8.stopped,text_6.stopped,image_9.started,sound_13.started,text_7.started,sound_14.started,image_9.stopped,text_7.stopped,Introduction.stopped,Instructions.started,InstructionText.started,InstructionText.stopped,Instructions.stopped,InitializeExperiment.started,InitializeExperiment.stopped,TrainingGroup3.started,SpeakerPicture3.started,image_15.started,image_16.started,image_17.started,Sound3.started,Instruction3.started,Response3.started,TrainingGroup3.stopped,feedbackText,Response3.keys,Response3.rt,Response3.duration,correct_responses_group3,total_trials_group3,FeedbackRoutine3.started,FeedbackText3.started,FeedbackRoutine3.stopped,FeedbackText3.stopped,TransitionRoutine.started,TransitionRoutine.stopped,nextRoutine,WelcomeTest.started,text_12.started,text_12.stopped,WelcomeTest.stopped,TestPhase1.started,test1_image1.started,test1_image2.started,test1_image3.started,test1_image4.started,test1_sound.started,text_3.started,test1_response_keyboard.started,TestPhase1.stopped,test1_response_keyboard.keys,test1_response_keyboard.rt,test1_response_keyboard.duration,test1_response,test1_image_file1,test1_image_file2,test1_image_file3,test1_image_file4,test1_sound_file,english_correct_answer,persian_correct_answer,participant,session,date,expName,psychopyVersion,frameRate,expStart,
,,,,,,,,,,,,,,,,,,,,,,,,,,,,,,,,0.00925341699985438,0.009578167000654503,,,,,,,,,,,,,,,,,,,,,,,,,,,,,,,,,,,,,,,,,,,,,,,,,,,,,,,,,,,,,,,,,,,,,,,,,,,,,,,,,,,,,,,,559566,001,2024-06-30_14h13.47.657,5-23,2024.1.4,None,2024-06-30 14h13.52.413921 +0900,
,,,,,,,,,,,,,,,,,,,,,,,,,,,,,,,,,,0.009594582999852719,0.013947500001449953,0.013947500001449953,0.9240542919997097,3,0.873010790999615,None,,,,,,,,,,,,,,,,,,,,,,,,,,,,,,,,,,,,,,,,,,,,,,,,,,,,,,,,,,,,,,,,,,,,,,,,,,,,,,,,,559566,001,2024-06-30_14h13.47.657,5-23,2024.1.4,None,2024-06-30 14h13.52.413921 +0900,
,,,,,,,,,,,,,,,,,,,,,,,,,,,,,,,,,,,,,,,,,0.9240845000003901,0.9740775830014172,5.916370500000994,5.925730791667108,5.916370500000994,5.9712720420011465,10.931290791666713,15.915375333001066,15.915375333001066,15.920298500001081,15.932041999667733,15.920298500001081,20.92784895866704,25.91550158300015,25.91550158300015,25.91550158300015,25.925398708667004,25.91550158300015,30.923315208667432,35.91811937500097,35.91811937500097,35.91811937500097,35.925554416666515,35.91811937500097,40.92646995866768,45.9099089170013,45.9099089170013,45.90674429200044,,,,,,,,,,,,,,,,,,,,,,,,,,,,,,,,,,,,,,,,,,,,,,,,,,,,,559566,001,2024-06-30_14h13.47.657,5-23,2024.1.4,None,2024-06-30 14h13.52.413921 +0900,
,,,,,,,,,,,,,,,,,,,,,,,,,,,,,,,,,,,,,,,,,,,,,,,,,,,,,,,,,,,,,,,,,,,,,45.906760083000336,45.9099089170013,46.978099167001346,46.89848925000115,,,,,,,,,,,,,,,,,,,,,,,,,,,,,,,,,,,,,,,,,,,,,,,,,559566,001,2024-06-30_14h13.47.657,5-23,2024.1.4,None,2024-06-30 14h13.52.413921 +0900,
,,,,,,,,,,,,,,,,,,,,,,,,,,,,,,,,,,,,,,,,,,,,,,,,,,,,,,,,,,,,,,,,,,,,,,,,,46.89852070800043,46.898836458000005,,,,,,,,,,,,,,,,,,,,,,,,,,,,,,,,,,,,,,,,,,,,,,,559566,001,2024-06-30_14h13.47.657,5-23,2024.1.4,None,2024-06-30 14h13.52.413921 +0900,
Images/Speaker1.jpg,Images/Speaker2.jpg,Images/Speaker3.jpg,Images/Speaker4.jpg,Audio/Speaker1_En/P1-2-En.wav,Speaker1,گوینده ۱,,,,,,,,,,,,,,,,0,0,0,1,,,,,46.978099167001346,,,,,,,,,,,,,,,,,,,,,,,,,,,,,,,,,,,,,,,,,,,,,46.952998917000514,46.978099167001346,46.978099167001346,46.978099167001346,46.978099167001346,46.981119416333364,46.978099167001346,46.978099167001346,47.80601591699997,Correct! صحیح است,1,0.8221550420003041,None,0,1,47.81165612500081,47.82529458300087,49.8152353330006,,,,,,,,,,,,,,,,,,,,,,,,,,,,,559566,001,2024-06-30_14h13.47.657,5-23,2024.1.4,None,2024-06-30 14h13.52.413921 +0900,
Images/Speaker1.jpg,Images/Speaker2.jpg,Images/Speaker3.jpg,Images/Speaker4.jpg,Audio/Speaker4_En/P4-1-En.wav,Speaker4,گوینده۴,,,,,,,,,,,,,,,,0,1,1,60,,,,,49.83939362500132,,,,,,,,,,,,,,,,,,,,,,,,,,,,,,,,,,,,,,,,,,,,,49.815956583001025,49.83939362500132,49.83939362500132,49.83939362500132,49.83939362500132,49.84839975033404,49.83939362500132,49.83939362500132,50.011020500000086,Incorrect! The correct answer is Speaker4. نادرست! پاسخ صحیح گوینده۴ است,1,0.1681453330002114,None,0,2,50.014949333000914,50.03278195799976,52.018625750000865,,,,,,,,,,,,,,,,,,,,,,,,,,,,,559566,001,2024-06-30_14h13.47.657,5-23,2024.1.4,None,2024-06-30 14h13.52.413921 +0900,
Images/Speaker1.jpg,Images/Speaker2.jpg,Images/Speaker3.jpg,Images/Speaker4.jpg,Audio/Speaker1_En/P1-18-En.wav,Speaker1,گوینده ۱,,,,,,,,,,,,,,,,0,2,2,17,,,,,52.03984241699982,,,,,,,,,,,,,,,,,,,,,,,,,,,,,,,,,,,,,,,,,,,,,52.018824083001164,52.03984241699982,52.03984241699982,52.03984241699982,52.03984241699982,52.03522845866634,52.03984241699982,52.03984241699982,52.30333004200111,Correct! صحیح است,1,0.26090900000053807,None,0,3,52.307165166999766,52.31996891700146,54.31692945800023,,,,,,,,,,,,,,,,,,,,,,,,,,,,,559566,001,2024-06-30_14h13.47.657,5-23,2024.1.4,None,2024-06-30 14h13.52.413921 +0900,
Images/Speaker1.jpg,Images/Speaker2.jpg,Images/Speaker3.jpg,Images/Speaker4.jpg,Audio/Speaker2_En/P2-14-En.wav,Speaker2,گوینده۲,,,,,,,,,,,,,,,,0,3,3,33,,,,,54.34181045800142,,,,,,,,,,,,,,,,,,,,,,,,,,,,,,,,,,,,,,,,,,,,,54.31750229200043,54.34181045800142,54.34181045800142,54.34181045800142,54.34181045800142,54.350069666334576,54.34181045800142,54.34181045800142,54.39586600000075,Incorrect! The correct answer is Speaker2. نادرست! پاسخ صحیح گوینده۲ است,1,0.05093454100097006,None,0,4,54.40003212500051,54.412616208001054,56.39799354200113,56.41848483300055,,,,,,,,,,,,,,,,,,,,,,,,,,,,559566,001,2024-06-30_14h13.47.657,5-23,2024.1.4,None,2024-06-30 14h13.52.413921 +0900,
Images/Speaker1.jpg,Images/Speaker2.jpg,Images/Speaker3.jpg,Images/Speaker4.jpg,Audio/Speaker2_En/P2-3-En.wav,Speaker2,گوینده۲,,,,,,,,,,,,,,,,0,4,4,22,,,,,56.41848483300055,,,,,,,,,,,,,,,,,,,,,,,,,,,,,,,,,,,,,,,,,,,,,56.39815224999984,56.41848483300055,56.41848483300055,56.41848483300055,56.41848483300055,56.4144062086673,56.41848483300055,56.41848483300055,56.56105800000114,Incorrect! The correct answer is Speaker2. نادرست! پاسخ صحیح گوینده۲ است,1,0.1394901250005205,None,0,5,56.565138916999786,56.57757124999989,58.56313041700014,58.58734041699972,,,,,,,,,,,,,,,,,,,,,,,,,,,,559566,001,2024-06-30_14h13.47.657,5-23,2024.1.4,None,2024-06-30 14h13.52.413921 +0900,
Images/Speaker1.jpg,Images/Speaker2.jpg,Images/Speaker3.jpg,Images/Speaker4.jpg,Audio/Speaker4_En/P4-3-En.wav,Speaker4,گوینده۴,,,,,,,,,,,,,,,,0,5,5,62,,,,,58.58734041699972,,,,,,,,,,,,,,,,,,,,,,,,,,,,,,,,,,,,,,,,,,,,,58.563390417000846,58.58734041699972,58.58734041699972,58.58734041699972,58.58734041699972,58.59376383333304,58.58734041699972,58.58734041699972,58.5880164170012,Incorrect! The correct answer is Speaker4. نادرست! پاسخ صحیح گوینده۴ است,1,2.1420507920011005,None,0,6,58.588402000001224,58.599078750001354,60.59676341700106,,,,,,,,,,,,,,,,,,,,,,,,,,,,,559566,001,2024-06-30_14h13.47.657,5-23,2024.1.4,None,2024-06-30 14h13.52.413921 +0900,
Images/Speaker1.jpg,Images/Speaker2.jpg,Images/Speaker3.jpg,Images/Speaker4.jpg,Audio/Speaker4_En/P4-9-En.wav,Speaker4,گوینده۴,,,,,,,,,,,,,,,,0,6,6,68,,,,,60.62056466700051,,,,,,,,,,,,,,,,,,,,,,,,,,,,,,,,,,,,,,,,,,,,,60.59729441700074,60.62056466700051,60.62056466700051,60.62056466700051,60.62056466700051,60.62995641633327,60.62056466700051,60.62056466700051,60.652688792000845,Incorrect! The correct answer is Speaker4. نادرست! پاسخ صحیح گوینده۴ است,1,0.02363958299974911,None,0,7,60.65685762500107,60.66952641700118,62.65391591700063,62.67745533299967,,,,,,,,,,,,,,,,,,,,,,,,,,,,559566,001,2024-06-30_14h13.47.657,5-23,2024.1.4,None,2024-06-30 14h13.52.413921 +0900,
Images/Speaker1.jpg,Images/Speaker2.jpg,Images/Speaker3.jpg,Images/Speaker4.jpg,Audio/Speaker1_En/P1-4-En.wav,Speaker1,گوینده ۱,,,,,,,,,,,,,,,,0,7,7,3,,,,,62.67745533299967,,,,,,,,,,,,,,,,,,,,,,,,,,,,,,,,,,,,,,,,,,,,,62.654068292000375,62.67745533299967,62.67745533299967,62.67745533299967,62.67745533299967,62.66990112466762,62.67745533299967,62.67745533299967,62.678099374999874,Correct! صحیح است,1,2.030873749999955,None,0,8,62.681858542000555,62.690429125001174,64.67795737500091,64.69922525000038,,,,,,,,,,,,,,,,,,,,,,,,,,,,559566,001,2024-06-30_14h13.47.657,5-23,2024.1.4,None,2024-06-30 14h13.52.413921 +0900,
Images/Speaker1.jpg,Images/Speaker2.jpg,Images/Speaker3.jpg,Images/Speaker4.jpg,Audio/Speaker2_En/P2-5-En.wav,Speaker2,گوینده۲,,,,,,,,,,,,,,,,0,8,8,24,,,,,64.69922525000038,,,,,,,,,,,,,,,,,,,,,,,,,,,,,,,,,,,,,,,,,,,,,64.67814166700009,64.69922525000038,64.69922525000038,64.69922525000038,64.69922525000038,64.69444379166659,64.69922525000038,64.69922525000038,64.70582879200083,Incorrect! The correct answer is Speaker2. نادرست! پاسخ صحیح گوینده۲ است,1,0.00503295800081105,None,0,9,64.70998554200014,64.72240212500037,66.70925533300033,66.73060400000031,,,,,,,,,,,,,,,,,,,,,,,,,,,,559566,001,2024-06-30_14h13.47.657,5-23,2024.1.4,None,2024-06-30 14h13.52.413921 +0900,
Images/Speaker1.jpg,Images/Speaker2.jpg,Images/Speaker3.jpg,Images/Speaker4.jpg,Audio/Speaker4_En/P4-7-En.wav,Speaker4,گوینده۴,,,,,,,,,,,,,,,,0,9,9,66,,,,,66.73060400000031,,,,,,,,,,,,,,,,,,,,,,,,,,,,,,,,,,,,,,,,,,,,,66.7094089580005,66.73060400000031,66.73060400000031,66.73060400000031,66.73060400000031,66.72563245866719,66.73060400000031,66.73060400000031,66.73117812500095,Incorrect! The correct answer is Speaker4. نادرست! پاسخ صحیح گوینده۴ است,1,1.9784223749993544,None,0,10,66.73531833299967,66.7454052080011,68.73077266700056,68.75243291700099,,,,,,,,,,,,,,,,,,,,,,,,,,,,559566,001,2024-06-30_14h13.47.657,5-23,2024.1.4,None,2024-06-30 14h13.52.413921 +0900,
Images/Speaker1.jpg,Images/Speaker2.jpg,Images/Speaker3.jpg,Images/Speaker4.jpg,Audio/Speaker2_En/P2-13-En.wav,Speaker2,گوینده۲,,,,,,,,,,,,,,,,0,10,10,32,,,,,68.75243291700099,,,,,,,,,,,,,,,,,,,,,,,,,,,,,,,,,,,,,,,,,,,,,68.73092058300062,68.75243291700099,68.75243291700099,68.75243291700099,68.75243291700099,68.74723512466723,68.75243291700099,68.75243291700099,68.75298479200137,Incorrect! The correct answer is Speaker2. نادرست! پاسخ صحیح گوینده۲ است,1,1.948685542000021,None,0,11,68.75717799999984,68.76745787500113,70.75624370800142,70.78026487500028,,,,,,,,,,,,,,,,,,,,,,,,,,,,559566,001,2024-06-30_14h13.47.657,5-23,2024.1.4,None,2024-06-30 14h13.52.413921 +0900,
Images/Speaker1.jpg,Images/Speaker2.jpg,Images/Speaker3.jpg,Images/Speaker4.jpg,Audio/Speaker2_En/P2-15-En.wav,Speaker2,گوینده۲,,,,,,,,,,,,,,,,0,11,11,34,,,,,70.78026487500028,,,,,,,,,,,,,,,,,,,,,,,,,,,,,,,,,,,,,,,,,,,,,70.756411458,70.78026487500028,70.78026487500028,70.78026487500028,70.78026487500028,70.7722588336676,70.78026487500028,70.78026487500028,70.78089254200131,Incorrect! The correct answer is Speaker2. نادرست! پاسخ صحیح گوینده۲ است,1,1.9947873750006693,None,0,12,70.78502875000049,70.79471970800114,72.78327820800041,72.80726945800052,,,,,,,,,,,,,,,,,,,,,,,,,,,,559566,001,2024-06-30_14h13.47.657,5-23,2024.1.4,None,2024-06-30 14h13.52.413921 +0900,
Images/Speaker1.jpg,Images/Speaker2.jpg,Images/Speaker3.jpg,Images/Speaker4.jpg,Audio/Speaker3_En/P3-17-En.wav,Speaker3,گوینده۳,,,,,,,,,,,,,,,,0,12,12,56,,,,,72.80726945800052,,,,,,,,,,,,,,,,,,,,,,,,,,,,,,,,,,,,,,,,,,,,,72.78388825000002,72.80726945800052,72.80726945800052,72.80726945800052,72.80726945800052,72.81578333333394,72.80726945800052,72.80726945800052,72.89105420800115,Incorrect! The correct answer is Speaker3. نادرست! پاسخ صحیح گوینده۳ است,1,0.07177766699896893,None,0,13,72.89475570800096,72.90717745800066,74.90139362500122,,,,,,,,,,,,,,,,,,,,,,,,,,,,,559566,001,2024-06-30_14h13.47.657,5-23,2024.1.4,None,2024-06-30 14h13.52.413921 +0900,
Images/Speaker1.jpg,Images/Speaker2.jpg,Images/Speaker3.jpg,Images/Speaker4.jpg,Audio/Speaker2_En/P2-8-En.wav,Speaker2,گوینده۲,,,,,,,,,,,,,,,,0,13,13,27,,,,,74.92691970800115,,,,,,,,,,,,,,,,,,,,,,,,,,,,,,,,,,,,,,,,,,,,,74.90198775000135,74.92691970800115,74.92691970800115,74.92691970800115,74.92691970800115,74.93454300033457,74.92691970800115,74.92691970800115,74.98086241700003,Incorrect! The correct answer is Speaker2. نادرست! پاسخ صحیح گوینده۲ است,1,0.05205674999888288,None,0,14,74.98472179200144,74.99678808300087,76.99310241700005,,,,,,,,,,,,,,,,,,,,,,,,,,,,,559566,001,2024-06-30_14h13.47.657,5-23,2024.1.4,None,2024-06-30 14h13.52.413921 +0900,
Images/Speaker1.jpg,Images/Speaker2.jpg,Images/Speaker3.jpg,Images/Speaker4.jpg,Audio/Speaker2_En/P2-2-En.wav,Speaker2,گوینده۲,,,,,,,,,,,,,,,,0,14,14,21,,,,,77.01451925000038,,,,,,,,,,,,,,,,,,,,,,,,,,,,,,,,,,,,,,,,,,,,,76.99327266700129,77.01451925000038,77.01451925000038,77.01451925000038,77.01451925000038,77.00972962466791,77.01451925000038,77.01451925000038,77.01516400000037,Incorrect! The correct answer is Speaker2. نادرست! پاسخ صحیح گوینده۲ است,1,2.0133750829991186,None,0,15,77.0191173330004,77.02865466700132,79.01603991699994,79.04089116700015,,,,,,,,,,,,,,,,,,,,,,,,,,,,559566,001,2024-06-30_14h13.47.657,5-23,2024.1.4,None,2024-06-30 14h13.52.413921 +0900,
Images/Speaker1.jpg,Images/Speaker2.jpg,Images/Speaker3.jpg,Images/Speaker4.jpg,Audio/Speaker4_En/P4-18-En.wav,Speaker4,گوینده۴,,,,,,,,,,,,,,,,0,15,15,77,,,,,79.04089116700015,,,,,,,,,,,,,,,,,,,,,,,,,,,,,,,,,,,,,,,,,,,,,79.01660274999995,79.04089116700015,79.04089116700015,79.04089116700015,79.04089116700015,79.04849662533391,79.04089116700015,79.04089116700015,79.10671962500055,Incorrect! The correct answer is Speaker4. نادرست! پاسخ صحیح گوینده۴ است,1,0.053608459000315634,None,0,16,79.11103591699975,79.12192320800023,81.10519449999993,81.12800687500021,,,,,,,,,,,,,,,,,,,,,,,,,,,,559566,001,2024-06-30_14h13.47.657,5-23,2024.1.4,None,2024-06-30 14h13.52.413921 +0900,
Images/Speaker1.jpg,Images/Speaker2.jpg,Images/Speaker3.jpg,Images/Speaker4.jpg,Audio/Speaker3_En/P3-2-En.wav,Speaker3,گوینده۳,,,,,,,,,,,,,,,,0,16,16,41,,,,,81.12800687500021,,,,,,,,,,,,,,,,,,,,,,,,,,,,,,,,,,,,,,,,,,,,,81.1053735000005,81.12800687500021,81.12800687500021,81.12800687500021,81.12800687500021,81.12164383366714,81.12800687500021,81.12800687500021,81.25378737500068,Incorrect! The correct answer is Speaker3. نادرست! پاسخ صحیح گوینده۳ است,1,0.12313745800020115,None,0,17,81.2576197920007,81.270317333001,83.25613970800077,83.27686520800125,,,,,,,,,,,,,,,,,,,,,,,,,,,,559566,001,2024-06-30_14h13.47.657,5-23,2024.1.4,None,2024-06-30 14h13.52.413921 +0900,
Images/Speaker1.jpg,Images/Speaker2.jpg,Images/Speaker3.jpg,Images/Speaker4.jpg,Audio/Speaker2_En/P2-19-En.wav,Speaker2,گوینده۲,,,,,,,,,,,,,,,,0,17,17,38,,,,,83.27686520800125,,,,,,,,,,,,,,,,,,,,,,,,,,,,,,,,,,,,,,,,,,,,,83.2563242920005,83.27686520800125,83.27686520800125,83.27686520800125,83.27686520800125,83.272571624668,83.27686520800125,83.27686520800125,83.36435325000093,Incorrect! The correct answer is Speaker2. نادرست! پاسخ صحیح گوینده۲ است,1,0.08608833300058905,None,0,18,83.3682192920005,83.38069495800119,85.36939558300037,,,,,,,,,,,,,,,,,,,,,,,,,,,,,559566,001,2024-06-30_14h13.47.657,5-23,2024.1.4,None,2024-06-30 14h13.52.413921 +0900,
Images/Speaker1.jpg,Images/Speaker2.jpg,Images/Speaker3.jpg,Images/Speaker4.jpg,Audio/Speaker1_En/P1-13-En.wav,Speaker1,گوینده ۱,,,,,,,,,,,,,,,,0,18,18,12,,,,,85.39539508300004,,,,,,,,,,,,,,,,,,,,,,,,,,,,,,,,,,,,,,,,,,,,,85.37004112500108,85.39539508300004,85.39539508300004,85.39539508300004,85.39539508300004,85.4025656253348,85.39539508300004,85.39539508300004,85.46574366700042,Correct! صحیح است,1,0.06491679099963221,None,0,19,85.4698032920005,85.48002450000058,87.46779216700088,87.48775379200015,,,,,,,,,,,,,,,,,,,,,,,,,,,,559566,001,2024-06-30_14h13.47.657,5-23,2024.1.4,None,2024-06-30 14h13.52.413921 +0900,
Images/Speaker1.jpg,Images/Speaker2.jpg,Images/Speaker3.jpg,Images/Speaker4.jpg,Audio/Speaker2_En/P2-7-En.wav,Speaker2,گوینده۲,,,,,,,,,,,,,,,,0,19,19,26,,,,,87.48775379200015,,,,,,,,,,,,,,,,,,,,,,,,,,,,,,,,,,,,,,,,,,,,,87.4679538750006,87.48775379200015,87.48775379200015,87.48775379200015,87.48775379200015,87.48414279166742,87.48775379200015,87.48775379200015,87.48830095800076,Incorrect! The correct answer is Speaker2. نادرست! پاسخ صحیح گوینده۲ است,1,2.0631582499991055,None,0,20,87.49226745800115,87.5016156670008,89.48548154200034,89.50632254199991,,,,,,,,,,,,,,,,,,,,,,,,,,,,559566,001,2024-06-30_14h13.47.657,5-23,2024.1.4,None,2024-06-30 14h13.52.413921 +0900,
Images/Speaker1.jpg,Images/Speaker2.jpg,Images/Speaker3.jpg,Images/Speaker4.jpg,Audio/Speaker2_En/P2-12-En.wav,Speaker2,گوینده۲,,,,,,,,,,,,,,,,0,20,20,31,,,,,89.50632254199991,,,,,,,,,,,,,,,,,,,,,,,,,,,,,,,,,,,,,,,,,,,,,89.48562937499992,89.50632254199991,89.50632254199991,89.50632254199991,89.50632254199991,89.50188929166713,89.50632254199991,89.50632254199991,89.63020145800147,Incorrect! The correct answer is Speaker2. نادرست! پاسخ صحیح گوینده۲ است,1,0.11619154199979675,None,0,21,89.6344740830009,89.64476712500073,91.63930983300088,,,,,,,,,,,,,,,,,,,,,,,,,,,,,559566,001,2024-06-30_14h13.47.657,5-23,2024.1.4,None,2024-06-30 14h13.52.413921 +0900,
Images/Speaker1.jpg,Images/Speaker2.jpg,Images/Speaker3.jpg,Images/Speaker4.jpg,Audio/Speaker3_En/P3-10-En.wav,Speaker3,گوینده۳,,,,,,,,,,,,,,,,0,21,21,49,,,,,91.66665541700058,,,,,,,,,,,,,,,,,,,,,,,,,,,,,,,,,,,,,,,,,,,,,91.63993937499981,91.66665541700058,91.66665541700058,91.66665541700058,91.66665541700058,91.67248250033347,91.66665541700058,91.66665541700058,91.66727295800047,Incorrect! The correct answer is Speaker3. نادرست! پاسخ صحیح گوینده۳ است,1,2.128006250000908,None,0,22,91.66761812500044,91.67733795800086,93.66789141700065,,,,,,,,,,,,,,,,,,,,,,,,,,,,,559566,001,2024-06-30_14h13.47.657,5-23,2024.1.4,None,2024-06-30 14h13.52.413921 +0900,
Images/Speaker1.jpg,Images/Speaker2.jpg,Images/Speaker3.jpg,Images/Speaker4.jpg,Audio/Speaker3_En/P3-7-En.wav,Speaker3,گوینده۳,,,,,,,,,,,,,,,,0,22,22,46,,,,,93.69321679200038,,,,,,,,,,,,,,,,,,,,,,,,,,,,,,,,,,,,,,,,,,,,,93.66853320800146,93.69321679200038,93.69321679200038,93.69321679200038,93.69321679200038,93.70105862533322,93.69321679200038,93.69321679200038,93.73613237500103,Incorrect! The correct answer is Speaker3. نادرست! پاسخ صحیح گوینده۳ است,1,0.040481041998646106,None,0,23,93.74014366700067,93.75188208300096,95.74043045800136,,,,,,,,,,,,,,,,,,,,,,,,,,,,,559566,001,2024-06-30_14h13.47.657,5-23,2024.1.4,None,2024-06-30 14h13.52.413921 +0900,
Images/Speaker1.jpg,Images/Speaker2.jpg,Images/Speaker3.jpg,Images/Speaker4.jpg,Audio/Speaker3_En/P3-18-En.wav,Speaker3,گوینده۳,,,,,,,,,,,,,,,,0,23,23,57,,,,,95.76489745800063,,,,,,,,,,,,,,,,,,,,,,,,,,,,,,,,,,,,,,,,,,,,,95.74102900000071,95.76489745800063,95.76489745800063,95.76489745800063,95.76489745800063,95.7735981663341,95.76489745800063,95.76489745800063,95.78047395800058,Incorrect! The correct answer is Speaker3. نادرست! پاسخ صحیح گوینده۳ است,1,0.011708374999216176,None,0,24,95.7845054999998,95.79694604200085,97.78968587500094,,,,,,,,,,,,,,,,,,,,,,,,,,,,,559566,001,2024-06-30_14h13.47.657,5-23,2024.1.4,None,2024-06-30 14h13.52.413921 +0900,
Images/Speaker1.jpg,Images/Speaker2.jpg,Images/Speaker3.jpg,Images/Speaker4.jpg,Audio/Speaker4_En/P4-2-En.wav,Speaker4,گوینده۴,,,,,,,,,,,,,,,,0,24,24,61,,,,,97.81313025000054,,,,,,,,,,,,,,,,,,,,,,,,,,,,,,,,,,,,,,,,,,,,,97.78983179200077,97.81313025000054,97.81313025000054,97.81313025000054,97.81313025000054,97.8229898753348,97.81313025000054,97.81313025000054,97.92260883299969,Incorrect! The correct answer is Speaker4. نادرست! پاسخ صحیح گوینده۴ است,1,0.09945875000084925,None,0,25,97.92648012500104,97.93923087500116,99.93433750000077,,,,,,,,,,,,,,,,,,,,,,,,,,,,,559566,001,2024-06-30_14h13.47.657,5-23,2024.1.4,None,2024-06-30 14h13.52.413921 +0900,
Images/Speaker1.jpg,Images/Speaker2.jpg,Images/Speaker3.jpg,Images/Speaker4.jpg,Audio/Speaker4_En/P4-12-En.wav,Speaker4,گوینده۴,,,,,,,,,,,,,,,,0,25,25,71,,,,,99.95894104200124,,,,,,,,,,,,,,,,,,,,,,,,,,,,,,,,,,,,,,,,,,,,,99.93496583300112,99.95894104200124,99.95894104200124,99.95894104200124,99.95894104200124,99.96748975033418,99.95894104200124,99.95894104200124,99.99552866700105,Incorrect! The correct answer is Speaker4. نادرست! پاسخ صحیح گوینده۴ است,1,0.035397666000790196,None,0,26,99.999155083,100.01172970800144,101.99892458300019,102.01878104200114,,,,,,,,,,,,,,,,,,,,,,,,,,,,559566,001,2024-06-30_14h13.47.657,5-23,2024.1.4,None,2024-06-30 14h13.52.413921 +0900,
Images/Speaker1.jpg,Images/Speaker2.jpg,Images/Speaker3.jpg,Images/Speaker4.jpg,Audio/Speaker2_En/P2-16-En.wav,Speaker2,گوینده۲,,,,,,,,,,,,,,,,0,26,26,35,,,,,102.01878104200114,,,,,,,,,,,,,,,,,,,,,,,,,,,,,,,,,,,,,,,,,,,,,101.99913179200121,102.01878104200114,102.01878104200114,102.01878104200114,102.01878104200114,102.01538112466757,102.01878104200114,102.01878104200114,102.0946656670003,Incorrect! The correct answer is Speaker2. نادرست! پاسخ صحیح گوینده۲ است,1,0.0713892500007205,None,0,27,102.09861375000037,102.11045562500112,104.09868541700052,104.12097175000054,,,,,,,,,,,,,,,,,,,,,,,,,,,,559566,001,2024-06-30_14h13.47.657,5-23,2024.1.4,None,2024-06-30 14h13.52.413921 +0900,
Images/Speaker1.jpg,Images/Speaker2.jpg,Images/Speaker3.jpg,Images/Speaker4.jpg,Audio/Speaker1_En/P1-16-En.wav,Speaker1,گوینده ۱,,,,,,,,,,,,,,,,0,27,27,15,,,,,104.12097175000054,,,,,,,,,,,,,,,,,,,,,,,,,,,,,,,,,,,,,,,,,,,,,104.09887100000014,104.12097175000054,104.12097175000054,104.12097175000054,104.12097175000054,104.11508854166665,104.12097175000054,104.12097175000054,104.52513945800092,Correct! صحیح است,1,0.3976371669996297,None,0,28,104.52895125000032,104.53894237500026,106.52163775000008,106.54759191700032,,,,,,,,,,,,,,,,,,,,,,,,,,,,559566,001,2024-06-30_14h13.47.657,5-23,2024.1.4,None,2024-06-30 14h13.52.413921 +0900,
Images/Speaker1.jpg,Images/Speaker2.jpg,Images/Speaker3.jpg,Images/Speaker4.jpg,Audio/Speaker4_En/P4-5-En.wav,Speaker4,گوینده۴,,,,,,,,,,,,,,,,0,28,28,64,,,,,106.54759191700032,,,,,,,,,,,,,,,,,,,,,,,,,,,,,,,,,,,,,,,,,,,,,106.52181058300084,106.54759191700032,106.54759191700032,106.54759191700032,106.54759191700032,106.53807466666719,106.54759191700032,106.54759191700032,106.5481982500005,Incorrect! The correct answer is Speaker4. نادرست! پاسخ صحیح گوینده۴ است,1,2.41638145899924,None,0,29,106.55238016700059,106.56295279200094,108.551304042001,108.57399041700046,,,,,,,,,,,,,,,,,,,,,,,,,,,,559566,001,2024-06-30_14h13.47.657,5-23,2024.1.4,None,2024-06-30 14h13.52.413921 +0900,
Images/Speaker1.jpg,Images/Speaker2.jpg,Images/Speaker3.jpg,Images/Speaker4.jpg,Audio/Speaker4_En/P4-8-En.wav,Speaker4,گوینده۴,,,,,,,,,,,,,,,,0,29,29,67,,,,,108.57399041700046,,,,,,,,,,,,,,,,,,,,,,,,,,,,,,,,,,,,,,,,,,,,,108.55205583300085,108.57399041700046,108.57399041700046,108.57399041700046,108.57399041700046,108.58384791633446,108.57399041700046,108.57399041700046,108.74246020800092,Incorrect! The correct answer is Speaker4. نادرست! پاسخ صحیح گوینده۴ است,1,0.15673804200014274,None,0,30,108.74616274999971,108.7588392079997,110.74299962500118,110.76505720800014,,,,,,,,,,,,,,,,,,,,,,,,,,,,559566,001,2024-06-30_14h13.47.657,5-23,2024.1.4,None,2024-06-30 14h13.52.413921 +0900,
Images/Speaker1.jpg,Images/Speaker2.jpg,Images/Speaker3.jpg,Images/Speaker4.jpg,Audio/Speaker4_En/P4-16-En.wav,Speaker4,گوینده۴,,,,,,,,,,,,,,,,0,30,30,75,,,,,110.76505720800014,,,,,,,,,,,,,,,,,,,,,,,,,,,,,,,,,,,,,,,,,,,,,110.74319520800054,110.76505720800014,110.76505720800014,110.76505720800014,110.76505720800014,110.75946724966731,110.76505720800014,110.76505720800014,110.83120904200041,Incorrect! The correct answer is Speaker4. نادرست! پاسخ صحیح گوینده۴ است,1,0.06096849999994447,None,0,31,110.83493220800119,110.84822275000079,112.84426354199968,,,,,,,,,,,,,,,,,,,,,,,,,,,,,559566,001,2024-06-30_14h13.47.657,5-23,2024.1.4,None,2024-06-30 14h13.52.413921 +0900,
Images/Speaker1.jpg,Images/Speaker2.jpg,Images/Speaker3.jpg,Images/Speaker4.jpg,Audio/Speaker1_En/P1-1-En.wav,Speaker1,گوینده ۱,,,,,,,,,,,,,,,,0,31,31,0,,,,,112.86705750000147,,,,,,,,,,,,,,,,,,,,,,,,,,,,,,,,,,,,,,,,,,,,,112.84444437500133,112.86705750000147,112.86705750000147,112.86705750000147,112.86705750000147,112.87755037533364,112.86705750000147,112.86705750000147,112.91615083299985,Correct! صحیح است,1,0.043914666999626206,None,0,32,112.92023308300122,112.93048112500037,114.92361125000025,,,,,,,,,,,,,,,,,,,,,,,,,,,,,559566,001,2024-06-30_14h13.47.657,5-23,2024.1.4,None,2024-06-30 14h13.52.413921 +0900,
Images/Speaker1.jpg,Images/Speaker2.jpg,Images/Speaker3.jpg,Images/Speaker4.jpg,Audio/Speaker1_En/P1-17-En.wav,Speaker1,گوینده ۱,,,,,,,,,,,,,,,,0,32,32,16,,,,,114.949160958,,,,,,,,,,,,,,,,,,,,,,,,,,,,,,,,,,,,,,,,,,,,,114.9243165830012,114.949160958,114.949160958,114.949160958,114.949160958,114.94011554166742,114.949160958,114.949160958,114.9498503750001,Correct! صحیح است,1,2.0642935419982678,None,0,33,114.95400312499987,114.96260883300056,116.9475166250013,116.96827275000032,,,,,,,,,,,,,,,,,,,,,,,,,,,,559566,001,2024-06-30_14h13.47.657,5-23,2024.1.4,None,2024-06-30 14h13.52.413921 +0900,
Images/Speaker1.jpg,Images/Speaker2.jpg,Images/Speaker3.jpg,Images/Speaker4.jpg,Audio/Speaker3_En/P3-12-En.wav,Speaker3,گوینده۳,,,,,,,,,,,,,,,,0,33,33,51,,,,,116.96827275000032,,,,,,,,,,,,,,,,,,,,,,,,,,,,,,,,,,,,,,,,,,,,,116.94768225000007,116.96827275000032,116.96827275000032,116.96827275000032,116.96827275000032,116.96396354166633,116.96827275000032,116.96827275000032,117.00786549999975,Incorrect! The correct answer is Speaker3. نادرست! پاسخ صحیح گوینده۳ است,1,0.03232541600118566,None,0,34,117.01182704200073,117.02173566700003,119.00626729200121,119.0274337080009,,,,,,,,,,,,,,,,,,,,,,,,,,,,559566,001,2024-06-30_14h13.47.657,5-23,2024.1.4,None,2024-06-30 14h13.52.413921 +0900,
Images/Speaker1.jpg,Images/Speaker2.jpg,Images/Speaker3.jpg,Images/Speaker4.jpg,Audio/Speaker4_En/P4-19-En.wav,Speaker4,گوینده۴,,,,,,,,,,,,,,,,0,34,34,78,,,,,119.0274337080009,,,,,,,,,,,,,,,,,,,,,,,,,,,,,,,,,,,,,,,,,,,,,119.00644300000022,119.0274337080009,119.0274337080009,119.0274337080009,119.0274337080009,119.02267762466751,119.0274337080009,119.0274337080009,119.15797825000118,Incorrect! The correct answer is Speaker4. نادرست! پاسخ صحیح گوینده۴ است,1,0.12333483399925171,None,0,35,119.16184466699997,119.17489395800112,121.16039283300051,121.18261541700122,,,,,,,,,,,,,,,,,,,,,,,,,,,,559566,001,2024-06-30_14h13.47.657,5-23,2024.1.4,None,2024-06-30 14h13.52.413921 +0900,
Images/Speaker1.jpg,Images/Speaker2.jpg,Images/Speaker3.jpg,Images/Speaker4.jpg,Audio/Speaker1_En/P1-19-En.wav,Speaker1,گوینده ۱,,,,,,,,,,,,,,,,0,35,35,18,,,,,121.18261541700122,,,,,,,,,,,,,,,,,,,,,,,,,,,,,,,,,,,,,,,,,,,,,121.1607739580013,121.18261541700122,121.18261541700122,121.18261541700122,121.18261541700122,121.17670458366798,121.18261541700122,121.18261541700122,121.24843549999969,Correct! صحیح است,1,0.06048529200052144,None,0,36,121.2521531250004,121.26356900000064,123.25622737500089,,,,,,,,,,,,,,,,,,,,,,,,,,,,,559566,001,2024-06-30_14h13.47.657,5-23,2024.1.4,None,2024-06-30 14h13.52.413921 +0900,
Images/Speaker1.jpg,Images/Speaker2.jpg,Images/Speaker3.jpg,Images/Speaker4.jpg,Audio/Speaker3_En/P3-5-En.wav,Speaker3,گوینده۳,,,,,,,,,,,,,,,,0,36,36,44,,,,,123.28066262500033,,,,,,,,,,,,,,,,,,,,,,,,,,,,,,,,,,,,,,,,,,,,,123.2568645829997,123.28066262500033,123.28066262500033,123.28066262500033,123.28066262500033,123.2893814163331,123.28066262500033,123.28066262500033,123.43109054200067,Incorrect! The correct answer is Speaker3. نادرست! پاسخ صحیح گوینده۳ است,1,0.14829070800078625,None,0,37,123.43514500000128,123.44792491699991,125.4399122499999,,,,,,,,,,,,,,,,,,,,,,,,,,,,,559566,001,2024-06-30_14h13.47.657,5-23,2024.1.4,None,2024-06-30 14h13.52.413921 +0900,
Images/Speaker1.jpg,Images/Speaker2.jpg,Images/Speaker3.jpg,Images/Speaker4.jpg,Audio/Speaker2_En/P2-18-En.wav,Speaker2,گوینده۲,,,,,,,,,,,,,,,,0,37,37,37,,,,,125.46312566699999,,,,,,,,,,,,,,,,,,,,,,,,,,,,,,,,,,,,,,,,,,,,,125.44057562499984,125.46312566699999,125.46312566699999,125.46312566699999,125.46312566699999,125.47309445833392,125.46312566699999,125.46312566699999,125.62396645800072,Incorrect! The correct answer is Speaker2. نادرست! پاسخ صحیح گوینده۲ است,1,0.15385295799933374,None,0,38,125.62812112500069,125.640669583001,127.63079362500139,,,,,,,,,,,,,,,,,,,,,,,,,,,,,559566,001,2024-06-30_14h13.47.657,5-23,2024.1.4,None,2024-06-30 14h13.52.413921 +0900,
Images/Speaker1.jpg,Images/Speaker2.jpg,Images/Speaker3.jpg,Images/Speaker4.jpg,Audio/Speaker4_En/P4-15-En.wav,Speaker4,گوینده۴,,,,,,,,,,,,,,,,0,38,38,74,,,,,127.6543001250011,,,,,,,,,,,,,,,,,,,,,,,,,,,,,,,,,,,,,,,,,,,,,127.63094525000088,127.6543001250011,127.6543001250011,127.6543001250011,127.6543001250011,127.66409912533393,127.6543001250011,127.6543001250011,127.66549437499998,Incorrect! The correct answer is Speaker4. نادرست! پاسخ صحیح گوینده۴ است,1,0.010168249998969259,None,0,39,127.66935900000135,127.68185287500091,129.6755915829999,,,,,,,,,,,,,,,,,,,,,,,,,,,,,559566,001,2024-06-30_14h13.47.657,5-23,2024.1.4,None,2024-06-30 14h13.52.413921 +0900,
Images/Speaker1.jpg,Images/Speaker2.jpg,Images/Speaker3.jpg,Images/Speaker4.jpg,Audio/Speaker3_En/P3-6-En.wav,Speaker3,گوینده۳,,,,,,,,,,,,,,,,0,39,39,45,,,,,129.70207666700117,,,,,,,,,,,,,,,,,,,,,,,,,,,,,,,,,,,,,,,,,,,,,129.67623195800115,129.70207666700117,129.70207666700117,129.70207666700117,129.70207666700117,129.7087635003341,129.70207666700117,129.70207666700117,129.70821100000103,Incorrect! The correct answer is Speaker3. نادرست! پاسخ صحیح گوینده۳ است,1,0.004361833000075421,None,0,40,129.71188395799982,129.72415362500033,131.7168259170012,,,,,,,,,,,,,,,,,,,,,,,,,,,,,559566,001,2024-06-30_14h13.47.657,5-23,2024.1.4,None,2024-06-30 14h13.52.413921 +0900,
Images/Speaker1.jpg,Images/Speaker2.jpg,Images/Speaker3.jpg,Images/Speaker4.jpg,Audio/Speaker1_En/P1-15-En.wav,Speaker1,گوینده ۱,,,,,,,,,,,,,,,,0,40,40,14,,,,,131.73866779200034,,,,,,,,,,,,,,,,,,,,,,,,,,,,,,,,,,,,,,,,,,,,,131.71699454200098,131.73866779200034,131.73866779200034,131.73866779200034,131.73866779200034,131.73345604166778,131.73866779200034,131.73866779200034,131.73926245800067,Correct! صحیح است,1,1.984569874999579,None,0,41,131.74312341699988,131.75162600000112,133.74008033300015,133.76367491700148,,,,,,,,,,,,,,,,,,,,,,,,,,,,559566,001,2024-06-30_14h13.47.657,5-23,2024.1.4,None,2024-06-30 14h13.52.413921 +0900,
Images/Speaker1.jpg,Images/Speaker2.jpg,Images/Speaker3.jpg,Images/Speaker4.jpg,Audio/Speaker4_En/P4-10-En.wav,Speaker4,گوینده۴,,,,,,,,,,,,,,,,0,41,41,69,,,,,133.76367491700148,,,,,,,,,,,,,,,,,,,,,,,,,,,,,,,,,,,,,,,,,,,,,133.740499042,133.76367491700148,133.76367491700148,133.76367491700148,133.76367491700148,133.77287133333317,133.76367491700148,133.76367491700148,133.8058204170011,Incorrect! The correct answer is Speaker4. نادرست! پاسخ صحیح گوینده۴ است,1,0.034783208999215276,None,0,42,133.8097032500009,133.82223820800027,135.81661579200045,,,,,,,,,,,,,,,,,,,,,,,,,,,,,559566,001,2024-06-30_14h13.47.657,5-23,2024.1.4,None,2024-06-30 14h13.52.413921 +0900,
Images/Speaker1.jpg,Images/Speaker2.jpg,Images/Speaker3.jpg,Images/Speaker4.jpg,Audio/Speaker1_En/P1-20-En.wav,Speaker1,گوینده ۱,,,,,,,,,,,,,,,,0,42,42,19,,,,,135.84263258300052,,,,,,,,,,,,,,,,,,,,,,,,,,,,,,,,,,,,,,,,,,,,,135.81709633300125,135.84263258300052,135.84263258300052,135.84263258300052,135.84263258300052,135.8498087503345,135.84263258300052,135.84263258300052,135.84324125000057,Correct! صحیح است,1,2.0653160000001662,None,0,43,135.84381658300117,135.8525294580013,137.83811770800094,137.85995120799998,,,,,,,,,,,,,,,,,,,,,,,,,,,,559566,001,2024-06-30_14h13.47.657,5-23,2024.1.4,None,2024-06-30 14h13.52.413921 +0900,
Images/Speaker1.jpg,Images/Speaker2.jpg,Images/Speaker3.jpg,Images/Speaker4.jpg,Audio/Speaker1_En/P1-9-En.wav,Speaker1,گوینده ۱,,,,,,,,,,,,,,,,0,43,43,8,,,,,137.85995120799998,,,,,,,,,,,,,,,,,,,,,,,,,,,,,,,,,,,,,,,,,,,,,137.83831050000117,137.85995120799998,137.85995120799998,137.85995120799998,137.85995120799998,137.85448070866758,137.85995120799998,137.85995120799998,137.89782833299978,Correct! صحیح است,1,0.0331005419993744,None,0,44,137.90162045800025,137.91276000000107,139.9010056670013,139.9268548330001,,,,,,,,,,,,,,,,,,,,,,,,,,,,559566,001,2024-06-30_14h13.47.657,5-23,2024.1.4,None,2024-06-30 14h13.52.413921 +0900,
Images/Speaker1.jpg,Images/Speaker2.jpg,Images/Speaker3.jpg,Images/Speaker4.jpg,Audio/Speaker3_En/P3-16-En.wav,Speaker3,گوینده۳,,,,,,,,,,,,,,,,0,44,44,55,,,,,139.9268548330001,,,,,,,,,,,,,,,,,,,,,,,,,,,,,,,,,,,,,,,,,,,,,139.90189216700128,139.9268548330001,139.9268548330001,139.9268548330001,139.9268548330001,139.93352379133336,139.9268548330001,139.9268548330001,139.99962116700044,Incorrect! The correct answer is Speaker3. نادرست! پاسخ صحیح گوینده۳ است,1,0.061048124998706044,None,0,45,140.0035114580005,140.01577866700063,142.003064292001,142.02559075000136,,,,,,,,,,,,,,,,,,,,,,,,,,,,559566,001,2024-06-30_14h13.47.657,5-23,2024.1.4,None,2024-06-30 14h13.52.413921 +0900,
Images/Speaker1.jpg,Images/Speaker2.jpg,Images/Speaker3.jpg,Images/Speaker4.jpg,Audio/Speaker4_En/P4-4-En.wav,Speaker4,گوینده۴,,,,,,,,,,,,,,,,0,45,45,63,,,,,142.02559075000136,,,,,,,,,,,,,,,,,,,,,,,,,,,,,,,,,,,,,,,,,,,,,142.00323887500053,142.02559075000136,142.02559075000136,142.02559075000136,142.02559075000136,142.01944645866777,142.02559075000136,142.02559075000136,142.0261998750011,Incorrect! The correct answer is Speaker4. نادرست! پاسخ صحیح گوینده۴ است,1,2.0313695000004373,None,0,46,142.0303483330008,142.04055083300045,144.03074816700064,,,,,,,,,,,,,,,,,,,,,,,,,,,,,559566,001,2024-06-30_14h13.47.657,5-23,2024.1.4,None,2024-06-30 14h13.52.413921 +0900,
Images/Speaker1.jpg,Images/Speaker2.jpg,Images/Speaker3.jpg,Images/Speaker4.jpg,Audio/Speaker2_En/P2-20-En.wav,Speaker2,گوینده۲,,,,,,,,,,,,,,,,0,46,46,39,,,,,144.05448395799976,,,,,,,,,,,,,,,,,,,,,,,,,,,,,,,,,,,,,,,,,,,,,144.03089629200076,144.05448395799976,144.05448395799976,144.05448395799976,144.05448395799976,144.04738349966672,144.05448395799976,144.05448395799976,144.05508945800102,Incorrect! The correct answer is Speaker2. نادرست! پاسخ صحیح گوینده۲ است,1,2.0068789169999945,None,0,47,144.05912375000116,144.06873070800066,146.0580184999999,146.08381950000148,,,,,,,,,,,,,,,,,,,,,,,,,,,,559566,001,2024-06-30_14h13.47.657,5-23,2024.1.4,None,2024-06-30 14h13.52.413921 +0900,
Images/Speaker1.jpg,Images/Speaker2.jpg,Images/Speaker3.jpg,Images/Speaker4.jpg,Audio/Speaker4_En/P4-6-En.wav,Speaker4,گوینده۴,,,,,,,,,,,,,,,,0,47,47,65,,,,,146.08381950000148,,,,,,,,,,,,,,,,,,,,,,,,,,,,,,,,,,,,,,,,,,,,,146.05858120800076,146.08381950000148,146.08381950000148,146.08381950000148,146.08381950000148,146.09044350033452,146.08381950000148,146.08381950000148,146.0844591670011,Incorrect! The correct answer is Speaker4. نادرست! پاسخ صحیح گوینده۴ است,1,2.005987667000227,None,0,48,146.0847654170011,146.09449400000085,148.08274491700104,148.1040100420014,,,,,,,,,,,,,,,,,,,,,,,,,,,,559566,001,2024-06-30_14h13.47.657,5-23,2024.1.4,None,2024-06-30 14h13.52.413921 +0900,
Images/Speaker1.jpg,Images/Speaker2.jpg,Images/Speaker3.jpg,Images/Speaker4.jpg,Audio/Speaker2_En/P2-10-En.wav,Speaker2,گوینده۲,,,,,,,,,,,,,,,,0,48,48,29,,,,,148.1040100420014,,,,,,,,,,,,,,,,,,,,,,,,,,,,,,,,,,,,,,,,,,,,,148.08294100000057,148.1040100420014,148.1040100420014,148.1040100420014,148.1040100420014,148.09910466666796,148.1040100420014,148.1040100420014,148.3228333750012,Incorrect! The correct answer is Speaker2. نادرست! پاسخ صحیح گوینده۲ است,1,0.2088290000010602,None,0,49,148.32670220799992,148.33948725000118,150.32344162499976,150.3445587920014,,,,,,,,,,,,,,,,,,,,,,,,,,,,559566,001,2024-06-30_14h13.47.657,5-23,2024.1.4,None,2024-06-30 14h13.52.413921 +0900,
Images/Speaker1.jpg,Images/Speaker2.jpg,Images/Speaker3.jpg,Images/Speaker4.jpg,Audio/Speaker4_En/P4-11-En.wav,Speaker4,گوینده۴,,,,,,,,,,,,,,,,0,49,49,70,,,,,150.3445587920014,,,,,,,,,,,,,,,,,,,,,,,,,,,,,,,,,,,,,,,,,,,,,150.3235997920001,150.3445587920014,150.3445587920014,150.3445587920014,150.3445587920014,150.3398767916681,150.3445587920014,150.3445587920014,150.4662390829999,Incorrect! The correct answer is Speaker4. نادرست! پاسخ صحیح گوینده۴ است,1,0.11865937500078871,None,0,50,150.4704179170003,150.48294266700032,152.46768245800013,152.4922427500005,,,,,,,,,,,,,,,,,,,,,,,,,,,,559566,001,2024-06-30_14h13.47.657,5-23,2024.1.4,None,2024-06-30 14h13.52.413921 +0900,
Images/Speaker1.jpg,Images/Speaker2.jpg,Images/Speaker3.jpg,Images/Speaker4.jpg,Audio/Speaker3_En/P3-15-En.wav,Speaker3,گوینده۳,,,,,,,,,,,,,,,,0,50,50,54,,,,,152.4922427500005,,,,,,,,,,,,,,,,,,,,,,,,,,,,,,,,,,,,,,,,,,,,,152.46784158300034,152.4922427500005,152.4922427500005,152.4922427500005,152.4922427500005,152.48414220866678,152.4922427500005,152.4922427500005,152.49285862500074,Incorrect! The correct answer is Speaker3. نادرست! پاسخ صحیح گوینده۳ است,1,2.135421667000628,None,0,51,152.49666741700094,152.50703279200025,154.4930943750005,154.51656654200087,,,,,,,,,,,,,,,,,,,,,,,,,,,,559566,001,2024-06-30_14h13.47.657,5-23,2024.1.4,None,2024-06-30 14h13.52.413921 +0900,
Images/Speaker1.jpg,Images/Speaker2.jpg,Images/Speaker3.jpg,Images/Speaker4.jpg,Audio/Speaker3_En/P3-20-En.wav,Speaker3,گوینده۳,,,,,,,,,,,,,,,,0,51,51,59,,,,,154.51656654200087,,,,,,,,,,,,,,,,,,,,,,,,,,,,,,,,,,,,,,,,,,,,,154.49399766700117,154.51656654200087,154.51656654200087,154.51656654200087,154.51656654200087,154.52549695833346,154.51656654200087,154.51656654200087,154.55343812499996,Incorrect! The correct answer is Speaker3. نادرست! پاسخ صحیح گوینده۳ است,1,0.033742417001121794,None,0,52,154.55730833300004,154.5693222080008,156.55357933300002,156.57454599999983,,,,,,,,,,,,,,,,,,,,,,,,,,,,559566,001,2024-06-30_14h13.47.657,5-23,2024.1.4,None,2024-06-30 14h13.52.413921 +0900,
Images/Speaker1.jpg,Images/Speaker2.jpg,Images/Speaker3.jpg,Images/Speaker4.jpg,Audio/Speaker1_En/P1-4-En.wav,Speaker1,گوینده ۱,,,,,,,,,,,,,,,,0,52,52,13,,,,,156.57454599999983,,,,,,,,,,,,,,,,,,,,,,,,,,,,,,,,,,,,,,,,,,,,,156.55376962500122,156.57454599999983,156.57454599999983,156.57454599999983,156.57454599999983,156.57003204166747,156.57454599999983,156.57454599999983,156.75609729200005,Correct! صحیح است,1,0.1699363749994518,None,0,53,156.75982620800096,156.77092662500036,158.75678037500074,158.7777299999998,,,,,,,,,,,,,,,,,,,,,,,,,,,,559566,001,2024-06-30_14h13.47.657,5-23,2024.1.4,None,2024-06-30 14h13.52.413921 +0900,
Images/Speaker1.jpg,Images/Speaker2.jpg,Images/Speaker3.jpg,Images/Speaker4.jpg,Audio/Speaker1_En/P1-3-En.wav,Speaker1,گوینده ۱,,,,,,,,,,,,,,,,0,53,53,2,,,,,158.7777299999998,,,,,,,,,,,,,,,,,,,,,,,,,,,,,,,,,,,,,,,,,,,,,158.75693704200057,158.7777299999998,158.7777299999998,158.7777299999998,158.7777299999998,158.77324649966639,158.7777299999998,158.7777299999998,158.81984116700005,Correct! صحیح است,1,0.0392857910010207,None,0,54,158.8238054579997,158.83486025000093,160.82613333300105,,,,,,,,,,,,,,,,,,,,,,,,,,,,,559566,001,2024-06-30_14h13.47.657,5-23,2024.1.4,None,2024-06-30 14h13.52.413921 +0900,
Images/Speaker1.jpg,Images/Speaker2.jpg,Images/Speaker3.jpg,Images/Speaker4.jpg,Audio/Speaker1_En/P1-12-En.wav,Speaker1,گوینده ۱,,,,,,,,,,,,,,,,0,54,54,11,,,,,160.85059974999967,,,,,,,,,,,,,,,,,,,,,,,,,,,,,,,,,,,,,,,,,,,,,160.8267673749997,160.85059974999967,160.85059974999967,160.85059974999967,160.85059974999967,160.8592714163338,160.85059974999967,160.85059974999967,160.86669087500013,Correct! صحیح است,1,0.013514666999981273,None,0,55,160.87047020800128,160.88124420799977,162.87410433300101,,,,,,,,,,,,,,,,,,,,,,,,,,,,,559566,001,2024-06-30_14h13.47.657,5-23,2024.1.4,None,2024-06-30 14h13.52.413921 +0900,
Images/Speaker1.jpg,Images/Speaker2.jpg,Images/Speaker3.jpg,Images/Speaker4.jpg,Audio/Speaker1_En/P1-10-En.wav,Speaker1,گوینده ۱,,,,,,,,,,,,,,,,0,55,55,9,,,,,162.89923125000132,,,,,,,,,,,,,,,,,,,,,,,,,,,,,,,,,,,,,,,,,,,,,162.87480870800027,162.89923125000132,162.89923125000132,162.89923125000132,162.89923125000132,162.9072595413332,162.89923125000132,162.89923125000132,163.07400829200014,Correct! صحیح است,1,0.1657639580007526,None,0,56,163.07832920800138,163.0897274580002,165.08204995800043,,,,,,,,,,,,,,,,,,,,,,,,,,,,,559566,001,2024-06-30_14h13.47.657,5-23,2024.1.4,None,2024-06-30 14h13.52.413921 +0900,
Images/Speaker1.jpg,Images/Speaker2.jpg,Images/Speaker3.jpg,Images/Speaker4.jpg,Audio/Speaker1_En/P1-11-En.wav,Speaker1,گوینده ۱,,,,,,,,,,,,,,,,0,56,56,10,,,,,165.10579712500112,,,,,,,,,,,,,,,,,,,,,,,,,,,,,,,,,,,,,,,,,,,,,165.08270887500112,165.10579712500112,165.10579712500112,165.10579712500112,165.10579712500112,165.11521233333457,165.10579712500112,165.10579712500112,165.15473629200096,Correct! صحیح است,1,0.04585808299998462,None,0,57,165.1586986250004,165.16972162500133,167.15821200000028,167.18251229199996,,,,,,,,,,,,,,,,,,,,,,,,,,,,559566,001,2024-06-30_14h13.47.657,5-23,2024.1.4,None,2024-06-30 14h13.52.413921 +0900,
Images/Speaker1.jpg,Images/Speaker2.jpg,Images/Speaker3.jpg,Images/Speaker4.jpg,Audio/Speaker3_En/P3-9-En.wav,Speaker3,گوینده۳,,,,,,,,,,,,,,,,0,57,57,48,,,,,167.18251229199996,,,,,,,,,,,,,,,,,,,,,,,,,,,,,,,,,,,,,,,,,,,,,167.15875558300104,167.18251229199996,167.18251229199996,167.18251229199996,167.18251229199996,167.19058920833464,167.18251229199996,167.18251229199996,167.30614858300032,Incorrect! The correct answer is Speaker3. نادرست! پاسخ صحیح گوینده۳ است,1,0.11811554099949717,None,0,58,167.30993370800024,167.3222045420007,169.31849129200054,,,,,,,,,,,,,,,,,,,,,,,,,,,,,559566,001,2024-06-30_14h13.47.657,5-23,2024.1.4,None,2024-06-30 14h13.52.413921 +0900,
Images/Speaker1.jpg,Images/Speaker2.jpg,Images/Speaker3.jpg,Images/Speaker4.jpg,Audio/Speaker3_En/P3-13-En.wav,Speaker3,گوینده۳,,,,,,,,,,,,,,,,0,58,58,52,,,,,169.345414333,,,,,,,,,,,,,,,,,,,,,,,,,,,,,,,,,,,,,,,,,,,,,169.31923208300032,169.345414333,169.345414333,169.345414333,169.345414333,169.35165783333338,169.345414333,169.345414333,169.39931487500144,Incorrect! The correct answer is Speaker3. نادرست! پاسخ صحیح گوینده۳ است,1,0.049820332998933736,None,0,59,169.40300608300095,169.41506154200033,171.40165825000076,171.42779708300077,,,,,,,,,,,,,,,,,,,,,,,,,,,,559566,001,2024-06-30_14h13.47.657,5-23,2024.1.4,None,2024-06-30 14h13.52.413921 +0900,
Images/Speaker1.jpg,Images/Speaker2.jpg,Images/Speaker3.jpg,Images/Speaker4.jpg,Audio/Speaker1_En/P1-8-En.wav,Speaker1,گوینده ۱,,,,,,,,,,,,,,,,0,59,59,7,,,,,171.42779708300077,,,,,,,,,,,,,,,,,,,,,,,,,,,,,,,,,,,,,,,,,,,,,171.40266150000025,171.42779708300077,171.42779708300077,171.42779708300077,171.42779708300077,171.43405733333435,171.42779708300077,171.42779708300077,171.6279916250005,Correct! صحیح است,1,0.19468125000094005,None,0,60,171.63178354200136,171.64286195800014,173.6331454170013,,,,,,,,,,,,,,,,,,,,,,,,,,,,,559566,001,2024-06-30_14h13.47.657,5-23,2024.1.4,None,2024-06-30 14h13.52.413921 +0900,
Images/Speaker1.jpg,Images/Speaker2.jpg,Images/Speaker3.jpg,Images/Speaker4.jpg,Audio/Speaker1_En/P1-7-En.wav,Speaker1,گوینده ۱,,,,,,,,,,,,,,,,0,60,60,6,,,,,173.65652454200062,,,,,,,,,,,,,,,,,,,,,,,,,,,,,,,,,,,,,,,,,,,,,173.63334583300093,173.65652454200062,173.65652454200062,173.65652454200062,173.65652454200062,173.64976924966712,173.65652454200062,173.65652454200062,173.65715291700144,Correct! صحیح است,1,2.2040457500006596,None,0,61,173.66082879200076,173.66915208300088,175.65888008300135,175.680798667001,,,,,,,,,,,,,,,,,,,,,,,,,,,,559566,001,2024-06-30_14h13.47.657,5-23,2024.1.4,None,2024-06-30 14h13.52.413921 +0900,
Images/Speaker1.jpg,Images/Speaker2.jpg,Images/Speaker3.jpg,Images/Speaker4.jpg,Audio/Speaker3_En/P3-4-En.wav,Speaker3,گوینده۳,,,,,,,,,,,,,,,,0,61,61,43,,,,,175.680798667001,,,,,,,,,,,,,,,,,,,,,,,,,,,,,,,,,,,,,,,,,,,,,175.65904604200114,175.680798667001,175.680798667001,175.680798667001,175.680798667001,175.67532066666743,175.680798667001,175.680798667001,175.73199045799993,Incorrect! The correct answer is Speaker3. نادرست! پاسخ صحیح گوینده۳ است,1,0.04956658300034178,None,0,62,175.73618183300096,175.74882066700047,177.74234741700093,,,,,,,,,,,,,,,,,,,,,,,,,,,,,559566,001,2024-06-30_14h13.47.657,5-23,2024.1.4,None,2024-06-30 14h13.52.413921 +0900,
Images/Speaker1.jpg,Images/Speaker2.jpg,Images/Speaker3.jpg,Images/Speaker4.jpg,Audio/Speaker2_En/P2-17-En.wav,Speaker2,گوینده۲,,,,,,,,,,,,,,,,0,62,62,36,,,,,177.7672676250004,,,,,,,,,,,,,,,,,,,,,,,,,,,,,,,,,,,,,,,,,,,,,177.74300691700046,177.7672676250004,177.7672676250004,177.7672676250004,177.7672676250004,177.77552858333416,177.7672676250004,177.7672676250004,177.92349329200079,Incorrect! The correct answer is Speaker2. نادرست! پاسخ صحیح گوینده۲ است,1,0.14483704200029024,None,0,63,177.92745129200011,177.93979958300042,179.93423783300022,,,,,,,,,,,,,,,,,,,,,,,,,,,,,559566,001,2024-06-30_14h13.47.657,5-23,2024.1.4,None,2024-06-30 14h13.52.413921 +0900,
Images/Speaker1.jpg,Images/Speaker2.jpg,Images/Speaker3.jpg,Images/Speaker4.jpg,Audio/Speaker4_En/P4-17-En.wav,Speaker4,گوینده۴,,,,,,,,,,,,,,,,0,63,63,76,,,,,179.95886725000128,,,,,,,,,,,,,,,,,,,,,,,,,,,,,,,,,,,,,,,,,,,,,179.93486412499988,179.95886725000128,179.95886725000128,179.95886725000128,179.95886725000128,179.96739191633475,179.95886725000128,179.95886725000128,180.1151061670007,Incorrect! The correct answer is Speaker4. نادرست! پاسخ صحیح گوینده۴ است,1,0.14808799999991606,None,0,64,180.11931833299968,180.13174054200135,182.12358154200047,,,,,,,,,,,,,,,,,,,,,,,,,,,,,559566,001,2024-06-30_14h13.47.657,5-23,2024.1.4,None,2024-06-30 14h13.52.413921 +0900,
Images/Speaker1.jpg,Images/Speaker2.jpg,Images/Speaker3.jpg,Images/Speaker4.jpg,Audio/Speaker3_En/P3-11-En.wav,Speaker3,گوینده۳,,,,,,,,,,,,,,,,0,64,64,50,,,,,182.14518020800097,,,,,,,,,,,,,,,,,,,,,,,,,,,,,,,,,,,,,,,,,,,,,182.12374066700067,182.14518020800097,182.14518020800097,182.14518020800097,182.14518020800097,182.14021216666723,182.14518020800097,182.14518020800097,182.21792516700043,Incorrect! The correct answer is Speaker3. نادرست! پاسخ صحیح گوینده۳ است,1,0.06589208399964264,None,0,65,182.22213250000095,182.23458137499983,184.21919187500134,184.24010125000132,,,,,,,,,,,,,,,,,,,,,,,,,,,,559566,001,2024-06-30_14h13.47.657,5-23,2024.1.4,None,2024-06-30 14h13.52.413921 +0900,
Images/Speaker1.jpg,Images/Speaker2.jpg,Images/Speaker3.jpg,Images/Speaker4.jpg,Audio/Speaker3_En/P3-8-En.wav,Speaker3,گوینده۳,,,,,,,,,,,,,,,,0,65,65,47,,,,,184.24010125000132,,,,,,,,,,,,,,,,,,,,,,,,,,,,,,,,,,,,,,,,,,,,,184.21936854200067,184.24010125000132,184.24010125000132,184.24010125000132,184.24010125000132,184.2356351666679,184.24010125000132,184.24010125000132,184.41613641700133,Incorrect! The correct answer is Speaker3. نادرست! پاسخ صحیح گوینده۳ است,1,0.16840749999937543,None,0,66,184.42027462500118,184.4310316250012,186.42515920799997,,,,,,,,,,,,,,,,,,,,,,,,,,,,,559566,001,2024-06-30_14h13.47.657,5-23,2024.1.4,None,2024-06-30 14h13.52.413921 +0900,
Images/Speaker1.jpg,Images/Speaker2.jpg,Images/Speaker3.jpg,Images/Speaker4.jpg,Audio/Speaker1_En/P1-5-En.wav,Speaker1,گوینده ۱,,,,,,,,,,,,,,,,0,66,66,4,,,,,186.44876970800033,,,,,,,,,,,,,,,,,,,,,,,,,,,,,,,,,,,,,,,,,,,,,186.42582050000055,186.44876970800033,186.44876970800033,186.44876970800033,186.44876970800033,186.45828120833409,186.44876970800033,186.44876970800033,186.4987577920001,Correct! صحیح است,1,0.044863499999337364,None,0,67,186.50281712500146,186.51384041700112,188.50763316700068,,,,,,,,,,,,,,,,,,,,,,,,,,,,,559566,001,2024-06-30_14h13.47.657,5-23,2024.1.4,None,2024-06-30 14h13.52.413921 +0900,
Images/Speaker1.jpg,Images/Speaker2.jpg,Images/Speaker3.jpg,Images/Speaker4.jpg,Audio/Speaker2_En/P2-1-En.wav,Speaker2,گوینده۲,,,,,,,,,,,,,,,,0,67,67,20,,,,,188.53020704200026,,,,,,,,,,,,,,,,,,,,,,,,,,,,,,,,,,,,,,,,,,,,,188.50832175000141,188.53020704200026,188.53020704200026,188.53020704200026,188.53020704200026,188.52410795866697,188.53020704200026,188.53020704200026,188.7276235420013,Incorrect! The correct answer is Speaker2. نادرست! پاسخ صحیح گوینده۲ است,1,0.18876737500067975,None,0,68,188.73186041700137,188.74156929200035,190.73402879200148,,,,,,,,,,,,,,,,,,,,,,,,,,,,,559566,001,2024-06-30_14h13.47.657,5-23,2024.1.4,None,2024-06-30 14h13.52.413921 +0900,
Images/Speaker1.jpg,Images/Speaker2.jpg,Images/Speaker3.jpg,Images/Speaker4.jpg,Audio/Speaker2_En/P2-6-En.wav,Speaker2,گوینده۲,,,,,,,,,,,,,,,,0,68,68,25,,,,,190.75865529200018,,,,,,,,,,,,,,,,,,,,,,,,,,,,,,,,,,,,,,,,,,,,,190.73418775000027,190.75865529200018,190.75865529200018,190.75865529200018,190.75865529200018,190.75065508366814,190.75865529200018,190.75865529200018,190.75930254200102,Incorrect! The correct answer is Speaker2. نادرست! پاسخ صحیح گوینده۲ است,1,2.20977933299946,None,0,69,190.76341541700094,190.77366229200015,192.76041412500126,192.78178737500093,,,,,,,,,,,,,,,,,,,,,,,,,,,,559566,001,2024-06-30_14h13.47.657,5-23,2024.1.4,None,2024-06-30 14h13.52.413921 +0900,
Images/Speaker1.jpg,Images/Speaker2.jpg,Images/Speaker3.jpg,Images/Speaker4.jpg,Audio/Speaker2_En/P2-9-En.wav,Speaker2,گوینده۲,,,,,,,,,,,,,,,,0,69,69,28,,,,,192.78178737500093,,,,,,,,,,,,,,,,,,,,,,,,,,,,,,,,,,,,,,,,,,,,,192.76058745800037,192.78178737500093,192.78178737500093,192.78178737500093,192.78178737500093,192.7767864996679,192.78178737500093,192.78178737500093,192.8093174580008,Incorrect! The correct answer is Speaker2. نادرست! پاسخ صحیح گوینده۲ است,1,0.022616917000050307,None,0,70,192.81341933300064,192.82570645800115,194.80997966700124,194.83164937500078,,,,,,,,,,,,,,,,,,,,,,,,,,,,559566,001,2024-06-30_14h13.47.657,5-23,2024.1.4,None,2024-06-30 14h13.52.413921 +0900,
Images/Speaker1.jpg,Images/Speaker2.jpg,Images/Speaker3.jpg,Images/Speaker4.jpg,Audio/Speaker1_En/P1-6-En.wav,Speaker1,گوینده ۱,,,,,,,,,,,,,,,,0,70,70,5,,,,,194.83164937500078,,,,,,,,,,,,,,,,,,,,,,,,,,,,,,,,,,,,,,,,,,,,,194.81015604200002,194.83164937500078,194.83164937500078,194.83164937500078,194.83164937500078,194.82637512466707,194.83164937500078,194.83164937500078,194.88546016700093,Correct! صحیح است,1,0.04777295799976855,None,0,71,194.88968291700075,194.9010104170011,196.89646625000023,,,,,,,,,,,,,,,,,,,,,,,,,,,,,559566,001,2024-06-30_14h13.47.657,5-23,2024.1.4,None,2024-06-30 14h13.52.413921 +0900,
Images/Speaker1.jpg,Images/Speaker2.jpg,Images/Speaker3.jpg,Images/Speaker4.jpg,Audio/Speaker2_En/P2-4-En.wav,Speaker2,گوینده۲,,,,,,,,,,,,,,,,0,71,71,23,,,,,196.9206460000005,,,,,,,,,,,,,,,,,,,,,,,,,,,,,,,,,,,,,,,,,,,,,196.89701866700125,196.9206460000005,196.9206460000005,196.9206460000005,196.9206460000005,196.92964825033465,196.9206460000005,196.9206460000005,196.92122162499982,Incorrect! The correct answer is Speaker2. نادرست! پاسخ صحیح گوینده۲ است,1,2.031693458000518,None,0,72,196.92156745800094,196.9310487920011,198.91407170800085,198.93604575000063,,,,,,,,,,,,,,,,,,,,,,,,,,,,559566,001,2024-06-30_14h13.47.657,5-23,2024.1.4,None,2024-06-30 14h13.52.413921 +0900,
Images/Speaker1.jpg,Images/Speaker2.jpg,Images/Speaker3.jpg,Images/Speaker4.jpg,Audio/Speaker3_En/P3-1-En.wav,Speaker3,گوینده۳,,,,,,,,,,,,,,,,0,72,72,40,,,,,198.93604575000063,,,,,,,,,,,,,,,,,,,,,,,,,,,,,,,,,,,,,,,,,,,,,198.9142336670011,198.93604575000063,198.93604575000063,198.93604575000063,198.93604575000063,198.93053062466814,198.93604575000063,198.93604575000063,198.93663216700043,Incorrect! The correct answer is Speaker3. نادرست! پاسخ صحیح گوینده۳ است,1,1.912711124999987,None,0,73,198.94062058300005,198.95051433300068,200.9358362920011,200.95763245800117,,,,,,,,,,,,,,,,,,,,,,,,,,,,559566,001,2024-06-30_14h13.47.657,5-23,2024.1.4,None,2024-06-30 14h13.52.413921 +0900,
Images/Speaker1.jpg,Images/Speaker2.jpg,Images/Speaker3.jpg,Images/Speaker4.jpg,Audio/Speaker3_En/P3-19-En.wav,Speaker3,گوینده۳,,,,,,,,,,,,,,,,0,73,73,58,,,,,200.95763245800117,,,,,,,,,,,,,,,,,,,,,,,,,,,,,,,,,,,,,,,,,,,,,200.93599750000067,200.95763245800117,200.95763245800117,200.95763245800117,200.95763245800117,200.95227354166698,200.95763245800117,200.95763245800117,200.95825870800036,Incorrect! The correct answer is Speaker3. نادرست! پاسخ صحیح گوینده۳ است,1,1.9041799169990554,None,0,74,200.96219629200095,200.9715104170009,202.96086937499967,202.9840266250012,,,,,,,,,,,,,,,,,,,,,,,,,,,,559566,001,2024-06-30_14h13.47.657,5-23,2024.1.4,None,2024-06-30 14h13.52.413921 +0900,
Images/Speaker1.jpg,Images/Speaker2.jpg,Images/Speaker3.jpg,Images/Speaker4.jpg,Audio/Speaker2_En/P2-11-En.wav,Speaker2,گوینده۲,,,,,,,,,,,,,,,,0,74,74,30,,,,,202.9840266250012,,,,,,,,,,,,,,,,,,,,,,,,,,,,,,,,,,,,,,,,,,,,,202.96103683300134,202.9840266250012,202.9840266250012,202.9840266250012,202.9840266250012,202.99394925033317,202.9840266250012,202.9840266250012,202.98460204200092,Incorrect! The correct answer is Speaker2. نادرست! پاسخ صحیح گوینده۲ است,1,1.9264967500002967,None,0,75,202.98503312499997,202.99428112500027,204.97853424999994,204.99859816699973,,,,,,,,,,,,,,,,,,,,,,,,,,,,559566,001,2024-06-30_14h13.47.657,5-23,2024.1.4,None,2024-06-30 14h13.52.413921 +0900,
Images/Speaker1.jpg,Images/Speaker2.jpg,Images/Speaker3.jpg,Images/Speaker4.jpg,Audio/Speaker3_En/P3-3-En.wav,Speaker3,گوینده۳,,,,,,,,,,,,,,,,0,75,75,42,,,,,204.99859816699973,,,,,,,,,,,,,,,,,,,,,,,,,,,,,,,,,,,,,,,,,,,,,204.97870704200068,204.99859816699973,204.99859816699973,204.99859816699973,204.99859816699973,204.9949741246676,204.99859816699973,204.99859816699973,205.33257312500064,Incorrect! The correct answer is Speaker3. نادرست! پاسخ صحیح گوینده۳ است,1,0.3257595830000355,None,0,76,205.33632404200034,205.3469274170002,207.33414158300002,207.3551595000008,,,,,,,,,,,,,,,,,,,,,,,,,,,,559566,001,2024-06-30_14h13.47.657,5-23,2024.1.4,None,2024-06-30 14h13.52.413921 +0900,
Images/Speaker1.jpg,Images/Speaker2.jpg,Images/Speaker3.jpg,Images/Speaker4.jpg,Audio/Speaker4_En/P4-13-En.wav,Speaker4,گوینده۴,,,,,,,,,,,,,,,,0,76,76,72,,,,,207.3551595000008,,,,,,,,,,,,,,,,,,,,,,,,,,,,,,,,,,,,,,,,,,,,,207.3343058749997,207.3551595000008,207.3551595000008,207.3551595000008,207.3551595000008,207.35060770866792,207.3551595000008,207.3551595000008,207.3909471670013,Incorrect! The correct answer is Speaker4. نادرست! پاسخ صحیح گوینده۴ است,1,0.033264957999563194,None,0,77,207.39506475000053,207.40774299999975,209.3951797919999,209.41683400000147,,,,,,,,,,,,,,,,,,,,,,,,,,,,559566,001,2024-06-30_14h13.47.657,5-23,2024.1.4,None,2024-06-30 14h13.52.413921 +0900,
Images/Speaker1.jpg,Images/Speaker2.jpg,Images/Speaker3.jpg,Images/Speaker4.jpg,Audio/Speaker3_En/P3-14-En.wav,Speaker3,گوینده۳,,,,,,,,,,,,,,,,0,77,77,53,,,,,209.41683400000147,,,,,,,,,,,,,,,,,,,,,,,,,,,,,,,,,,,,,,,,,,,,,209.39535375000014,209.41683400000147,209.41683400000147,209.41683400000147,209.41683400000147,209.41161233366645,209.41683400000147,209.41683400000147,209.41745745800108,Incorrect! The correct answer is Speaker3. نادرست! پاسخ صحیح گوینده۳ است,1,2.0225911249999626,None,0,78,209.4213157080012,209.43096920800053,211.41710245800095,211.43982020800104,,,,,,,,,,,,,,,,,,,,,,,,,,,,559566,001,2024-06-30_14h13.47.657,5-23,2024.1.4,None,2024-06-30 14h13.52.413921 +0900,
Images/Speaker1.jpg,Images/Speaker2.jpg,Images/Speaker3.jpg,Images/Speaker4.jpg,Audio/Speaker4_En/P4-14-En.wav,Speaker4,گوینده۴,,,,,,,,,,,,,,,,0,78,78,73,,,,,211.43982020800104,,,,,,,,,,,,,,,,,,,,,,,,,,,,,,,,,,,,,,,,,,,,,211.41725750000114,211.43982020800104,211.43982020800104,211.43982020800104,211.43982020800104,211.4334773746671,211.43982020800104,211.43982020800104,211.57826141700025,Incorrect! The correct answer is Speaker4. نادرست! پاسخ صحیح گوینده۴ است,1,0.12955020800109196,None,0,79,211.58197012500023,211.59474166700056,213.5802512500013,213.599731833001,,,,,,,,,,,,,,,,,,,,,,,,,,,,559566,001,2024-06-30_14h13.47.657,5-23,2024.1.4,None,2024-06-30 14h13.52.413921 +0900,
Images/Speaker1.jpg,Images/Speaker2.jpg,Images/Speaker3.jpg,Images/Speaker4.jpg,Audio/Speaker4_En/P4-20-En.wav,Speaker4,گوینده۴,,,,,,,,,,,,,,,,0,79,79,79,,,,,213.599731833001,,,,,,,,,,,,,,,,,,,,,,,,,,,,,,,,,,,,,,,,,,,,,213.58042566699987,213.599731833001,213.599731833001,213.599731833001,213.599731833001,213.5965806666666,213.599731833001,213.599731833001,215.3108352500003,Incorrect! The correct answer is Speaker4. نادرست! پاسخ صحیح گوینده۴ است,1,1.70933312499983,None,0,80,215.31513325000014,215.32826100000057,217.31100391700056,217.31687633300135,,,,,,,,,,,,,,,,,,,,,,,,,,,,559566,001,2024-06-30_14h13.47.657,5-23,2024.1.4,None,2024-06-30 14h13.52.413921 +0900,
,,,,,,,,,,,,,,,,,,,,,,,,,,,,,,,,,,,,,,,,,,,,,,,,,,,,,,,,,,,,,,,,,,,,,,,,,,,,,,,,,,,,,,,,,,,,,,217.31104500000038,217.31136549999974,TrainingGroup1,,,,,,,,,,,,,,,,,,,,,,,,,559566,001,2024-06-30_14h13.47.657,5-23,2024.1.4,None,2024-06-30 14h13.52.413921 +0900,
,,,,,,,,,,,,,,,,,,,,,,,,,,,,,,,,,,,,,,,,,,,,,,,,,,,,,,,,,,,,,,,,,,,,,,,,,,,,,,,,,,,,,,,,,,,,,,,,,217.31142983300015,217.31687633300135,222.34742050000023,222.30345433300135,,,,,,,,,,,,,,,,,,,,,559566,001,2024-06-30_14h13.47.657,5-23,2024.1.4,None,2024-06-30 14h13.52.413921 +0900,
,,,,,,,Images/Speaker1.jpg,Images/Speaker2.jpg,Images/Speaker3.jpg,Images/Speaker4.jpg,Audio/Speaker4_Per/P4-2-Per.wav,Speaker4,گوینده۴,,,,,,,,,,,,,0,0,0,61,222.34742050000023,,,,,,,,,,,,,,,,,,,,,,,,,,,,,,,,,,,,,,,,,,,,,,,,,,,,,,,,,,,,,,,,,,,,,,,222.32288258300105,222.34742050000023,222.34742050000023,222.34742050000023,222.34742050000023,222.3532047500001,222.34742050000023,222.34742050000023,227.4652652500008,2,5.116763666999759,None,2,Images/Speaker1.jpg,Images/Speaker2.jpg,Images/Speaker3.jpg,Images/Speaker4.jpg,Audio/Speaker4_Per/P4-2-Per.wav,Speaker4,گوینده۴,559566,001,2024-06-30_14h13.47.657,5-23,2024.1.4,None,2024-06-30 14h13.52.413921 +0900,
,,,,,,,Images/Speaker1.jpg,Images/Speaker2.jpg,Images/Speaker3.jpg,Images/Speaker4.jpg,Audio/Speaker2_Per/P2-5-Per.wav,Speaker2,گوینده۲,,,,,,,,,,,,,0,1,1,24,227.49228529200082,,,,,,,,,,,,,,,,,,,,,,,,,,,,,,,,,,,,,,,,,,,,,,,,,,,,,,,,,,,,,,,,,,,,,,,227.46587054200063,227.49228529200082,227.49228529200082,227.49228529200082,227.49228529200082,227.4976365833341,227.49228529200082,227.49228529200082,230.27268916700086,3,2.7698915409982874,None,3,Images/Speaker1.jpg,Images/Speaker2.jpg,Images/Speaker3.jpg,Images/Speaker4.jpg,Audio/Speaker2_Per/P2-5-Per.wav,Speaker4,گوینده۴,559566,001,2024-06-30_14h13.47.657,5-23,2024.1.4,None,2024-06-30 14h13.52.413921 +0900,
,,,,,,,Images/Speaker1.jpg,Images/Speaker2.jpg,Images/Speaker3.jpg,Images/Speaker4.jpg,Audio/Speaker3_Per/P3-16-Per.wav,Speaker3,گوینده۳,,,,,,,,,,,,,0,2,2,55,230.30072508300145,,,,,,,,,,,,,,,,,,,,,,,,,,,,,,,,,,,,,,,,,,,,,,,,,,,,,,,,,,,,,,,,,,,,,,,230.27695979200143,230.30072508300145,230.30072508300145,230.30072508300145,230.30072508300145,230.30513620833386,230.30072508300145,230.30072508300145,232.72131954200086,1,2.4172237500006304,None,1,Images/Speaker1.jpg,Images/Speaker2.jpg,Images/Speaker3.jpg,Images/Speaker4.jpg,Audio/Speaker3_Per/P3-16-Per.wav,Speaker4,گوینده۴,559566,001,2024-06-30_14h13.47.657,5-23,2024.1.4,None,2024-06-30 14h13.52.413921 +0900,
,,,,,,,,,,,,,,,,,,,,,,,,,,,,,,232.7515132919998,,,,,,,,,,,,,,,,,,,,,,,,,,,,,,,,,,,,,,,,,,,,,,,,,,,,,,,,,,,,,,,,,,,,,,,232.7257297920005,232.7515132919998,232.7515132919998,232.7515132919998,232.7515132919998,232.75367100033378,232.7515132919998,232.7515132919998,,,,,,,,,,,,,,,,,,,,
