SpeakerImage1,SpeakerImage2,SpeakerImage3,SpeakerImage4,TrainingSound,EnglishCorrectAnswer,PersianCorrectAnswer,SpeakerPhoto1,SpeakerPhoto2,SpeakerPhoto3,SpeakerPhoto4,TestingSound,EnglishCorrectResponse,PersianCorrectResponse,TrainingLoopGroup1.thisRepN,TrainingLoopGroup1.thisTrialN,TrainingLoopGroup1.thisN,TrainingLoopGroup1.thisIndex,TrainingLoopGroup2.thisRepN,TrainingLoopGroup2.thisTrialN,TrainingLoopGroup2.thisN,TrainingLoopGroup2.thisIndex,TrainingLoopGroup3.thisRepN,TrainingLoopGroup3.thisTrialN,TrainingLoopGroup3.thisN,TrainingLoopGroup3.thisIndex,testPhase1Loop.thisRepN,testPhase1Loop.thisTrialN,testPhase1Loop.thisN,testPhase1Loop.thisIndex,testPhase2Loop.thisRepN,testPhase2Loop.thisTrialN,testPhase2Loop.thisN,testPhase2Loop.thisIndex,testPhase3Loop.thisRepN,testPhase3Loop.thisTrialN,testPhase3Loop.thisN,testPhase3Loop.thisIndex,thisRow.t,notes,trial.started,trial.stopped,GroupSelection.started,GroupInstructions.started,key_resp.started,GroupSelection.stopped,key_resp.keys,key_resp.rt,key_resp.duration,Introduction.started,text_2.started,image.started,sound_7.started,text_4.started,text_2.stopped,sound_8.started,image.stopped,text_4.stopped,image_7.started,sound_9.started,text_5.started,sound_10.started,image_7.stopped,text_5.stopped,image_8.started,sound_11.started,text_6.started,sound_12.started,image_8.stopped,text_6.stopped,image_9.started,sound_13.started,text_7.started,sound_14.started,image_9.stopped,text_7.stopped,Introduction.stopped,Instructions.started,InstructionText.started,InstructionText.stopped,Instructions.stopped,InitializeExperiment.started,InitializeExperiment.stopped,TrainingGroup3.started,SpeakerPicture3.started,image_15.started,image_16.started,image_17.started,Sound3.started,Instruction3.started,Response3.started,TrainingGroup3.stopped,feedbackText,Response3.keys,Response3.rt,Response3.duration,correct_responses_group3,total_trials_group3,FeedbackRoutine3.started,FeedbackText3.started,FeedbackText3.stopped,FeedbackRoutine3.stopped,CheckAccuracy.started,accuracy_group1,accuracy_group2,accuracy_group3,proceed_to_test,CheckAccuracy.stopped,WelcomeTest.started,text_12.started,text_12.stopped,WelcomeTest.stopped,TestPhase1.started,TestPhase1.stopped,test1_response_keyboard.keys,test1_response,test1_image_file1,test1_image_file2,test1_image_file3,test1_image_file4,test1_sound_file,english_correct_answer,persian_correct_answer,TestPhase2.started,TestPhase2.stopped,test2_response_keyboard.keys,test2_response,test2_image_file1,test2_image_file2,test2_image_file3,test2_image_file4,test2_sound_file,TestPhase3.started,test3_image1.started,test3_image2.started,test3_image3.started,test3_image4.started,test3_sound.started,text_10.started,test3_response_keyboard.started,TestPhase3.stopped,test3_response_keyboard.keys,test3_response_keyboard.rt,test3_response_keyboard.duration,test3_response,test3_image_file1,test3_image_file2,test3_image_file3,test3_image_file4,test3_sound_file,participant,session,date,expName,psychopyVersion,frameRate,expStart,
,,,,,,,,,,,,,,,,,,,,,,,,,,,,,,,,,,,,,,,,0.01127512500170269,0.0116517090027628,,,,,,,,,,,,,,,,,,,,,,,,,,,,,,,,,,,,,,,,,,,,,,,,,,,,,,,,,,,,,,,,,,,,,,,,,,,,,,,,,,,,,,,,,,,,,,,,,,,,,,,,,,,,,564665,001,2024-06-30_19h06.46.067,5-24,2024.1.4,None,2024-06-30 19h06.51.545495 +0900,
,,,,,,,,,,,,,,,,,,,,,,,,,,,,,,,,,,,,,,,,,,0.01166870900124195,0.017417167000530753,0.017417167000530753,1.0725309170011315,3,1.0149026250001043,None,,,,,,,,,,,,,,,,,,,,,,,,,,,,,,,,,,,,,,,,,,,,,,,,,,,,,,,,,,,,,,,,,,,,,,,,,,,,,,,,,,,,,,,,,,,,,,,,,,,,,,564665,001,2024-06-30_19h06.46.067,5-24,2024.1.4,None,2024-06-30 19h06.51.545495 +0900,
,,,,,,,,,,,,,,,,,,,,,,,,,,,,,,,,,,,,,,,,,,,,,,,,,1.07256100000086,1.1337949170010688,6.067863042000681,6.077104333668346,6.067863042000681,6.128022042001248,11.07197550066873,16.067296334000275,16.067296334000275,16.067296334000275,16.076487083668567,16.067296334000275,21.081972958669454,26.065857917001267,26.065857917001267,26.065857917001267,26.075940958668312,26.065857917001267,31.074715958668335,36.06081233400255,36.06081233400255,36.065857084002346,36.077479000669214,36.065857084002346,41.07463375066824,46.05279050000172,46.05279050000172,46.048458167002536,,,,,,,,,,,,,,,,,,,,,,,,,,,,,,,,,,,,,,,,,,,,,,,,,,,,,,,,,,,,,,,,,,,,,,,,,,564665,001,2024-06-30_19h06.46.067,5-24,2024.1.4,None,2024-06-30 19h06.51.545495 +0900,
,,,,,,,,,,,,,,,,,,,,,,,,,,,,,,,,,,,,,,,,,,,,,,,,,,,,,,,,,,,,,,,,,,,,,,,,,,,,,46.048477084001206,46.07325895900067,47.137549792001664,47.05609120900044,,,,,,,,,,,,,,,,,,,,,,,,,,,,,,,,,,,,,,,,,,,,,,,,,,,,,,,,,,,,,,,,,,,,,,564665,001,2024-06-30_19h06.46.067,5-24,2024.1.4,None,2024-06-30 19h06.51.545495 +0900,
,,,,,,,,,,,,,,,,,,,,,,,,,,,,,,,,,,,,,,,,,,,,,,,,,,,,,,,,,,,,,,,,,,,,,,,,,,,,,,,,,47.05610366700057,47.05628429200078,,,,,,,,,,,,,,,,,,,,,,,,,,,,,,,,,,,,,,,,,,,,,,,,,,,,,,,,,,,,,,,,,,,,564665,001,2024-06-30_19h06.46.067,5-24,2024.1.4,None,2024-06-30 19h06.51.545495 +0900,
Images/Speaker1.jpg,Images/Speaker2.jpg,Images/Speaker3.jpg,Images/Speaker4.jpg,Audio/Speaker1_En/P1-20-En.wav,Speaker1,گوینده ۱,,,,,,,,,,,,,,,,0,0,0,19,,,,,,,,,,,,,47.137549792001664,,,,,,,,,,,,,,,,,,,,,,,,,,,,,,,,,,,,,,,,,,,,,47.11162795900236,47.137549792001664,47.137549792001664,47.137549792001664,47.137549792001664,47.13917570833413,47.137549792001664,47.137549792001664,49.31820783400326,Correct! صحیح است,1,2.1724596670028404,None,0,1,49.322654250001506,49.33540229200298,51.34594441700028,51.320620000002236,,,,,,,,,,,,,,,,,,,,,,,,,,,,,,,,,,,,,,,,,,,,,,,,,564665,001,2024-06-30_19h06.46.067,5-24,2024.1.4,None,2024-06-30 19h06.51.545495 +0900,
Images/Speaker1.jpg,Images/Speaker2.jpg,Images/Speaker3.jpg,Images/Speaker4.jpg,Audio/Speaker1_En/P1-15-En.wav,Speaker1,گوینده ۱,,,,,,,,,,,,,,,,0,1,1,14,,,,,,,,,,,,,51.34594441700028,,,,,,,,,,,,,,,,,,,,,,,,,,,,,,,,,,,,,,,,,,,,,51.32079716700173,51.34594441700028,51.34594441700028,51.34594441700028,51.34594441700028,51.35375158333457,51.34594441700028,51.34594441700028,51.7836097090003,Correct! صحیح است,1,0.4322160830015491,None,0,2,51.78736329200183,51.79857941700175,,53.793575250001595,,,,,,,,,,,,,,,,,,,,,,,,,,,,,,,,,,,,,,,,,,,,,,,,,564665,001,2024-06-30_19h06.46.067,5-24,2024.1.4,None,2024-06-30 19h06.51.545495 +0900,
Images/Speaker1.jpg,Images/Speaker2.jpg,Images/Speaker3.jpg,Images/Speaker4.jpg,Audio/Speaker1_En/P1-17-En.wav,Speaker1,گوینده ۱,,,,,,,,,,,,,,,,0,2,2,16,,,,,,,,,,,,,53.8154316250002,,,,,,,,,,,,,,,,,,,,,,,,,,,,,,,,,,,,,,,,,,,,,53.7937422089999,53.8154316250002,53.8154316250002,53.8154316250002,53.8154316250002,53.81019895866872,53.8154316250002,53.8154316250002,54.007053042001644,Correct! صحیح است,1,0.1905227500028559,None,0,3,54.01071850000153,54.021548250002525,56.03253412500271,56.00932029199976,,,,,,,,,,,,,,,,,,,,,,,,,,,,,,,,,,,,,,,,,,,,,,,,,564665,001,2024-06-30_19h06.46.067,5-24,2024.1.4,None,2024-06-30 19h06.51.545495 +0900,
Images/Speaker1.jpg,Images/Speaker2.jpg,Images/Speaker3.jpg,Images/Speaker4.jpg,Audio/Speaker4_En/P4-16-En.wav,Speaker4,گوینده۴,,,,,,,,,,,,,,,,0,3,3,75,,,,,,,,,,,,,56.03253412500271,,,,,,,,,,,,,,,,,,,,,,,,,,,,,,,,,,,,,,,,,,,,,56.00949275000312,56.03253412500271,56.03253412500271,56.03253412500271,56.03253412500271,56.04244383333619,56.03253412500271,56.03253412500271,56.20901962500284,Incorrect! The correct answer is Speaker4. نادرست! پاسخ صحیح گوینده۴ است,1,0.1686957909987541,None,0,4,56.21302729200033,56.22444991700104,58.233655667001585,58.21049270900039,,,,,,,,,,,,,,,,,,,,,,,,,,,,,,,,,,,,,,,,,,,,,,,,,564665,001,2024-06-30_19h06.46.067,5-24,2024.1.4,None,2024-06-30 19h06.51.545495 +0900,
Images/Speaker1.jpg,Images/Speaker2.jpg,Images/Speaker3.jpg,Images/Speaker4.jpg,Audio/Speaker2_En/P2-15-En.wav,Speaker2,گوینده۲,,,,,,,,,,,,,,,,0,4,4,34,,,,,,,,,,,,,58.233655667001585,,,,,,,,,,,,,,,,,,,,,,,,,,,,,,,,,,,,,,,,,,,,,58.210648375003075,58.233655667001585,58.233655667001585,58.233655667001585,58.233655667001585,58.24349820833643,58.233655667001585,58.233655667001585,58.2342601670025,Incorrect! The correct answer is Speaker2. نادرست! پاسخ صحیح گوینده۲ است,1,2.1629249159996107,None,0,5,58.23451904200192,58.24387404200024,60.250987542000075,60.22764229200038,,,,,,,,,,,,,,,,,,,,,,,,,,,,,,,,,,,,,,,,,,,,,,,,,564665,001,2024-06-30_19h06.46.067,5-24,2024.1.4,None,2024-06-30 19h06.51.545495 +0900,
Images/Speaker1.jpg,Images/Speaker2.jpg,Images/Speaker3.jpg,Images/Speaker4.jpg,Audio/Speaker3_En/P3-9-En.wav,Speaker3,گوینده۳,,,,,,,,,,,,,,,,0,5,5,48,,,,,,,,,,,,,60.250987542000075,,,,,,,,,,,,,,,,,,,,,,,,,,,,,,,,,,,,,,,,,,,,,60.22778758400091,60.250987542000075,60.250987542000075,60.250987542000075,60.250987542000075,60.26079204233659,60.250987542000075,60.250987542000075,60.356605125001806,Incorrect! The correct answer is Speaker3. نادرست! پاسخ صحیح گوینده۳ است,1,0.10226991699892096,None,0,6,60.360483584001486,60.373080667002796,62.38105975000144,62.35672020900165,,,,,,,,,,,,,,,,,,,,,,,,,,,,,,,,,,,,,,,,,,,,,,,,,564665,001,2024-06-30_19h06.46.067,5-24,2024.1.4,None,2024-06-30 19h06.51.545495 +0900,
Images/Speaker1.jpg,Images/Speaker2.jpg,Images/Speaker3.jpg,Images/Speaker4.jpg,Audio/Speaker2_En/P2-14-En.wav,Speaker2,گوینده۲,,,,,,,,,,,,,,,,0,6,6,33,,,,,,,,,,,,,62.38105975000144,,,,,,,,,,,,,,,,,,,,,,,,,,,,,,,,,,,,,,,,,,,,,62.35690925000017,62.38105975000144,62.38105975000144,62.38105975000144,62.38105975000144,62.38979820833313,62.38105975000144,62.38105975000144,62.637772834001225,Incorrect! The correct answer is Speaker2. نادرست! پاسخ صحیح گوینده۲ است,1,0.2524726659976295,None,0,7,62.64147412500097,62.65409654200266,64.66003508400172,64.63760316700063,,,,,,,,,,,,,,,,,,,,,,,,,,,,,,,,,,,,,,,,,,,,,,,,,564665,001,2024-06-30_19h06.46.067,5-24,2024.1.4,None,2024-06-30 19h06.51.545495 +0900,
Images/Speaker1.jpg,Images/Speaker2.jpg,Images/Speaker3.jpg,Images/Speaker4.jpg,Audio/Speaker3_En/P3-18-En.wav,Speaker3,گوینده۳,,,,,,,,,,,,,,,,0,7,7,57,,,,,,,,,,,,,64.66003508400172,,,,,,,,,,,,,,,,,,,,,,,,,,,,,,,,,,,,,,,,,,,,,64.63776183400114,64.66003508400172,64.66003508400172,64.66003508400172,64.66003508400172,64.65402525066771,64.66003508400172,64.66003508400172,64.92899966700134,Incorrect! The correct answer is Speaker3. نادرست! پاسخ صحیح گوینده۳ است,1,0.26471562500228174,None,0,8,64.93302295900139,64.94537983400005,66.95357866700215,66.93008375000136,,,,,,,,,,,,,,,,,,,,,,,,,,,,,,,,,,,,,,,,,,,,,,,,,564665,001,2024-06-30_19h06.46.067,5-24,2024.1.4,None,2024-06-30 19h06.51.545495 +0900,
Images/Speaker1.jpg,Images/Speaker2.jpg,Images/Speaker3.jpg,Images/Speaker4.jpg,Audio/Speaker1_En/P1-10-En.wav,Speaker1,گوینده ۱,,,,,,,,,,,,,,,,0,8,8,9,,,,,,,,,,,,,66.95357866700215,,,,,,,,,,,,,,,,,,,,,,,,,,,,,,,,,,,,,,,,,,,,,66.9302446670008,66.95357866700215,66.95357866700215,66.95357866700215,66.95357866700215,66.96318012533496,66.95357866700215,66.95357866700215,67.08167808400322,Correct! صحیح است,1,0.1250981250013865,None,0,9,67.08584691700162,67.09742862500207,69.1052917090019,69.08158083400122,,,,,,,,,,,,,,,,,,,,,,,,,,,,,,,,,,,,,,,,,,,,,,,,,564665,001,2024-06-30_19h06.46.067,5-24,2024.1.4,None,2024-06-30 19h06.51.545495 +0900,
Images/Speaker1.jpg,Images/Speaker2.jpg,Images/Speaker3.jpg,Images/Speaker4.jpg,Audio/Speaker4_En/P4-10-En.wav,Speaker4,گوینده۴,,,,,,,,,,,,,,,,0,9,9,69,,,,,,,,,,,,,69.1052917090019,,,,,,,,,,,,,,,,,,,,,,,,,,,,,,,,,,,,,,,,,,,,,69.08177683400208,69.1052917090019,69.1052917090019,69.1052917090019,69.1052917090019,69.1147016253349,69.1052917090019,69.1052917090019,69.12572329199975,Incorrect! The correct answer is Speaker4. نادرست! پاسخ صحیح گوینده۴ است,1,0.018552292000094894,None,0,10,69.12960320900311,69.14205279200178,,71.13481150000007,,,,,,,,,,,,,,,,,,,,,,,,,,,,,,,,,,,,,,,,,,,,,,,,,564665,001,2024-06-30_19h06.46.067,5-24,2024.1.4,None,2024-06-30 19h06.51.545495 +0900,
Images/Speaker1.jpg,Images/Speaker2.jpg,Images/Speaker3.jpg,Images/Speaker4.jpg,Audio/Speaker3_En/P3-10-En.wav,Speaker3,گوینده۳,,,,,,,,,,,,,,,,0,10,10,49,,,,,,,,,,,,,71.16084616700027,,,,,,,,,,,,,,,,,,,,,,,,,,,,,,,,,,,,,,,,,,,,,71.13535479200073,71.16084616700027,71.16084616700027,71.16084616700027,71.16084616700027,71.16799833333474,71.16084616700027,71.16084616700027,71.35073508400092,Incorrect! The correct answer is Speaker3. نادرست! پاسخ صحیح گوینده۳ است,1,0.17894229200101108,None,0,11,71.35463795900068,71.36728045900236,73.37883137500103,73.35349879200294,,,,,,,,,,,,,,,,,,,,,,,,,,,,,,,,,,,,,,,,,,,,,,,,,564665,001,2024-06-30_19h06.46.067,5-24,2024.1.4,None,2024-06-30 19h06.51.545495 +0900,
Images/Speaker1.jpg,Images/Speaker2.jpg,Images/Speaker3.jpg,Images/Speaker4.jpg,Audio/Speaker4_En/P4-13-En.wav,Speaker4,گوینده۴,,,,,,,,,,,,,,,,0,11,11,72,,,,,,,,,,,,,73.37883137500103,,,,,,,,,,,,,,,,,,,,,,,,,,,,,,,,,,,,,,,,,,,,,73.35431758400227,73.37883137500103,73.37883137500103,73.37883137500103,73.37883137500103,73.38596325033407,73.37883137500103,73.37883137500103,73.59408991700184,Incorrect! The correct answer is Speaker4. نادرست! پاسخ صحیح گوینده۴ است,1,0.2022922500000277,None,0,12,73.59897108400037,73.6131835840024,,75.60221195900158,,,,,,,,,,,,,,,,,,,,,,,,,,,,,,,,,,,,,,,,,,,,,,,,,564665,001,2024-06-30_19h06.46.067,5-24,2024.1.4,None,2024-06-30 19h06.51.545495 +0900,
Images/Speaker1.jpg,Images/Speaker2.jpg,Images/Speaker3.jpg,Images/Speaker4.jpg,Audio/Speaker3_En/P3-17-En.wav,Speaker3,گوینده۳,,,,,,,,,,,,,,,,0,12,12,56,,,,,,,,,,,,,75.62781587500285,,,,,,,,,,,,,,,,,,,,,,,,,,,,,,,,,,,,,,,,,,,,,75.6028227090028,75.62781587500285,75.62781587500285,75.62781587500285,75.62781587500285,75.63536787533351,75.62781587500285,75.62781587500285,75.93396700000085,Incorrect! The correct answer is Speaker3. نادرست! پاسخ صحیح گوینده۳ است,1,0.2995099580002716,None,0,13,75.93907858400053,75.95363341700067,,77.94271212500098,,,,,,,,,,,,,,,,,,,,,,,,,,,,,,,,,,,,,,,,,,,,,,,,,564665,001,2024-06-30_19h06.46.067,5-24,2024.1.4,None,2024-06-30 19h06.51.545495 +0900,
Images/Speaker1.jpg,Images/Speaker2.jpg,Images/Speaker3.jpg,Images/Speaker4.jpg,Audio/Speaker1_En/P1-7-En.wav,Speaker1,گوینده ۱,,,,,,,,,,,,,,,,0,13,13,6,,,,,,,,,,,,,77.96612500000265,,,,,,,,,,,,,,,,,,,,,,,,,,,,,,,,,,,,,,,,,,,,,77.94292245900215,77.96612500000265,77.96612500000265,77.96612500000265,77.96612500000265,77.97597879233629,77.96612500000265,77.96612500000265,78.16414741700282,Correct! صحیح است,1,0.19683458399958909,None,0,14,78.16811545900055,78.17960854200282,,80.16833195900108,,,,,,,,,,,,,,,,,,,,,,,,,,,,,,,,,,,,,,,,,,,,,,,,,564665,001,2024-06-30_19h06.46.067,5-24,2024.1.4,None,2024-06-30 19h06.51.545495 +0900,
Images/Speaker1.jpg,Images/Speaker2.jpg,Images/Speaker3.jpg,Images/Speaker4.jpg,Audio/Speaker1_En/P1-1-En.wav,Speaker1,گوینده ۱,,,,,,,,,,,,,,,,0,14,14,0,,,,,,,,,,,,,80.19707429200207,,,,,,,,,,,,,,,,,,,,,,,,,,,,,,,,,,,,,,,,,,,,,80.16899295900294,80.19707429200207,80.19707429200207,80.19707429200207,80.19707429200207,80.20149854233435,80.19707429200207,80.19707429200207,80.39204516700192,Correct! صحیح است,1,0.19258158400043612,None,0,15,80.39625895900099,80.40733166700011,,82.39997241700257,,,,,,,,,,,,,,,,,,,,,,,,,,,,,,,,,,,,,,,,,,,,,,,,,564665,001,2024-06-30_19h06.46.067,5-24,2024.1.4,None,2024-06-30 19h06.51.545495 +0900,
Images/Speaker1.jpg,Images/Speaker2.jpg,Images/Speaker3.jpg,Images/Speaker4.jpg,Audio/Speaker1_En/P1-3-En.wav,Speaker1,گوینده ۱,,,,,,,,,,,,,,,,0,15,15,2,,,,,,,,,,,,,82.42688454200106,,,,,,,,,,,,,,,,,,,,,,,,,,,,,,,,,,,,,,,,,,,,,82.40069133400175,82.42688454200106,82.42688454200106,82.42688454200106,82.42688454200106,82.43311833333476,82.42688454200106,82.42688454200106,82.53186004200325,Correct! صحیح است,1,0.09710933300084434,None,0,16,82.53588391700032,82.54683595900133,84.56234937500267,84.53575608400206,,,,,,,,,,,,,,,,,,,,,,,,,,,,,,,,,,,,,,,,,,,,,,,,,564665,001,2024-06-30_19h06.46.067,5-24,2024.1.4,None,2024-06-30 19h06.51.545495 +0900,
Images/Speaker1.jpg,Images/Speaker2.jpg,Images/Speaker3.jpg,Images/Speaker4.jpg,Audio/Speaker4_En/P4-18-En.wav,Speaker4,گوینده۴,,,,,,,,,,,,,,,,0,16,16,77,,,,,,,,,,,,,84.56234937500267,,,,,,,,,,,,,,,,,,,,,,,,,,,,,,,,,,,,,,,,,,,,,84.53664791700066,84.56234937500267,84.56234937500267,84.56234937500267,84.56234937500267,84.56828370833367,84.56234937500267,84.56234937500267,84.7285029170016,Incorrect! The correct answer is Speaker4. نادرست! پاسخ صحیح گوینده۴ است,1,0.16201358300168067,None,0,17,84.73250729200299,84.74498733400105,,86.73426729200219,,,,,,,,,,,,,,,,,,,,,,,,,,,,,,,,,,,,,,,,,,,,,,,,,564665,001,2024-06-30_19h06.46.067,5-24,2024.1.4,None,2024-06-30 19h06.51.545495 +0900,
Images/Speaker1.jpg,Images/Speaker2.jpg,Images/Speaker3.jpg,Images/Speaker4.jpg,Audio/Speaker3_En/P3-15-En.wav,Speaker3,گوینده۳,,,,,,,,,,,,,,,,0,17,17,54,,,,,,,,,,,,,86.76185658400209,,,,,,,,,,,,,,,,,,,,,,,,,,,,,,,,,,,,,,,,,,,,,86.73492779200024,86.76185658400209,86.76185658400209,86.76185658400209,86.76185658400209,86.76743233333448,86.76185658400209,86.76185658400209,86.92308116700224,Incorrect! The correct answer is Speaker3. نادرست! پاسخ صحیح گوینده۳ است,1,0.15870620799978497,None,0,18,86.92695337500118,86.939565167002,88.94799400000193,88.92544595900108,,,,,,,,,,,,,,,,,,,,,,,,,,,,,,,,,,,,,,,,,,,,,,,,,564665,001,2024-06-30_19h06.46.067,5-24,2024.1.4,None,2024-06-30 19h06.51.545495 +0900,
Images/Speaker1.jpg,Images/Speaker2.jpg,Images/Speaker3.jpg,Images/Speaker4.jpg,Audio/Speaker1_En/P1-6-En.wav,Speaker1,گوینده ۱,,,,,,,,,,,,,,,,0,18,18,5,,,,,,,,,,,,,88.94799400000193,,,,,,,,,,,,,,,,,,,,,,,,,,,,,,,,,,,,,,,,,,,,,88.92562575000193,88.94799400000193,88.94799400000193,88.94799400000193,88.94799400000193,88.94183937566801,88.94799400000193,88.94799400000193,89.10939683400284,Correct! صحیح است,1,0.15468829200108303,None,0,19,89.1134469589997,89.12431075000131,,91.11587429200154,,,,,,,,,,,,,,,,,,,,,,,,,,,,,,,,,,,,,,,,,,,,,,,,,564665,001,2024-06-30_19h06.46.067,5-24,2024.1.4,None,2024-06-30 19h06.51.545495 +0900,
Images/Speaker1.jpg,Images/Speaker2.jpg,Images/Speaker3.jpg,Images/Speaker4.jpg,Audio/Speaker2_En/P2-19-En.wav,Speaker2,گوینده۲,,,,,,,,,,,,,,,,0,19,19,38,,,,,,,,,,,,,91.13728883400108,,,,,,,,,,,,,,,,,,,,,,,,,,,,,,,,,,,,,,,,,,,,,91.11603429200113,91.13728883400108,91.13728883400108,91.13728883400108,91.13728883400108,91.13250762566919,91.13728883400108,91.13728883400108,91.13782512500256,Incorrect! The correct answer is Speaker2. نادرست! پاسخ صحیح گوینده۲ است,1,2.1225903750018915,None,0,20,91.14155970900174,91.15094562500235,,93.14224837500296,,,,,,,,,,,,,,,,,,,,,,,,,,,,,,,,,,,,,,,,,,,,,,,,,564665,001,2024-06-30_19h06.46.067,5-24,2024.1.4,None,2024-06-30 19h06.51.545495 +0900,
Images/Speaker1.jpg,Images/Speaker2.jpg,Images/Speaker3.jpg,Images/Speaker4.jpg,Audio/Speaker1_En/P1-5-En.wav,Speaker1,گوینده ۱,,,,,,,,,,,,,,,,0,20,20,4,,,,,,,,,,,,,93.16485270900012,,,,,,,,,,,,,,,,,,,,,,,,,,,,,,,,,,,,,,,,,,,,,93.14244445900113,93.16485270900012,93.16485270900012,93.16485270900012,93.16485270900012,93.15886545866694,93.16485270900012,93.16485270900012,93.34729754200089,Correct! صحیح است,1,0.1792034579993924,None,0,21,93.3515319170001,93.3627316250022,95.38049937500182,95.35218887500014,,,,,,,,,,,,,,,,,,,,,,,,,,,,,,,,,,,,,,,,,,,,,,,,,564665,001,2024-06-30_19h06.46.067,5-24,2024.1.4,None,2024-06-30 19h06.51.545495 +0900,
Images/Speaker1.jpg,Images/Speaker2.jpg,Images/Speaker3.jpg,Images/Speaker4.jpg,Audio/Speaker3_En/P3-11-En.wav,Speaker3,گوینده۳,,,,,,,,,,,,,,,,0,21,21,50,,,,,,,,,,,,,95.38049937500182,,,,,,,,,,,,,,,,,,,,,,,,,,,,,,,,,,,,,,,,,,,,,95.35300083400216,95.38049937500182,95.38049937500182,95.38049937500182,95.38049937500182,95.38469716733428,95.38049937500182,95.38049937500182,95.42902375000267,Incorrect! The correct answer is Speaker3. نادرست! پاسخ صحیح گوینده۳ است,1,0.044433125000068685,None,0,22,95.43286437500137,95.44561358400097,,97.4331924170001,,,,,,,,,,,,,,,,,,,,,,,,,,,,,,,,,,,,,,,,,,,,,,,,,564665,001,2024-06-30_19h06.46.067,5-24,2024.1.4,None,2024-06-30 19h06.51.545495 +0900,
Images/Speaker1.jpg,Images/Speaker2.jpg,Images/Speaker3.jpg,Images/Speaker4.jpg,Audio/Speaker2_En/P2-12-En.wav,Speaker2,گوینده۲,,,,,,,,,,,,,,,,0,22,22,31,,,,,,,,,,,,,97.45715475000179,,,,,,,,,,,,,,,,,,,,,,,,,,,,,,,,,,,,,,,,,,,,,97.43378075000146,97.45715475000179,97.45715475000179,97.45715475000179,97.45715475000179,97.46635550033582,97.45715475000179,97.45715475000179,97.45775920900269,Incorrect! The correct answer is Speaker2. نادرست! پاسخ صحیح گوینده۲ است,1,2.0232412920013303,None,0,23,97.45816137500151,97.4681381670016,99.47651450000194,99.45296725000298,,,,,,,,,,,,,,,,,,,,,,,,,,,,,,,,,,,,,,,,,,,,,,,,,564665,001,2024-06-30_19h06.46.067,5-24,2024.1.4,None,2024-06-30 19h06.51.545495 +0900,
Images/Speaker1.jpg,Images/Speaker2.jpg,Images/Speaker3.jpg,Images/Speaker4.jpg,Audio/Speaker2_En/P2-2-En.wav,Speaker2,گوینده۲,,,,,,,,,,,,,,,,0,23,23,21,,,,,,,,,,,,,99.47651450000194,,,,,,,,,,,,,,,,,,,,,,,,,,,,,,,,,,,,,,,,,,,,,99.45315800000026,99.47651450000194,99.47651450000194,99.47651450000194,99.47651450000194,99.48611529233361,99.47651450000194,99.47651450000194,99.56052462500156,Incorrect! The correct answer is Speaker2. نادرست! پاسخ صحیح گوینده۲ است,1,0.0797180000008666,None,0,24,99.56444387500233,99.57736966700031,101.58385591700062,101.56127766700229,,,,,,,,,,,,,,,,,,,,,,,,,,,,,,,,,,,,,,,,,,,,,,,,,564665,001,2024-06-30_19h06.46.067,5-24,2024.1.4,None,2024-06-30 19h06.51.545495 +0900,
Images/Speaker1.jpg,Images/Speaker2.jpg,Images/Speaker3.jpg,Images/Speaker4.jpg,Audio/Speaker1_En/P1-12-En.wav,Speaker1,گوینده ۱,,,,,,,,,,,,,,,,0,24,24,11,,,,,,,,,,,,,101.58385591700062,,,,,,,,,,,,,,,,,,,,,,,,,,,,,,,,,,,,,,,,,,,,,101.56143887500002,101.58385591700062,101.58385591700062,101.58385591700062,101.58385591700062,101.57771237566728,101.58385591700062,101.58385591700062,101.58445487500285,Correct! صحیح است,1,2.0097742500001914,None,0,25,101.58820220900088,101.59728145900226,103.60500150000007,103.58185504200083,,,,,,,,,,,,,,,,,,,,,,,,,,,,,,,,,,,,,,,,,,,,,,,,,564665,001,2024-06-30_19h06.46.067,5-24,2024.1.4,None,2024-06-30 19h06.51.545495 +0900,
Images/Speaker1.jpg,Images/Speaker2.jpg,Images/Speaker3.jpg,Images/Speaker4.jpg,Audio/Speaker4_En/P4-11-En.wav,Speaker4,گوینده۴,,,,,,,,,,,,,,,,0,25,25,70,,,,,,,,,,,,,103.60500150000007,,,,,,,,,,,,,,,,,,,,,,,,,,,,,,,,,,,,,,,,,,,,,103.58202520900159,103.60500150000007,103.60500150000007,103.60500150000007,103.60500150000007,103.61490854233537,103.60500150000007,103.60500150000007,103.61136891700153,Incorrect! The correct answer is Speaker4. نادرست! پاسخ صحیح گوینده۴ است,1,0.00458375000016531,None,0,26,103.61160104200098,103.6242188340002,,105.61676725000143,,,,,,,,,,,,,,,,,,,,,,,,,,,,,,,,,,,,,,,,,,,,,,,,,564665,001,2024-06-30_19h06.46.067,5-24,2024.1.4,None,2024-06-30 19h06.51.545495 +0900,
Images/Speaker1.jpg,Images/Speaker2.jpg,Images/Speaker3.jpg,Images/Speaker4.jpg,Audio/Speaker3_En/P3-14-En.wav,Speaker3,گوینده۳,,,,,,,,,,,,,,,,0,26,26,53,,,,,,,,,,,,,105.64282958400145,,,,,,,,,,,,,,,,,,,,,,,,,,,,,,,,,,,,,,,,,,,,,105.61738258400146,105.64282958400145,105.64282958400145,105.64282958400145,105.64282958400145,105.64993641733648,105.64282958400145,105.64282958400145,105.87554808400091,Incorrect! The correct answer is Speaker3. نادرست! پاسخ صحیح گوینده۳ است,1,0.22115924999889103,None,0,27,105.88052095900275,105.89424200000212,,107.88594091699997,,,,,,,,,,,,,,,,,,,,,,,,,,,,,,,,,,,,,,,,,,,,,,,,,564665,001,2024-06-30_19h06.46.067,5-24,2024.1.4,None,2024-06-30 19h06.51.545495 +0900,
Images/Speaker1.jpg,Images/Speaker2.jpg,Images/Speaker3.jpg,Images/Speaker4.jpg,Audio/Speaker4_En/P4-4-En.wav,Speaker4,گوینده۴,,,,,,,,,,,,,,,,0,27,27,63,,,,,,,,,,,,,107.91379537500325,,,,,,,,,,,,,,,,,,,,,,,,,,,,,,,,,,,,,,,,,,,,,107.88654679200044,107.91379537500325,107.91379537500325,107.91379537500325,107.91379537500325,107.91911612533343,107.91379537500325,107.91379537500325,108.03998629200214,Incorrect! The correct answer is Speaker4. نادرست! پاسخ صحیح گوینده۴ است,1,0.1168020000004617,None,0,28,108.0441599170008,108.05715954200059,110.06785129200216,110.04094516700206,,,,,,,,,,,,,,,,,,,,,,,,,,,,,,,,,,,,,,,,,,,,,,,,,564665,001,2024-06-30_19h06.46.067,5-24,2024.1.4,None,2024-06-30 19h06.51.545495 +0900,
Images/Speaker1.jpg,Images/Speaker2.jpg,Images/Speaker3.jpg,Images/Speaker4.jpg,Audio/Speaker4_En/P4-2-En.wav,Speaker4,گوینده۴,,,,,,,,,,,,,,,,0,28,28,61,,,,,,,,,,,,,110.06785129200216,,,,,,,,,,,,,,,,,,,,,,,,,,,,,,,,,,,,,,,,,,,,,110.04149712500293,110.06785129200216,110.06785129200216,110.06785129200216,110.06785129200216,110.07347620833437,110.06785129200216,110.06785129200216,110.16899579200253,Incorrect! The correct answer is Speaker4. نادرست! پاسخ صحیح گوینده۴ است,1,0.09401933299886878,None,0,29,110.17293625000093,110.18591941700288,112.19135979200291,112.16917066700262,,,,,,,,,,,,,,,,,,,,,,,,,,,,,,,,,,,,,,,,,,,,,,,,,564665,001,2024-06-30_19h06.46.067,5-24,2024.1.4,None,2024-06-30 19h06.51.545495 +0900,
Images/Speaker1.jpg,Images/Speaker2.jpg,Images/Speaker3.jpg,Images/Speaker4.jpg,Audio/Speaker4_En/P4-20-En.wav,Speaker4,گوینده۴,,,,,,,,,,,,,,,,0,29,29,79,,,,,,,,,,,,,112.19135979200291,,,,,,,,,,,,,,,,,,,,,,,,,,,,,,,,,,,,,,,,,,,,,112.1693475840002,112.19135979200291,112.19135979200291,112.19135979200291,112.19135979200291,112.1856349166667,112.19135979200291,112.19135979200291,112.36458312500326,Incorrect! The correct answer is Speaker4. نادرست! پاسخ صحیح گوینده۴ است,1,0.16995137499907287,None,0,30,112.36854049999965,112.38119995899979,114.38842204200046,114.36621833400204,,,,,,,,,,,,,,,,,,,,,,,,,,,,,,,,,,,,,,,,,,,,,,,,,564665,001,2024-06-30_19h06.46.067,5-24,2024.1.4,None,2024-06-30 19h06.51.545495 +0900,
Images/Speaker1.jpg,Images/Speaker2.jpg,Images/Speaker3.jpg,Images/Speaker4.jpg,Audio/Speaker2_En/P2-20-En.wav,Speaker2,گوینده۲,,,,,,,,,,,,,,,,0,30,30,39,,,,,,,,,,,,,114.38842204200046,,,,,,,,,,,,,,,,,,,,,,,,,,,,,,,,,,,,,,,,,,,,,114.36636533400088,114.38842204200046,114.38842204200046,114.38842204200046,114.38842204200046,114.38262541666724,114.38842204200046,114.38842204200046,114.58750312499978,Incorrect! The correct answer is Speaker2. نادرست! پاسخ صحیح گوینده۲ است,1,0.1908123749999504,None,0,31,114.5914020420023,114.60190979199979,,116.59407258400097,,,,,,,,,,,,,,,,,,,,,,,,,,,,,,,,,,,,,,,,,,,,,,,,,564665,001,2024-06-30_19h06.46.067,5-24,2024.1.4,None,2024-06-30 19h06.51.545495 +0900,
Images/Speaker1.jpg,Images/Speaker2.jpg,Images/Speaker3.jpg,Images/Speaker4.jpg,Audio/Speaker2_En/P2-9-En.wav,Speaker2,گوینده۲,,,,,,,,,,,,,,,,0,31,31,28,,,,,,,,,,,,,116.61736120900241,,,,,,,,,,,,,,,,,,,,,,,,,,,,,,,,,,,,,,,,,,,,,116.59424808400217,116.61736120900241,116.61736120900241,116.61736120900241,116.61736120900241,116.62736695833567,116.61736120900241,116.61736120900241,116.62371350000103,Incorrect! The correct answer is Speaker2. نادرست! پاسخ صحیح گوینده۲ است,1,0.004472208001971012,None,0,32,116.6241709590031,116.63664379200054,118.64826075000019,118.62395862500125,,,,,,,,,,,,,,,,,,,,,,,,,,,,,,,,,,,,,,,,,,,,,,,,,564665,001,2024-06-30_19h06.46.067,5-24,2024.1.4,None,2024-06-30 19h06.51.545495 +0900,
Images/Speaker1.jpg,Images/Speaker2.jpg,Images/Speaker3.jpg,Images/Speaker4.jpg,Audio/Speaker1_En/P1-18-En.wav,Speaker1,گوینده ۱,,,,,,,,,,,,,,,,0,32,32,17,,,,,,,,,,,,,118.64826075000019,,,,,,,,,,,,,,,,,,,,,,,,,,,,,,,,,,,,,,,,,,,,,118.62411675000112,118.64826075000019,118.64826075000019,118.64826075000019,118.64826075000019,118.6570198753366,118.64826075000019,118.64826075000019,118.83203441700243,Correct! صحیح است,1,0.17862129099739832,None,0,33,118.83661920899976,118.84847687500223,120.85694970900295,120.83338979200198,,,,,,,,,,,,,,,,,,,,,,,,,,,,,,,,,,,,,,,,,,,,,,,,,564665,001,2024-06-30_19h06.46.067,5-24,2024.1.4,None,2024-06-30 19h06.51.545495 +0900,
Images/Speaker1.jpg,Images/Speaker2.jpg,Images/Speaker3.jpg,Images/Speaker4.jpg,Audio/Speaker3_En/P3-1-En.wav,Speaker3,گوینده۳,,,,,,,,,,,,,,,,0,33,33,40,,,,,,,,,,,,,120.85694970900295,,,,,,,,,,,,,,,,,,,,,,,,,,,,,,,,,,,,,,,,,,,,,120.83359833400027,120.85694970900295,120.85694970900295,120.85694970900295,120.85694970900295,120.86652816733525,120.85694970900295,120.85694970900295,121.01249387500138,Incorrect! The correct answer is Speaker3. نادرست! پاسخ صحیح گوینده۳ است,1,0.15422587499779183,None,0,34,121.01672099999996,121.02988195900252,123.03805933400145,123.01551729200219,,,,,,,,,,,,,,,,,,,,,,,,,,,,,,,,,,,,,,,,,,,,,,,,,564665,001,2024-06-30_19h06.46.067,5-24,2024.1.4,None,2024-06-30 19h06.51.545495 +0900,
Images/Speaker1.jpg,Images/Speaker2.jpg,Images/Speaker3.jpg,Images/Speaker4.jpg,Audio/Speaker4_En/P4-17-En.wav,Speaker4,گوینده۴,,,,,,,,,,,,,,,,0,34,34,76,,,,,,,,,,,,,123.03805933400145,,,,,,,,,,,,,,,,,,,,,,,,,,,,,,,,,,,,,,,,,,,,,123.01569000000018,123.03805933400145,123.03805933400145,123.03805933400145,123.03805933400145,123.03190716666747,123.03805933400145,123.03805933400145,123.1643720840002,Incorrect! The correct answer is Speaker4. نادرست! پاسخ صحیح گوینده۴ است,1,0.1244584579981165,None,0,35,123.16840487500303,123.18140595899968,125.1943387090032,125.16845266699966,,,,,,,,,,,,,,,,,,,,,,,,,,,,,,,,,,,,,,,,,,,,,,,,,564665,001,2024-06-30_19h06.46.067,5-24,2024.1.4,None,2024-06-30 19h06.51.545495 +0900,
Images/Speaker1.jpg,Images/Speaker2.jpg,Images/Speaker3.jpg,Images/Speaker4.jpg,Audio/Speaker1_En/P1-13-En.wav,Speaker1,گوینده ۱,,,,,,,,,,,,,,,,0,35,35,12,,,,,,,,,,,,,125.1943387090032,,,,,,,,,,,,,,,,,,,,,,,,,,,,,,,,,,,,,,,,,,,,,125.16926475000218,125.1943387090032,125.1943387090032,125.1943387090032,125.1943387090032,125.20090887533345,125.1943387090032,125.1943387090032,125.34967833400151,Correct! صحیح است,1,0.15235966600084794,None,0,36,125.35363387500183,125.36456525000176,127.37889783400169,127.35381433400107,,,,,,,,,,,,,,,,,,,,,,,,,,,,,,,,,,,,,,,,,,,,,,,,,564665,001,2024-06-30_19h06.46.067,5-24,2024.1.4,None,2024-06-30 19h06.51.545495 +0900,
Images/Speaker1.jpg,Images/Speaker2.jpg,Images/Speaker3.jpg,Images/Speaker4.jpg,Audio/Speaker3_En/P3-6-En.wav,Speaker3,گوینده۳,,,,,,,,,,,,,,,,0,36,36,45,,,,,,,,,,,,,127.37889783400169,,,,,,,,,,,,,,,,,,,,,,,,,,,,,,,,,,,,,,,,,,,,,127.35474370900192,127.37889783400169,127.37889783400169,127.37889783400169,127.37889783400169,127.38628087533337,127.37889783400169,127.37889783400169,127.54007862500293,Incorrect! The correct answer is Speaker3. نادرست! پاسخ صحیح گوینده۳ است,1,0.15874083299786435,None,0,37,127.54392875000121,127.55659958400065,,129.55198558400298,,,,,,,,,,,,,,,,,,,,,,,,,,,,,,,,,,,,,,,,,,,,,,,,,564665,001,2024-06-30_19h06.46.067,5-24,2024.1.4,None,2024-06-30 19h06.51.545495 +0900,
Images/Speaker1.jpg,Images/Speaker2.jpg,Images/Speaker3.jpg,Images/Speaker4.jpg,Audio/Speaker3_En/P3-12-En.wav,Speaker3,گوینده۳,,,,,,,,,,,,,,,,0,37,37,51,,,,,,,,,,,,,129.578196167,,,,,,,,,,,,,,,,,,,,,,,,,,,,,,,,,,,,,,,,,,,,,129.55263237500185,129.578196167,129.578196167,129.578196167,129.578196167,129.58515041733386,129.578196167,129.578196167,129.61542200000258,Incorrect! The correct answer is Speaker3. نادرست! پاسخ صحیح گوینده۳ است,1,0.03566154099826235,None,0,38,129.61964933400304,129.63235062500098,,131.6268492920026,,,,,,,,,,,,,,,,,,,,,,,,,,,,,,,,,,,,,,,,,,,,,,,,,564665,001,2024-06-30_19h06.46.067,5-24,2024.1.4,None,2024-06-30 19h06.51.545495 +0900,
Images/Speaker1.jpg,Images/Speaker2.jpg,Images/Speaker3.jpg,Images/Speaker4.jpg,Audio/Speaker1_En/P1-9-En.wav,Speaker1,گوینده ۱,,,,,,,,,,,,,,,,0,38,38,8,,,,,,,,,,,,,131.6523889170021,,,,,,,,,,,,,,,,,,,,,,,,,,,,,,,,,,,,,,,,,,,,,131.62741254200228,131.6523889170021,131.6523889170021,131.6523889170021,131.6523889170021,131.65999662533483,131.6523889170021,131.6523889170021,131.82539970900325,Correct! صحیح است,1,0.1650585420029529,None,0,39,131.82929454199984,131.83986962500057,,133.83282741700168,,,,,,,,,,,,,,,,,,,,,,,,,,,,,,,,,,,,,,,,,,,,,,,,,564665,001,2024-06-30_19h06.46.067,5-24,2024.1.4,None,2024-06-30 19h06.51.545495 +0900,
Images/Speaker1.jpg,Images/Speaker2.jpg,Images/Speaker3.jpg,Images/Speaker4.jpg,Audio/Speaker4_En/P4-12-En.wav,Speaker4,گوینده۴,,,,,,,,,,,,,,,,0,39,39,71,,,,,,,,,,,,,133.85695141700126,,,,,,,,,,,,,,,,,,,,,,,,,,,,,,,,,,,,,,,,,,,,,133.8334679590007,133.85695141700126,133.85695141700126,133.85695141700126,133.85695141700126,133.86597775033493,133.85695141700126,133.85695141700126,134.0247422499997,Incorrect! The correct answer is Speaker4. نادرست! پاسخ صحیح گوینده۴ است,1,0.16481104100239463,None,0,40,134.0290045840011,134.0419005420008,,136.032604,,,,,,,,,,,,,,,,,,,,,,,,,,,,,,,,,,,,,,,,,,,,,,,,,564665,001,2024-06-30_19h06.46.067,5-24,2024.1.4,None,2024-06-30 19h06.51.545495 +0900,
Images/Speaker1.jpg,Images/Speaker2.jpg,Images/Speaker3.jpg,Images/Speaker4.jpg,Audio/Speaker3_En/P3-8-En.wav,Speaker3,گوینده۳,,,,,,,,,,,,,,,,0,40,40,47,,,,,,,,,,,,,136.05514070900244,,,,,,,,,,,,,,,,,,,,,,,,,,,,,,,,,,,,,,,,,,,,,136.0327602920006,136.05514070900244,136.05514070900244,136.05514070900244,136.05514070900244,136.04923854166944,136.05514070900244,136.05514070900244,136.26247304200297,Incorrect! The correct answer is Speaker3. نادرست! پاسخ صحیح گوینده۳ است,1,0.20437158300046576,None,0,41,136.2661962500024,136.279031459002,,138.26656983400244,,,,,,,,,,,,,,,,,,,,,,,,,,,,,,,,,,,,,,,,,,,,,,,,,564665,001,2024-06-30_19h06.46.067,5-24,2024.1.4,None,2024-06-30 19h06.51.545495 +0900,
Images/Speaker1.jpg,Images/Speaker2.jpg,Images/Speaker3.jpg,Images/Speaker4.jpg,Audio/Speaker2_En/P2-10-En.wav,Speaker2,گوینده۲,,,,,,,,,,,,,,,,0,41,41,29,,,,,,,,,,,,,138.2900014170009,,,,,,,,,,,,,,,,,,,,,,,,,,,,,,,,,,,,,,,,,,,,,138.2667449590008,138.2900014170009,138.2900014170009,138.2900014170009,138.2900014170009,138.29984645833662,138.2900014170009,138.2900014170009,138.49205054200138,Incorrect! The correct answer is Speaker2. نادرست! پاسخ صحیح گوینده۲ است,1,0.1978579169990553,None,0,42,138.49621654200018,138.50885629200275,140.52204300000085,140.49464583400186,,,,,,,,,,,,,,,,,,,,,,,,,,,,,,,,,,,,,,,,,,,,,,,,,564665,001,2024-06-30_19h06.46.067,5-24,2024.1.4,None,2024-06-30 19h06.51.545495 +0900,
Images/Speaker1.jpg,Images/Speaker2.jpg,Images/Speaker3.jpg,Images/Speaker4.jpg,Audio/Speaker1_En/P1-4-En.wav,Speaker1,گوینده ۱,,,,,,,,,,,,,,,,0,42,42,3,,,,,,,,,,,,,140.52204300000085,,,,,,,,,,,,,,,,,,,,,,,,,,,,,,,,,,,,,,,,,,,,,140.49553879200175,140.52204300000085,140.52204300000085,140.52204300000085,140.52204300000085,140.52692266733408,140.52204300000085,140.52204300000085,140.763674834001,Correct! صحیح است,1,0.2398261669986823,None,0,43,140.7676655000032,140.77851525000005,,142.7750697090014,,,,,,,,,,,,,,,,,,,,,,,,,,,,,,,,,,,,,,,,,,,,,,,,,564665,001,2024-06-30_19h06.46.067,5-24,2024.1.4,None,2024-06-30 19h06.51.545495 +0900,
Images/Speaker1.jpg,Images/Speaker2.jpg,Images/Speaker3.jpg,Images/Speaker4.jpg,Audio/Speaker4_En/P4-7-En.wav,Speaker4,گوینده۴,,,,,,,,,,,,,,,,0,43,43,66,,,,,,,,,,,,,142.80033379200177,,,,,,,,,,,,,,,,,,,,,,,,,,,,,,,,,,,,,,,,,,,,,142.7756407090019,142.80033379200177,142.80033379200177,142.80033379200177,142.80033379200177,142.80821954233448,142.80033379200177,142.80033379200177,142.99796012500155,Incorrect! The correct answer is Speaker4. نادرست! پاسخ صحیح گوینده۴ است,1,0.1945202499991865,None,0,44,143.00201470899992,143.01557208400118,145.02747700000327,145.00291287500295,,,,,,,,,,,,,,,,,,,,,,,,,,,,,,,,,,,,,,,,,,,,,,,,,564665,001,2024-06-30_19h06.46.067,5-24,2024.1.4,None,2024-06-30 19h06.51.545495 +0900,
Images/Speaker1.jpg,Images/Speaker2.jpg,Images/Speaker3.jpg,Images/Speaker4.jpg,Audio/Speaker3_En/P3-19-En.wav,Speaker3,گوینده۳,,,,,,,,,,,,,,,,0,44,44,58,,,,,,,,,,,,,145.02747700000327,,,,,,,,,,,,,,,,,,,,,,,,,,,,,,,,,,,,,,,,,,,,,145.0039312500012,145.02747700000327,145.02747700000327,145.02747700000327,145.02747700000327,145.03525500033408,145.02747700000327,145.02747700000327,145.25537429200267,Incorrect! The correct answer is Speaker3. نادرست! پاسخ صحیح گوینده۳ است,1,0.22583912499976577,None,0,45,145.25946641700284,145.27252945900182,,147.2656261250013,,,,,,,,,,,,,,,,,,,,,,,,,,,,,,,,,,,,,,,,,,,,,,,,,564665,001,2024-06-30_19h06.46.067,5-24,2024.1.4,None,2024-06-30 19h06.51.545495 +0900,
Images/Speaker1.jpg,Images/Speaker2.jpg,Images/Speaker3.jpg,Images/Speaker4.jpg,Audio/Speaker2_En/P2-8-En.wav,Speaker2,گوینده۲,,,,,,,,,,,,,,,,0,45,45,27,,,,,,,,,,,,,147.2890770840022,,,,,,,,,,,,,,,,,,,,,,,,,,,,,,,,,,,,,,,,,,,,,147.26579866700195,147.2890770840022,147.2890770840022,147.2890770840022,147.2890770840022,147.29891970833393,147.2890770840022,147.2890770840022,147.4502267090029,Incorrect! The correct answer is Speaker2. نادرست! پاسخ صحیح گوینده۲ است,1,0.15463370799989207,None,0,46,147.4543854170006,147.467388709003,149.47723662499993,149.4533807500011,,,,,,,,,,,,,,,,,,,,,,,,,,,,,,,,,,,,,,,,,,,,,,,,,564665,001,2024-06-30_19h06.46.067,5-24,2024.1.4,None,2024-06-30 19h06.51.545495 +0900,
Images/Speaker1.jpg,Images/Speaker2.jpg,Images/Speaker3.jpg,Images/Speaker4.jpg,Audio/Speaker1_En/P1-11-En.wav,Speaker1,گوینده ۱,,,,,,,,,,,,,,,,0,46,46,10,,,,,,,,,,,,,149.47723662499993,,,,,,,,,,,,,,,,,,,,,,,,,,,,,,,,,,,,,,,,,,,,,149.45354662500176,149.47723662499993,149.47723662499993,149.47723662499993,149.47723662499993,149.48644087533518,149.47723662499993,149.47723662499993,149.70406237499992,Correct! صحیح است,1,0.22419866700147395,None,0,47,149.70781795900257,149.71891883400167,,151.70867670900043,,,,,,,,,,,,,,,,,,,,,,,,,,,,,,,,,,,,,,,,,,,,,,,,,564665,001,2024-06-30_19h06.46.067,5-24,2024.1.4,None,2024-06-30 19h06.51.545495 +0900,
Images/Speaker1.jpg,Images/Speaker2.jpg,Images/Speaker3.jpg,Images/Speaker4.jpg,Audio/Speaker2_En/P2-5-En.wav,Speaker2,گوینده۲,,,,,,,,,,,,,,,,0,47,47,24,,,,,,,,,,,,,151.7307928750015,,,,,,,,,,,,,,,,,,,,,,,,,,,,,,,,,,,,,,,,,,,,,151.70884270900206,151.7307928750015,151.7307928750015,151.7307928750015,151.7307928750015,151.72530891666636,151.7307928750015,151.7307928750015,151.84100958400086,Incorrect! The correct answer is Speaker2. نادرست! پاسخ صحیح گوینده۲ است,1,0.09854033399824402,None,0,48,151.8453103339998,151.85755466699993,153.86596866699983,153.84274687500147,,,,,,,,,,,,,,,,,,,,,,,,,,,,,,,,,,,,,,,,,,,,,,,,,564665,001,2024-06-30_19h06.46.067,5-24,2024.1.4,None,2024-06-30 19h06.51.545495 +0900,
Images/Speaker1.jpg,Images/Speaker2.jpg,Images/Speaker3.jpg,Images/Speaker4.jpg,Audio/Speaker3_En/P3-3-En.wav,Speaker3,گوینده۳,,,,,,,,,,,,,,,,0,48,48,42,,,,,,,,,,,,,153.86596866699983,,,,,,,,,,,,,,,,,,,,,,,,,,,,,,,,,,,,,,,,,,,,,153.84291479199965,153.86596866699983,153.86596866699983,153.86596866699983,153.86596866699983,153.87581466733587,153.86596866699983,153.86596866699983,154.03446737500053,Incorrect! The correct answer is Speaker3. نادرست! پاسخ صحیح گوینده۳ است,1,0.1567117499980668,None,0,49,154.03845133400318,154.05317845900208,156.06135408400223,156.03679808400193,,,,,,,,,,,,,,,,,,,,,,,,,,,,,,,,,,,,,,,,,,,,,,,,,564665,001,2024-06-30_19h06.46.067,5-24,2024.1.4,None,2024-06-30 19h06.51.545495 +0900,
Images/Speaker1.jpg,Images/Speaker2.jpg,Images/Speaker3.jpg,Images/Speaker4.jpg,Audio/Speaker2_En/P2-6-En.wav,Speaker2,گوینده۲,,,,,,,,,,,,,,,,0,49,49,25,,,,,,,,,,,,,156.06135408400223,,,,,,,,,,,,,,,,,,,,,,,,,,,,,,,,,,,,,,,,,,,,,156.03768104200208,156.06135408400223,156.06135408400223,156.06135408400223,156.06135408400223,156.06898054233585,156.06135408400223,156.06135408400223,156.2519930840026,Incorrect! The correct answer is Speaker2. نادرست! پاسخ صحیح گوینده۲ است,1,0.18135062500005006,None,0,50,156.25628395900276,156.26872687500145,,158.25651233400276,,,,,,,,,,,,,,,,,,,,,,,,,,,,,,,,,,,,,,,,,,,,,,,,,564665,001,2024-06-30_19h06.46.067,5-24,2024.1.4,None,2024-06-30 19h06.51.545495 +0900,
Images/Speaker1.jpg,Images/Speaker2.jpg,Images/Speaker3.jpg,Images/Speaker4.jpg,Audio/Speaker4_En/P4-19-En.wav,Speaker4,گوینده۴,,,,,,,,,,,,,,,,0,50,50,78,,,,,,,,,,,,,158.28230045900273,,,,,,,,,,,,,,,,,,,,,,,,,,,,,,,,,,,,,,,,,,,,,158.25698329200168,158.28230045900273,158.28230045900273,158.28230045900273,158.28230045900273,158.28972412533454,158.28230045900273,158.28230045900273,158.4516648750032,Incorrect! The correct answer is Speaker4. نادرست! پاسخ صحیح گوینده۴ است,1,0.16760491699824343,None,0,51,158.4556771250027,158.46888966700135,,160.45599220900112,,,,,,,,,,,,,,,,,,,,,,,,,,,,,,,,,,,,,,,,,,,,,,,,,564665,001,2024-06-30_19h06.46.067,5-24,2024.1.4,None,2024-06-30 19h06.51.545495 +0900,
Images/Speaker1.jpg,Images/Speaker2.jpg,Images/Speaker3.jpg,Images/Speaker4.jpg,Audio/Speaker1_En/P1-8-En.wav,Speaker1,گوینده ۱,,,,,,,,,,,,,,,,0,51,51,7,,,,,,,,,,,,,160.47979175,,,,,,,,,,,,,,,,,,,,,,,,,,,,,,,,,,,,,,,,,,,,,160.45616308399985,160.47979175,160.47979175,160.47979175,160.47979175,160.48928804233634,160.47979175,160.47979175,160.51247204200263,Correct! صحیح است,1,0.027700124999682885,None,0,52,160.51661533399965,160.52780170900223,162.54126329200153,162.5160899170005,,,,,,,,,,,,,,,,,,,,,,,,,,,,,,,,,,,,,,,,,,,,,,,,,564665,001,2024-06-30_19h06.46.067,5-24,2024.1.4,None,2024-06-30 19h06.51.545495 +0900,
Images/Speaker1.jpg,Images/Speaker2.jpg,Images/Speaker3.jpg,Images/Speaker4.jpg,Audio/Speaker4_En/P4-15-En.wav,Speaker4,گوینده۴,,,,,,,,,,,,,,,,0,52,52,74,,,,,,,,,,,,,162.54126329200153,,,,,,,,,,,,,,,,,,,,,,,,,,,,,,,,,,,,,,,,,,,,,162.5168306250016,162.54126329200153,162.54126329200153,162.54126329200153,162.54126329200153,162.54864933333425,162.54126329200153,162.54126329200153,162.799382125002,Incorrect! The correct answer is Speaker4. نادرست! پاسخ صحیح گوینده۴ است,1,0.24957995799923083,None,0,53,162.80355075000261,162.81656304200078,164.82936766700004,164.80244275000223,,,,,,,,,,,,,,,,,,,,,,,,,,,,,,,,,,,,,,,,,,,,,,,,,564665,001,2024-06-30_19h06.46.067,5-24,2024.1.4,None,2024-06-30 19h06.51.545495 +0900,
Images/Speaker1.jpg,Images/Speaker2.jpg,Images/Speaker3.jpg,Images/Speaker4.jpg,Audio/Speaker3_En/P3-4-En.wav,Speaker3,گوینده۳,,,,,,,,,,,,,,,,0,53,53,43,,,,,,,,,,,,,164.82936766700004,,,,,,,,,,,,,,,,,,,,,,,,,,,,,,,,,,,,,,,,,,,,,164.8034690420027,164.82936766700004,164.82936766700004,164.82936766700004,164.82936766700004,164.83485966733548,164.82936766700004,164.82936766700004,164.96739254200293,Incorrect! The correct answer is Speaker3. نادرست! پاسخ صحیح گوینده۳ است,1,0.13118904099974316,None,0,54,164.97131783400255,164.98430408400236,,166.97377308400246,,,,,,,,,,,,,,,,,,,,,,,,,,,,,,,,,,,,,,,,,,,,,,,,,564665,001,2024-06-30_19h06.46.067,5-24,2024.1.4,None,2024-06-30 19h06.51.545495 +0900,
Images/Speaker1.jpg,Images/Speaker2.jpg,Images/Speaker3.jpg,Images/Speaker4.jpg,Audio/Speaker3_En/P3-2-En.wav,Speaker3,گوینده۳,,,,,,,,,,,,,,,,0,54,54,41,,,,,,,,,,,,,166.9993158340003,,,,,,,,,,,,,,,,,,,,,,,,,,,,,,,,,,,,,,,,,,,,,166.97394666699984,166.9993158340003,166.9993158340003,166.9993158340003,166.9993158340003,167.00707237533476,166.9993158340003,166.9993158340003,167.2506375840021,Incorrect! The correct answer is Speaker3. نادرست! پاسخ صحیح گوینده۳ است,1,0.2469023340017884,None,0,55,167.25535304200093,167.2691391670014,169.27642108400323,169.25302616699992,,,,,,,,,,,,,,,,,,,,,,,,,,,,,,,,,,,,,,,,,,,,,,,,,564665,001,2024-06-30_19h06.46.067,5-24,2024.1.4,None,2024-06-30 19h06.51.545495 +0900,
Images/Speaker1.jpg,Images/Speaker2.jpg,Images/Speaker3.jpg,Images/Speaker4.jpg,Audio/Speaker1_En/P1-2-En.wav,Speaker1,گوینده ۱,,,,,,,,,,,,,,,,0,55,55,1,,,,,,,,,,,,,169.27642108400323,,,,,,,,,,,,,,,,,,,,,,,,,,,,,,,,,,,,,,,,,,,,,169.2531922920025,169.27642108400323,169.27642108400323,169.27642108400323,169.27642108400323,169.2861125423338,169.27642108400323,169.27642108400323,169.32526220900036,Correct! صحیح است,1,0.04290324999965378,None,0,56,169.32913841700065,169.33993220900084,171.3487809170001,171.32630158400207,,,,,,,,,,,,,,,,,,,,,,,,,,,,,,,,,,,,,,,,,,,,,,,,,564665,001,2024-06-30_19h06.46.067,5-24,2024.1.4,None,2024-06-30 19h06.51.545495 +0900,
Images/Speaker1.jpg,Images/Speaker2.jpg,Images/Speaker3.jpg,Images/Speaker4.jpg,Audio/Speaker4_En/P4-3-En.wav,Speaker4,گوینده۴,,,,,,,,,,,,,,,,0,56,56,62,,,,,,,,,,,,,171.3487809170001,,,,,,,,,,,,,,,,,,,,,,,,,,,,,,,,,,,,,,,,,,,,,171.32646854199993,171.3487809170001,171.3487809170001,171.3487809170001,171.3487809170001,171.34266179166687,171.3487809170001,171.3487809170001,171.5342514590011,Incorrect! The correct answer is Speaker4. نادرست! پاسخ صحیح گوینده۴ است,1,0.18340750000061234,None,0,57,171.53824383400206,171.55131750000146,,173.53874625000026,,,,,,,,,,,,,,,,,,,,,,,,,,,,,,,,,,,,,,,,,,,,,,,,,564665,001,2024-06-30_19h06.46.067,5-24,2024.1.4,None,2024-06-30 19h06.51.545495 +0900,
Images/Speaker1.jpg,Images/Speaker2.jpg,Images/Speaker3.jpg,Images/Speaker4.jpg,Audio/Speaker4_En/P4-1-En.wav,Speaker4,گوینده۴,,,,,,,,,,,,,,,,0,57,57,60,,,,,,,,,,,,,173.5626510000002,,,,,,,,,,,,,,,,,,,,,,,,,,,,,,,,,,,,,,,,,,,,,173.5389145420013,173.5626510000002,173.5626510000002,173.5626510000002,173.5626510000002,173.5720427923339,173.5626510000002,173.5626510000002,173.89533387499978,Incorrect! The correct answer is Speaker4. نادرست! پاسخ صحیح گوینده۴ است,1,0.32312633300171,None,0,58,173.89950791700176,173.90964050000184,175.91651087500213,175.8931813750023,,,,,,,,,,,,,,,,,,,,,,,,,,,,,,,,,,,,,,,,,,,,,,,,,564665,001,2024-06-30_19h06.46.067,5-24,2024.1.4,None,2024-06-30 19h06.51.545495 +0900,
Images/Speaker1.jpg,Images/Speaker2.jpg,Images/Speaker3.jpg,Images/Speaker4.jpg,Audio/Speaker4_En/P4-6-En.wav,Speaker4,گوینده۴,,,,,,,,,,,,,,,,0,58,58,65,,,,,,,,,,,,,175.91651087500213,,,,,,,,,,,,,,,,,,,,,,,,,,,,,,,,,,,,,,,,,,,,,175.89338704200054,175.91651087500213,175.91651087500213,175.91651087500213,175.91651087500213,175.92615108333536,175.91651087500213,175.91651087500213,176.03451275000043,Incorrect! The correct answer is Speaker4. نادرست! پاسخ صحیح گوینده۴ است,1,0.11068595799952163,None,0,59,176.03857566700026,176.05145500000071,,178.03913529200145,,,,,,,,,,,,,,,,,,,,,,,,,,,,,,,,,,,,,,,,,,,,,,,,,564665,001,2024-06-30_19h06.46.067,5-24,2024.1.4,None,2024-06-30 19h06.51.545495 +0900,
Images/Speaker1.jpg,Images/Speaker2.jpg,Images/Speaker3.jpg,Images/Speaker4.jpg,Audio/Speaker3_En/P3-13-En.wav,Speaker3,گوینده۳,,,,,,,,,,,,,,,,0,59,59,52,,,,,,,,,,,,,178.0623320420018,,,,,,,,,,,,,,,,,,,,,,,,,,,,,,,,,,,,,,,,,,,,,178.0393207090019,178.0623320420018,178.0623320420018,178.0623320420018,178.0623320420018,178.07242291733616,178.0623320420018,178.0623320420018,178.23566804200163,Incorrect! The correct answer is Speaker3. نادرست! پاسخ صحیح گوینده۳ است,1,0.16577241599952686,None,0,60,178.2404722090032,178.25492004199987,,180.24114991700117,,,,,,,,,,,,,,,,,,,,,,,,,,,,,,,,,,,,,,,,,,,,,,,,,564665,001,2024-06-30_19h06.46.067,5-24,2024.1.4,None,2024-06-30 19h06.51.545495 +0900,
Images/Speaker1.jpg,Images/Speaker2.jpg,Images/Speaker3.jpg,Images/Speaker4.jpg,Audio/Speaker2_En/P2-16-En.wav,Speaker2,گوینده۲,,,,,,,,,,,,,,,,0,60,60,35,,,,,,,,,,,,,180.26302979200045,,,,,,,,,,,,,,,,,,,,,,,,,,,,,,,,,,,,,,,,,,,,,180.24130408400015,180.26302979200045,180.26302979200045,180.26302979200045,180.26302979200045,180.25777695866807,180.26302979200045,180.26302979200045,180.49233429200103,Incorrect! The correct answer is Speaker2. نادرست! پاسخ صحیح گوینده۲ است,1,0.2273282919995836,None,0,61,180.49609008400148,180.50899650000065,182.51877479200266,182.49574029200085,,,,,,,,,,,,,,,,,,,,,,,,,,,,,,,,,,,,,,,,,,,,,,,,,564665,001,2024-06-30_19h06.46.067,5-24,2024.1.4,None,2024-06-30 19h06.51.545495 +0900,
Images/Speaker1.jpg,Images/Speaker2.jpg,Images/Speaker3.jpg,Images/Speaker4.jpg,Audio/Speaker3_En/P3-16-En.wav,Speaker3,گوینده۳,,,,,,,,,,,,,,,,0,61,61,55,,,,,,,,,,,,,182.51877479200266,,,,,,,,,,,,,,,,,,,,,,,,,,,,,,,,,,,,,,,,,,,,,182.49593304200243,182.51877479200266,182.51877479200266,182.51877479200266,182.51877479200266,182.52885437533456,182.51877479200266,182.51877479200266,182.71299666699997,Incorrect! The correct answer is Speaker3. نادرست! پاسخ صحیح گوینده۳ است,1,0.1930979170028877,None,0,62,182.71672570900046,182.72952708400044,,184.71763579199978,,,,,,,,,,,,,,,,,,,,,,,,,,,,,,,,,,,,,,,,,,,,,,,,,564665,001,2024-06-30_19h06.46.067,5-24,2024.1.4,None,2024-06-30 19h06.51.545495 +0900,
Images/Speaker1.jpg,Images/Speaker2.jpg,Images/Speaker3.jpg,Images/Speaker4.jpg,Audio/Speaker2_En/P2-4-En.wav,Speaker2,گوینده۲,,,,,,,,,,,,,,,,0,62,62,23,,,,,,,,,,,,,184.74270470900228,,,,,,,,,,,,,,,,,,,,,,,,,,,,,,,,,,,,,,,,,,,,,184.7182300420027,184.74270470900228,184.74270470900228,184.74270470900228,184.74270470900228,184.7507708333365,184.74270470900228,184.74270470900228,184.98301329199967,Incorrect! The correct answer is Speaker2. نادرست! پاسخ صحیح گوینده۲ است,1,0.2313161250021949,None,0,63,184.98673062500166,184.9994189170029,187.00594883400117,186.982258834003,,,,,,,,,,,,,,,,,,,,,,,,,,,,,,,,,,,,,,,,,,,,,,,,,564665,001,2024-06-30_19h06.46.067,5-24,2024.1.4,None,2024-06-30 19h06.51.545495 +0900,
Images/Speaker1.jpg,Images/Speaker2.jpg,Images/Speaker3.jpg,Images/Speaker4.jpg,Audio/Speaker4_En/P4-5-En.wav,Speaker4,گوینده۴,,,,,,,,,,,,,,,,0,63,63,64,,,,,,,,,,,,,187.00594883400117,,,,,,,,,,,,,,,,,,,,,,,,,,,,,,,,,,,,,,,,,,,,,186.98243354200167,187.00594883400117,187.00594883400117,187.00594883400117,187.00594883400117,187.01532583333443,187.00594883400117,187.00594883400117,187.19767200000206,Incorrect! The correct answer is Speaker4. نادرست! پاسخ صحیح گوینده۴ است,1,0.18199287499737693,None,0,64,187.20141004200195,187.211627167002,189.21961883400218,189.19713800000318,,,,,,,,,,,,,,,,,,,,,,,,,,,,,,,,,,,,,,,,,,,,,,,,,564665,001,2024-06-30_19h06.46.067,5-24,2024.1.4,None,2024-06-30 19h06.51.545495 +0900,
Images/Speaker1.jpg,Images/Speaker2.jpg,Images/Speaker3.jpg,Images/Speaker4.jpg,Audio/Speaker2_En/P2-17-En.wav,Speaker2,گوینده۲,,,,,,,,,,,,,,,,0,64,64,36,,,,,,,,,,,,,189.21961883400218,,,,,,,,,,,,,,,,,,,,,,,,,,,,,,,,,,,,,,,,,,,,,189.1973023749997,189.21961883400218,189.21961883400218,189.21961883400218,189.21961883400218,189.21349858366764,189.21961883400218,189.21961883400218,189.52869995900255,Incorrect! The correct answer is Speaker2. نادرست! پاسخ صحیح گوینده۲ است,1,0.3063854169995466,None,0,65,189.53296891700302,189.54548233400055,191.55512212500253,191.530957959003,,,,,,,,,,,,,,,,,,,,,,,,,,,,,,,,,,,,,,,,,,,,,,,,,564665,001,2024-06-30_19h06.46.067,5-24,2024.1.4,None,2024-06-30 19h06.51.545495 +0900,
Images/Speaker1.jpg,Images/Speaker2.jpg,Images/Speaker3.jpg,Images/Speaker4.jpg,Audio/Speaker2_En/P2-3-En.wav,Speaker2,گوینده۲,,,,,,,,,,,,,,,,0,65,65,22,,,,,,,,,,,,,191.55512212500253,,,,,,,,,,,,,,,,,,,,,,,,,,,,,,,,,,,,,,,,,,,,,191.53111350000108,191.55512212500253,191.55512212500253,191.55512212500253,191.55512212500253,191.5639804583339,191.55512212500253,191.55512212500253,191.73377687500033,Incorrect! The correct answer is Speaker2. نادرست! پاسخ صحیح گوینده۲ است,1,0.1714882089981984,None,0,66,191.7380253750016,191.75031066700103,,193.74273041700144,,,,,,,,,,,,,,,,,,,,,,,,,,,,,,,,,,,,,,,,,,,,,,,,,564665,001,2024-06-30_19h06.46.067,5-24,2024.1.4,None,2024-06-30 19h06.51.545495 +0900,
Images/Speaker1.jpg,Images/Speaker2.jpg,Images/Speaker3.jpg,Images/Speaker4.jpg,Audio/Speaker4_En/P4-14-En.wav,Speaker4,گوینده۴,,,,,,,,,,,,,,,,0,66,66,73,,,,,,,,,,,,,193.76847925000038,,,,,,,,,,,,,,,,,,,,,,,,,,,,,,,,,,,,,,,,,,,,,193.74330541699965,193.76847925000038,193.76847925000038,193.76847925000038,193.76847925000038,193.77584383333357,193.76847925000038,193.76847925000038,193.9792302920032,Incorrect! The correct answer is Speaker4. نادرست! پاسخ صحیح گوینده۴ است,1,0.20969474999947124,None,0,67,193.98303120900164,193.99621262500295,196.00582229200154,195.98287175000223,,,,,,,,,,,,,,,,,,,,,,,,,,,,,,,,,,,,,,,,,,,,,,,,,564665,001,2024-06-30_19h06.46.067,5-24,2024.1.4,None,2024-06-30 19h06.51.545495 +0900,
Images/Speaker1.jpg,Images/Speaker2.jpg,Images/Speaker3.jpg,Images/Speaker4.jpg,Audio/Speaker1_En/P1-16-En.wav,Speaker1,گوینده ۱,,,,,,,,,,,,,,,,0,67,67,15,,,,,,,,,,,,,196.00582229200154,,,,,,,,,,,,,,,,,,,,,,,,,,,,,,,,,,,,,,,,,,,,,195.98304029200153,196.00582229200154,196.00582229200154,196.00582229200154,196.00582229200154,195.9993007086671,196.00582229200154,196.00582229200154,196.25548541700118,Correct! صحیح است,1,0.24517204199946718,None,0,68,196.26014237500203,196.27222745900144,198.28086691700082,198.25716837500295,,,,,,,,,,,,,,,,,,,,,,,,,,,,,,,,,,,,,,,,,,,,,,,,,564665,001,2024-06-30_19h06.46.067,5-24,2024.1.4,None,2024-06-30 19h06.51.545495 +0900,
Images/Speaker1.jpg,Images/Speaker2.jpg,Images/Speaker3.jpg,Images/Speaker4.jpg,Audio/Speaker1_En/P1-19-En.wav,Speaker1,گوینده ۱,,,,,,,,,,,,,,,,0,68,68,18,,,,,,,,,,,,,198.28086691700082,,,,,,,,,,,,,,,,,,,,,,,,,,,,,,,,,,,,,,,,,,,,,198.25734529200054,198.28086691700082,198.28086691700082,198.28086691700082,198.28086691700082,198.290272208335,198.28086691700082,198.28086691700082,198.5073027920007,Correct! صحیح است,1,0.2247900420006772,None,0,69,198.5111620839998,198.52299083400067,200.52955591700083,200.50604916700104,,,,,,,,,,,,,,,,,,,,,,,,,,,,,,,,,,,,,,,,,,,,,,,,,564665,001,2024-06-30_19h06.46.067,5-24,2024.1.4,None,2024-06-30 19h06.51.545495 +0900,
Images/Speaker1.jpg,Images/Speaker2.jpg,Images/Speaker3.jpg,Images/Speaker4.jpg,Audio/Speaker2_En/P2-13-En.wav,Speaker2,گوینده۲,,,,,,,,,,,,,,,,0,69,69,32,,,,,,,,,,,,,200.52955591700083,,,,,,,,,,,,,,,,,,,,,,,,,,,,,,,,,,,,,,,,,,,,,200.50620704200264,200.52955591700083,200.52955591700083,200.52955591700083,200.52955591700083,200.53909941733633,200.52955591700083,200.52955591700083,200.74542379200284,Incorrect! The correct answer is Speaker2. نادرست! پاسخ صحیح گوینده۲ است,1,0.2143028749997029,None,0,70,200.749284542002,200.76150245900135,,202.75939491700046,,,,,,,,,,,,,,,,,,,,,,,,,,,,,,,,,,,,,,,,,,,,,,,,,564665,001,2024-06-30_19h06.46.067,5-24,2024.1.4,None,2024-06-30 19h06.51.545495 +0900,
Images/Speaker1.jpg,Images/Speaker2.jpg,Images/Speaker3.jpg,Images/Speaker4.jpg,Audio/Speaker2_En/P2-18-En.wav,Speaker2,گوینده۲,,,,,,,,,,,,,,,,0,70,70,37,,,,,,,,,,,,,202.784657334003,,,,,,,,,,,,,,,,,,,,,,,,,,,,,,,,,,,,,,,,,,,,,202.760001542003,202.784657334003,202.784657334003,202.784657334003,202.784657334003,202.79252945833338,202.784657334003,202.784657334003,203.0611658750022,Incorrect! The correct answer is Speaker2. نادرست! پاسخ صحیح گوینده۲ است,1,0.26792516699788393,None,0,71,203.06531083400114,203.07821758400314,,205.06814704200224,,,,,,,,,,,,,,,,,,,,,,,,,,,,,,,,,,,,,,,,,,,,,,,,,564665,001,2024-06-30_19h06.46.067,5-24,2024.1.4,None,2024-06-30 19h06.51.545495 +0900,
Images/Speaker1.jpg,Images/Speaker2.jpg,Images/Speaker3.jpg,Images/Speaker4.jpg,Audio/Speaker3_En/P3-5-En.wav,Speaker3,گوینده۳,,,,,,,,,,,,,,,,0,71,71,44,,,,,,,,,,,,,205.0968448340027,,,,,,,,,,,,,,,,,,,,,,,,,,,,,,,,,,,,,,,,,,,,,205.06874429200252,205.0968448340027,205.0968448340027,205.0968448340027,205.0968448340027,205.1013053333341,205.0968448340027,205.0968448340027,205.32120058400324,Incorrect! The correct answer is Speaker3. نادرست! پاسخ صحیح گوینده۳ است,1,0.2214622089995828,None,0,72,205.32525050000186,205.33785204200103,207.34715804200096,207.32444554200265,,,,,,,,,,,,,,,,,,,,,,,,,,,,,,,,,,,,,,,,,,,,,,,,,564665,001,2024-06-30_19h06.46.067,5-24,2024.1.4,None,2024-06-30 19h06.51.545495 +0900,
Images/Speaker1.jpg,Images/Speaker2.jpg,Images/Speaker3.jpg,Images/Speaker4.jpg,Audio/Speaker4_En/P4-8-En.wav,Speaker4,گوینده۴,,,,,,,,,,,,,,,,0,72,72,67,,,,,,,,,,,,,207.34715804200096,,,,,,,,,,,,,,,,,,,,,,,,,,,,,,,,,,,,,,,,,,,,,207.32459999999992,207.34715804200096,207.34715804200096,207.34715804200096,207.34715804200096,207.3408237086699,207.34715804200096,207.34715804200096,207.64581858400197,Incorrect! The correct answer is Speaker4. نادرست! پاسخ صحیح گوینده۴ است,1,0.29552412499833736,None,0,73,207.64977770900077,207.6625366670014,209.67117579200203,209.64825612500135,,,,,,,,,,,,,,,,,,,,,,,,,,,,,,,,,,,,,,,,,,,,,,,,,564665,001,2024-06-30_19h06.46.067,5-24,2024.1.4,None,2024-06-30 19h06.51.545495 +0900,
Images/Speaker1.jpg,Images/Speaker2.jpg,Images/Speaker3.jpg,Images/Speaker4.jpg,Audio/Speaker2_En/P2-1-En.wav,Speaker2,گوینده۲,,,,,,,,,,,,,,,,0,73,73,20,,,,,,,,,,,,,209.67117579200203,,,,,,,,,,,,,,,,,,,,,,,,,,,,,,,,,,,,,,,,,,,,,209.64843558400025,209.67117579200203,209.67117579200203,209.67117579200203,209.67117579200203,209.66460800066878,209.67117579200203,209.67117579200203,209.93251208400034,Incorrect! The correct answer is Speaker2. نادرست! پاسخ صحیح گوینده۲ است,1,0.26038970799709205,None,0,74,209.93694933400184,209.94930283400026,,211.94211633400118,,,,,,,,,,,,,,,,,,,,,,,,,,,,,,,,,,,,,,,,,,,,,,,,,564665,001,2024-06-30_19h06.46.067,5-24,2024.1.4,None,2024-06-30 19h06.51.545495 +0900,
Images/Speaker1.jpg,Images/Speaker2.jpg,Images/Speaker3.jpg,Images/Speaker4.jpg,Audio/Speaker3_En/P3-20-En.wav,Speaker3,گوینده۳,,,,,,,,,,,,,,,,0,74,74,59,,,,,,,,,,,,,211.9674557920007,,,,,,,,,,,,,,,,,,,,,,,,,,,,,,,,,,,,,,,,,,,,,211.94286570900294,211.9674557920007,211.9674557920007,211.9674557920007,211.9674557920007,211.97527337533444,211.9674557920007,211.9674557920007,212.1755251249997,Incorrect! The correct answer is Speaker3. نادرست! پاسخ صحیح گوینده۳ است,1,0.20303716700072982,None,0,75,212.1793717920009,212.19202533400312,,214.18213337500129,,,,,,,,,,,,,,,,,,,,,,,,,,,,,,,,,,,,,,,,,,,,,,,,,564665,001,2024-06-30_19h06.46.067,5-24,2024.1.4,None,2024-06-30 19h06.51.545495 +0900,
Images/Speaker1.jpg,Images/Speaker2.jpg,Images/Speaker3.jpg,Images/Speaker4.jpg,Audio/Speaker4_En/P4-9-En.wav,Speaker4,گوینده۴,,,,,,,,,,,,,,,,0,75,75,68,,,,,,,,,,,,,214.20776854200085,,,,,,,,,,,,,,,,,,,,,,,,,,,,,,,,,,,,,,,,,,,,,214.1826642090018,214.20776854200085,214.20776854200085,214.20776854200085,214.20776854200085,214.21532020833598,214.20776854200085,214.20776854200085,214.37652787499974,Incorrect! The correct answer is Speaker4. نادرست! پاسخ صحیح گوینده۴ است,1,0.16558825000174693,None,0,76,214.38061025000206,214.39343075000215,,216.38405233400044,,,,,,,,,,,,,,,,,,,,,,,,,,,,,,,,,,,,,,,,,,,,,,,,,564665,001,2024-06-30_19h06.46.067,5-24,2024.1.4,None,2024-06-30 19h06.51.545495 +0900,
Images/Speaker1.jpg,Images/Speaker2.jpg,Images/Speaker3.jpg,Images/Speaker4.jpg,Audio/Speaker2_En/P2-11-En.wav,Speaker2,گوینده۲,,,,,,,,,,,,,,,,0,76,76,30,,,,,,,,,,,,,216.4090783339998,,,,,,,,,,,,,,,,,,,,,,,,,,,,,,,,,,,,,,,,,,,,,216.38459345900264,216.4090783339998,216.4090783339998,216.4090783339998,216.4090783339998,216.417180750334,216.4090783339998,216.4090783339998,216.61559683400264,Incorrect! The correct answer is Speaker2. نادرست! پاسخ صحیح گوینده۲ است,1,0.2054783750027127,None,0,77,216.6197340840008,216.63228445900313,218.6436824170014,218.618416917001,,,,,,,,,,,,,,,,,,,,,,,,,,,,,,,,,,,,,,,,,,,,,,,,,564665,001,2024-06-30_19h06.46.067,5-24,2024.1.4,None,2024-06-30 19h06.51.545495 +0900,
Images/Speaker1.jpg,Images/Speaker2.jpg,Images/Speaker3.jpg,Images/Speaker4.jpg,Audio/Speaker2_En/P2-7-En.wav,Speaker2,گوینده۲,,,,,,,,,,,,,,,,0,77,77,26,,,,,,,,,,,,,218.6436824170014,,,,,,,,,,,,,,,,,,,,,,,,,,,,,,,,,,,,,,,,,,,,,218.61916433400256,218.6436824170014,218.6436824170014,218.6436824170014,218.6436824170014,218.65086945833588,218.6436824170014,218.6436824170014,218.8001385000025,Incorrect! The correct answer is Speaker2. نادرست! پاسخ صحیح گوینده۲ است,1,0.15008016700085136,None,0,78,218.80407425000158,218.81640437500027,220.82275300000038,220.80231704200196,,,,,,,,,,,,,,,,,,,,,,,,,,,,,,,,,,,,,,,,,,,,,,,,,564665,001,2024-06-30_19h06.46.067,5-24,2024.1.4,None,2024-06-30 19h06.51.545495 +0900,
Images/Speaker1.jpg,Images/Speaker2.jpg,Images/Speaker3.jpg,Images/Speaker4.jpg,Audio/Speaker1_En/P1-4-En.wav,Speaker1,گوینده ۱,,,,,,,,,,,,,,,,0,78,78,13,,,,,,,,,,,,,220.82275300000038,,,,,,,,,,,,,,,,,,,,,,,,,,,,,,,,,,,,,,,,,,,,,220.80246637500022,220.82275300000038,220.82275300000038,220.82275300000038,220.82275300000038,220.81876291666802,220.82275300000038,220.82275300000038,221.12964724999983,Correct! صحیح است,1,0.3054946670017671,None,0,79,221.133457584001,221.14474095900005,223.15497154200057,223.13267950000227,,,,,,,,,,,,,,,,,,,,,,,,,,,,,,,,,,,,,,,,,,,,,,,,,564665,001,2024-06-30_19h06.46.067,5-24,2024.1.4,None,2024-06-30 19h06.51.545495 +0900,
Images/Speaker1.jpg,Images/Speaker2.jpg,Images/Speaker3.jpg,Images/Speaker4.jpg,Audio/Speaker3_En/P3-7-En.wav,Speaker3,گوینده۳,,,,,,,,,,,,,,,,0,79,79,46,,,,,,,,,,,,,223.15497154200057,,,,,,,,,,,,,,,,,,,,,,,,,,,,,,,,,,,,,,,,,,,,,223.13282691700078,223.15497154200057,223.15497154200057,223.15497154200057,223.15497154200057,223.14908600066727,223.15497154200057,223.15497154200057,223.82454408400008,Incorrect! The correct answer is Speaker3. نادرست! پاسخ صحیح گوینده۳ است,1,0.668638541999826,None,0,80,223.8284447920014,223.84062979200098,225.8295637500014,225.8248740420022,,,,,,,,,,,,,,,,,,,,,,,,,,,,,,,,,,,,,,,,,,,,,,,,,564665,001,2024-06-30_19h06.46.067,5-24,2024.1.4,None,2024-06-30 19h06.51.545495 +0900,
,,,,,,,,,,,,,,,,,,,,,,,,,,,,,,,,,,,,,,,,,,,,,,,,,,,,,,,,,,,,,,,,,,,,,,,,,,,,,,,,,,,,,,,,,,,,,,,,,,,,,,225.82492358400123,0,0,0.0,False,225.8250930000031,,,,,,,,,,,,,,,,,,,,,,,,,,,,,,,,,,,,,,,,,,,564665,001,2024-06-30_19h06.46.067,5-24,2024.1.4,None,2024-06-30 19h06.51.545495 +0900,
,,,,,,,,,,,,,,,,,,,,,,,,,,,,,,,,,,,,,,,,,,,,,,,,,,,,,,,,,,,,,,,,,,,,,,,,,,,,,,,,,,,,,,,,,,,,,,,,,,,,,,,,,,,,225.8251067500023,225.8295637500014,232.6497048750025,230.8137045000003,,,,,,,,,,,,,,,,,,,,,,,,,,,,,,,,,,,,,,,564665,001,2024-06-30_19h06.46.067,5-24,2024.1.4,None,2024-06-30 19h06.51.545495 +0900,
,,,,,,,Images/Speaker1.jpg,Images/Speaker2.jpg,Images/Speaker3.jpg,Images/Speaker4.jpg,Audio/Speaker3_Per/P3-12-Per.wav,Speaker3,گوینده۳,,,,,,,,,,,,,0,0,0,51,,,,,,,,,232.6497048750025,,,,,,,,,,,,,,,,,,,,,,,,,,,,,,,,,,,,,,,,,,,,,,,,,,,,,,,,,,,,,,,,,,,,,,,,,,230.83285470900228,230.85016383400216,None,No response,Images/Speaker1.jpg,Images/Speaker2.jpg,Images/Speaker3.jpg,Images/Speaker4.jpg,Audio/Speaker3_Per/P3-12-Per.wav,Speaker3,گوینده۳,,,,,,,,,,,,,,,,,,,,,,,,,,,,564665,001,2024-06-30_19h06.46.067,5-24,2024.1.4,None,2024-06-30 19h06.51.545495 +0900,
,,,,,,,Images/Speaker1.jpg,Images/Speaker2.jpg,Images/Speaker3.jpg,Images/Speaker4.jpg,Audio/Speaker1_Per/P1-16-Per.wav,Speaker1,گوینده ۱,,,,,,,,,,,,,0,1,1,15,,,,,,,,,232.6497048750025,,,,,,,,,,,,,,,,,,,,,,,,,,,,,,,,,,,,,,,,,,,,,,,,,,,,,,,,,,,,,,,,,,,,,,,,,,230.8504839590023,230.86368441700324,None,No response,Images/Speaker1.jpg,Images/Speaker2.jpg,Images/Speaker3.jpg,Images/Speaker4.jpg,Audio/Speaker1_Per/P1-16-Per.wav,Speaker3,گوینده۳,,,,,,,,,,,,,,,,,,,,,,,,,,,,564665,001,2024-06-30_19h06.46.067,5-24,2024.1.4,None,2024-06-30 19h06.51.545495 +0900,
,,,,,,,Images/Speaker1.jpg,Images/Speaker2.jpg,Images/Speaker3.jpg,Images/Speaker4.jpg,Audio/Speaker4_Per/P4-10-Per.wav,Speaker4,گوینده۴,,,,,,,,,,,,,0,2,2,69,,,,,,,,,232.6497048750025,,,,,,,,,,,,,,,,,,,,,,,,,,,,,,,,,,,,,,,,,,,,,,,,,,,,,,,,,,,,,,,,,,,,,,,,,,230.86386908400164,230.87708158399982,None,No response,Images/Speaker1.jpg,Images/Speaker2.jpg,Images/Speaker3.jpg,Images/Speaker4.jpg,Audio/Speaker4_Per/P4-10-Per.wav,Speaker3,گوینده۳,,,,,,,,,,,,,,,,,,,,,,,,,,,,564665,001,2024-06-30_19h06.46.067,5-24,2024.1.4,None,2024-06-30 19h06.51.545495 +0900,
,,,,,,,Images/Speaker1.jpg,Images/Speaker2.jpg,Images/Speaker3.jpg,Images/Speaker4.jpg,Audio/Speaker4_Per/P4-12-Per.wav,Speaker4,گوینده۴,,,,,,,,,,,,,0,3,3,71,,,,,,,,,232.6497048750025,,,,,,,,,,,,,,,,,,,,,,,,,,,,,,,,,,,,,,,,,,,,,,,,,,,,,,,,,,,,,,,,,,,,,,,,,,230.87725350000255,230.88990620900222,None,No response,Images/Speaker1.jpg,Images/Speaker2.jpg,Images/Speaker3.jpg,Images/Speaker4.jpg,Audio/Speaker4_Per/P4-12-Per.wav,Speaker3,گوینده۳,,,,,,,,,,,,,,,,,,,,,,,,,,,,564665,001,2024-06-30_19h06.46.067,5-24,2024.1.4,None,2024-06-30 19h06.51.545495 +0900,
,,,,,,,Images/Speaker1.jpg,Images/Speaker2.jpg,Images/Speaker3.jpg,Images/Speaker4.jpg,Audio/Speaker2_Per/P2-18-Per.wav,Speaker2,گوینده۲,,,,,,,,,,,,,0,4,4,37,,,,,,,,,232.6497048750025,,,,,,,,,,,,,,,,,,,,,,,,,,,,,,,,,,,,,,,,,,,,,,,,,,,,,,,,,,,,,,,,,,,,,,,,,,230.8900751250003,230.90223625,None,No response,Images/Speaker1.jpg,Images/Speaker2.jpg,Images/Speaker3.jpg,Images/Speaker4.jpg,Audio/Speaker2_Per/P2-18-Per.wav,Speaker3,گوینده۳,,,,,,,,,,,,,,,,,,,,,,,,,,,,564665,001,2024-06-30_19h06.46.067,5-24,2024.1.4,None,2024-06-30 19h06.51.545495 +0900,
,,,,,,,Images/Speaker1.jpg,Images/Speaker2.jpg,Images/Speaker3.jpg,Images/Speaker4.jpg,Audio/Speaker2_Per/P2-12-Per.wav,Speaker2,گوینده۲,,,,,,,,,,,,,0,5,5,31,,,,,,,,,232.6497048750025,,,,,,,,,,,,,,,,,,,,,,,,,,,,,,,,,,,,,,,,,,,,,,,,,,,,,,,,,,,,,,,,,,,,,,,,,,230.90241054200305,230.91459937500258,None,No response,Images/Speaker1.jpg,Images/Speaker2.jpg,Images/Speaker3.jpg,Images/Speaker4.jpg,Audio/Speaker2_Per/P2-12-Per.wav,Speaker3,گوینده۳,,,,,,,,,,,,,,,,,,,,,,,,,,,,564665,001,2024-06-30_19h06.46.067,5-24,2024.1.4,None,2024-06-30 19h06.51.545495 +0900,
,,,,,,,Images/Speaker1.jpg,Images/Speaker2.jpg,Images/Speaker3.jpg,Images/Speaker4.jpg,Audio/Speaker3_Per/P3-16-Per.wav,Speaker3,گوینده۳,,,,,,,,,,,,,0,6,6,55,,,,,,,,,232.6497048750025,,,,,,,,,,,,,,,,,,,,,,,,,,,,,,,,,,,,,,,,,,,,,,,,,,,,,,,,,,,,,,,,,,,,,,,,,,230.91475125000215,230.9261322500024,None,No response,Images/Speaker1.jpg,Images/Speaker2.jpg,Images/Speaker3.jpg,Images/Speaker4.jpg,Audio/Speaker3_Per/P3-16-Per.wav,Speaker3,گوینده۳,,,,,,,,,,,,,,,,,,,,,,,,,,,,564665,001,2024-06-30_19h06.46.067,5-24,2024.1.4,None,2024-06-30 19h06.51.545495 +0900,
,,,,,,,Images/Speaker1.jpg,Images/Speaker2.jpg,Images/Speaker3.jpg,Images/Speaker4.jpg,Audio/Speaker3_Per/P3-15-Per.wav,Speaker3,گوینده۳,,,,,,,,,,,,,0,7,7,54,,,,,,,,,232.6497048750025,,,,,,,,,,,,,,,,,,,,,,,,,,,,,,,,,,,,,,,,,,,,,,,,,,,,,,,,,,,,,,,,,,,,,,,,,,230.92628320900258,230.93835554200268,None,No response,Images/Speaker1.jpg,Images/Speaker2.jpg,Images/Speaker3.jpg,Images/Speaker4.jpg,Audio/Speaker3_Per/P3-15-Per.wav,Speaker3,گوینده۳,,,,,,,,,,,,,,,,,,,,,,,,,,,,564665,001,2024-06-30_19h06.46.067,5-24,2024.1.4,None,2024-06-30 19h06.51.545495 +0900,
,,,,,,,Images/Speaker1.jpg,Images/Speaker2.jpg,Images/Speaker3.jpg,Images/Speaker4.jpg,Audio/Speaker2_Per/P2-5-Per.wav,Speaker2,گوینده۲,,,,,,,,,,,,,0,8,8,24,,,,,,,,,232.6497048750025,,,,,,,,,,,,,,,,,,,,,,,,,,,,,,,,,,,,,,,,,,,,,,,,,,,,,,,,,,,,,,,,,,,,,,,,,,230.938510709002,230.9497934170031,None,No response,Images/Speaker1.jpg,Images/Speaker2.jpg,Images/Speaker3.jpg,Images/Speaker4.jpg,Audio/Speaker2_Per/P2-5-Per.wav,Speaker3,گوینده۳,,,,,,,,,,,,,,,,,,,,,,,,,,,,564665,001,2024-06-30_19h06.46.067,5-24,2024.1.4,None,2024-06-30 19h06.51.545495 +0900,
,,,,,,,Images/Speaker1.jpg,Images/Speaker2.jpg,Images/Speaker3.jpg,Images/Speaker4.jpg,Audio/Speaker1_Per/P1-4-Per.wav,Speaker1,گوینده ۱,,,,,,,,,,,,,0,9,9,3,,,,,,,,,232.6497048750025,,,,,,,,,,,,,,,,,,,,,,,,,,,,,,,,,,,,,,,,,,,,,,,,,,,,,,,,,,,,,,,,,,,,,,,,,,230.9499482090032,230.961714750003,None,No response,Images/Speaker1.jpg,Images/Speaker2.jpg,Images/Speaker3.jpg,Images/Speaker4.jpg,Audio/Speaker1_Per/P1-4-Per.wav,Speaker3,گوینده۳,,,,,,,,,,,,,,,,,,,,,,,,,,,,564665,001,2024-06-30_19h06.46.067,5-24,2024.1.4,None,2024-06-30 19h06.51.545495 +0900,
,,,,,,,Images/Speaker1.jpg,Images/Speaker2.jpg,Images/Speaker3.jpg,Images/Speaker4.jpg,Audio/Speaker3_Per/P3-18-Per.wav,Speaker3,گوینده۳,,,,,,,,,,,,,0,10,10,57,,,,,,,,,232.6497048750025,,,,,,,,,,,,,,,,,,,,,,,,,,,,,,,,,,,,,,,,,,,,,,,,,,,,,,,,,,,,,,,,,,,,,,,,,,230.96186983400185,230.97286216700013,None,No response,Images/Speaker1.jpg,Images/Speaker2.jpg,Images/Speaker3.jpg,Images/Speaker4.jpg,Audio/Speaker3_Per/P3-18-Per.wav,Speaker3,گوینده۳,,,,,,,,,,,,,,,,,,,,,,,,,,,,564665,001,2024-06-30_19h06.46.067,5-24,2024.1.4,None,2024-06-30 19h06.51.545495 +0900,
,,,,,,,Images/Speaker1.jpg,Images/Speaker2.jpg,Images/Speaker3.jpg,Images/Speaker4.jpg,Audio/Speaker2_Per/P2-15-Per.wav,Speaker2,گوینده۲,,,,,,,,,,,,,0,11,11,34,,,,,,,,,232.6497048750025,,,,,,,,,,,,,,,,,,,,,,,,,,,,,,,,,,,,,,,,,,,,,,,,,,,,,,,,,,,,,,,,,,,,,,,,,,230.97301012500247,230.98468612500074,None,No response,Images/Speaker1.jpg,Images/Speaker2.jpg,Images/Speaker3.jpg,Images/Speaker4.jpg,Audio/Speaker2_Per/P2-15-Per.wav,Speaker3,گوینده۳,,,,,,,,,,,,,,,,,,,,,,,,,,,,564665,001,2024-06-30_19h06.46.067,5-24,2024.1.4,None,2024-06-30 19h06.51.545495 +0900,
,,,,,,,Images/Speaker1.jpg,Images/Speaker2.jpg,Images/Speaker3.jpg,Images/Speaker4.jpg,Audio/Speaker3_Per/P3-2-Per.wav,Speaker3,گوینده۳,,,,,,,,,,,,,0,12,12,41,,,,,,,,,232.6497048750025,,,,,,,,,,,,,,,,,,,,,,,,,,,,,,,,,,,,,,,,,,,,,,,,,,,,,,,,,,,,,,,,,,,,,,,,,,230.98483379200115,230.9969489590003,None,No response,Images/Speaker1.jpg,Images/Speaker2.jpg,Images/Speaker3.jpg,Images/Speaker4.jpg,Audio/Speaker3_Per/P3-2-Per.wav,Speaker3,گوینده۳,,,,,,,,,,,,,,,,,,,,,,,,,,,,564665,001,2024-06-30_19h06.46.067,5-24,2024.1.4,None,2024-06-30 19h06.51.545495 +0900,
,,,,,,,Images/Speaker1.jpg,Images/Speaker2.jpg,Images/Speaker3.jpg,Images/Speaker4.jpg,Audio/Speaker1_Per/P1-6-Per.wav,Speaker1,گوینده ۱,,,,,,,,,,,,,0,13,13,5,,,,,,,,,232.6497048750025,,,,,,,,,,,,,,,,,,,,,,,,,,,,,,,,,,,,,,,,,,,,,,,,,,,,,,,,,,,,,,,,,,,,,,,,,,230.99709858400092,231.00894954199975,None,No response,Images/Speaker1.jpg,Images/Speaker2.jpg,Images/Speaker3.jpg,Images/Speaker4.jpg,Audio/Speaker1_Per/P1-6-Per.wav,Speaker3,گوینده۳,,,,,,,,,,,,,,,,,,,,,,,,,,,,564665,001,2024-06-30_19h06.46.067,5-24,2024.1.4,None,2024-06-30 19h06.51.545495 +0900,
,,,,,,,Images/Speaker1.jpg,Images/Speaker2.jpg,Images/Speaker3.jpg,Images/Speaker4.jpg,Audio/Speaker4_Per/P4-13-Per.wav,Speaker4,گوینده۴,,,,,,,,,,,,,0,14,14,72,,,,,,,,,232.6497048750025,,,,,,,,,,,,,,,,,,,,,,,,,,,,,,,,,,,,,,,,,,,,,,,,,,,,,,,,,,,,,,,,,,,,,,,,,,231.00909087500258,231.02082395900288,None,No response,Images/Speaker1.jpg,Images/Speaker2.jpg,Images/Speaker3.jpg,Images/Speaker4.jpg,Audio/Speaker4_Per/P4-13-Per.wav,Speaker3,گوینده۳,,,,,,,,,,,,,,,,,,,,,,,,,,,,564665,001,2024-06-30_19h06.46.067,5-24,2024.1.4,None,2024-06-30 19h06.51.545495 +0900,
,,,,,,,Images/Speaker1.jpg,Images/Speaker2.jpg,Images/Speaker3.jpg,Images/Speaker4.jpg,Audio/Speaker3_Per/P3-20-Per.wav,Speaker3,گوینده۳,,,,,,,,,,,,,0,15,15,59,,,,,,,,,232.6497048750025,,,,,,,,,,,,,,,,,,,,,,,,,,,,,,,,,,,,,,,,,,,,,,,,,,,,,,,,,,,,,,,,,,,,,,,,,,231.0209655840008,231.03169479200005,None,No response,Images/Speaker1.jpg,Images/Speaker2.jpg,Images/Speaker3.jpg,Images/Speaker4.jpg,Audio/Speaker3_Per/P3-20-Per.wav,Speaker3,گوینده۳,,,,,,,,,,,,,,,,,,,,,,,,,,,,564665,001,2024-06-30_19h06.46.067,5-24,2024.1.4,None,2024-06-30 19h06.51.545495 +0900,
,,,,,,,Images/Speaker1.jpg,Images/Speaker2.jpg,Images/Speaker3.jpg,Images/Speaker4.jpg,Audio/Speaker1_Per/P1-18-Per.wav,Speaker1,گوینده ۱,,,,,,,,,,,,,0,16,16,17,,,,,,,,,232.6497048750025,,,,,,,,,,,,,,,,,,,,,,,,,,,,,,,,,,,,,,,,,,,,,,,,,,,,,,,,,,,,,,,,,,,,,,,,,,231.0318311250012,231.04268166700058,None,No response,Images/Speaker1.jpg,Images/Speaker2.jpg,Images/Speaker3.jpg,Images/Speaker4.jpg,Audio/Speaker1_Per/P1-18-Per.wav,Speaker3,گوینده۳,,,,,,,,,,,,,,,,,,,,,,,,,,,,564665,001,2024-06-30_19h06.46.067,5-24,2024.1.4,None,2024-06-30 19h06.51.545495 +0900,
,,,,,,,Images/Speaker1.jpg,Images/Speaker2.jpg,Images/Speaker3.jpg,Images/Speaker4.jpg,Audio/Speaker1_Per/P1-19-Per.wav,Speaker1,گوینده ۱,,,,,,,,,,,,,0,17,17,18,,,,,,,,,232.6497048750025,,,,,,,,,,,,,,,,,,,,,,,,,,,,,,,,,,,,,,,,,,,,,,,,,,,,,,,,,,,,,,,,,,,,,,,,,,231.04282654200142,231.05436970899973,None,No response,Images/Speaker1.jpg,Images/Speaker2.jpg,Images/Speaker3.jpg,Images/Speaker4.jpg,Audio/Speaker1_Per/P1-19-Per.wav,Speaker3,گوینده۳,,,,,,,,,,,,,,,,,,,,,,,,,,,,564665,001,2024-06-30_19h06.46.067,5-24,2024.1.4,None,2024-06-30 19h06.51.545495 +0900,
,,,,,,,Images/Speaker1.jpg,Images/Speaker2.jpg,Images/Speaker3.jpg,Images/Speaker4.jpg,Audio/Speaker3_Per/P3-13-Per.wav,Speaker3,گوینده۳,,,,,,,,,,,,,0,18,18,52,,,,,,,,,232.6497048750025,,,,,,,,,,,,,,,,,,,,,,,,,,,,,,,,,,,,,,,,,,,,,,,,,,,,,,,,,,,,,,,,,,,,,,,,,,231.05451675000222,231.06581870900118,None,No response,Images/Speaker1.jpg,Images/Speaker2.jpg,Images/Speaker3.jpg,Images/Speaker4.jpg,Audio/Speaker3_Per/P3-13-Per.wav,Speaker3,گوینده۳,,,,,,,,,,,,,,,,,,,,,,,,,,,,564665,001,2024-06-30_19h06.46.067,5-24,2024.1.4,None,2024-06-30 19h06.51.545495 +0900,
,,,,,,,Images/Speaker1.jpg,Images/Speaker2.jpg,Images/Speaker3.jpg,Images/Speaker4.jpg,Audio/Speaker1_Per/P1-5-Per.wav,Speaker1,گوینده ۱,,,,,,,,,,,,,0,19,19,4,,,,,,,,,232.6497048750025,,,,,,,,,,,,,,,,,,,,,,,,,,,,,,,,,,,,,,,,,,,,,,,,,,,,,,,,,,,,,,,,,,,,,,,,,,231.06596225000249,231.07687637500203,None,No response,Images/Speaker1.jpg,Images/Speaker2.jpg,Images/Speaker3.jpg,Images/Speaker4.jpg,Audio/Speaker1_Per/P1-5-Per.wav,Speaker3,گوینده۳,,,,,,,,,,,,,,,,,,,,,,,,,,,,564665,001,2024-06-30_19h06.46.067,5-24,2024.1.4,None,2024-06-30 19h06.51.545495 +0900,
,,,,,,,Images/Speaker1.jpg,Images/Speaker2.jpg,Images/Speaker3.jpg,Images/Speaker4.jpg,Audio/Speaker3_Per/P3-3-Per.wav,Speaker3,گوینده۳,,,,,,,,,,,,,0,20,20,42,,,,,,,,,232.6497048750025,,,,,,,,,,,,,,,,,,,,,,,,,,,,,,,,,,,,,,,,,,,,,,,,,,,,,,,,,,,,,,,,,,,,,,,,,,231.07701712500057,231.0875846250019,None,No response,Images/Speaker1.jpg,Images/Speaker2.jpg,Images/Speaker3.jpg,Images/Speaker4.jpg,Audio/Speaker3_Per/P3-3-Per.wav,Speaker3,گوینده۳,,,,,,,,,,,,,,,,,,,,,,,,,,,,564665,001,2024-06-30_19h06.46.067,5-24,2024.1.4,None,2024-06-30 19h06.51.545495 +0900,
,,,,,,,Images/Speaker1.jpg,Images/Speaker2.jpg,Images/Speaker3.jpg,Images/Speaker4.jpg,Audio/Speaker2_Per/P2-1-Per.wav,Speaker2,گوینده۲,,,,,,,,,,,,,0,21,21,20,,,,,,,,,232.6497048750025,,,,,,,,,,,,,,,,,,,,,,,,,,,,,,,,,,,,,,,,,,,,,,,,,,,,,,,,,,,,,,,,,,,,,,,,,,231.08773075000136,231.09869095900285,None,No response,Images/Speaker1.jpg,Images/Speaker2.jpg,Images/Speaker3.jpg,Images/Speaker4.jpg,Audio/Speaker2_Per/P2-1-Per.wav,Speaker3,گوینده۳,,,,,,,,,,,,,,,,,,,,,,,,,,,,564665,001,2024-06-30_19h06.46.067,5-24,2024.1.4,None,2024-06-30 19h06.51.545495 +0900,
,,,,,,,Images/Speaker1.jpg,Images/Speaker2.jpg,Images/Speaker3.jpg,Images/Speaker4.jpg,Audio/Speaker4_Per/P4-6-Per.wav,Speaker4,گوینده۴,,,,,,,,,,,,,0,22,22,65,,,,,,,,,232.6497048750025,,,,,,,,,,,,,,,,,,,,,,,,,,,,,,,,,,,,,,,,,,,,,,,,,,,,,,,,,,,,,,,,,,,,,,,,,,231.0988343340032,231.10985370900016,None,No response,Images/Speaker1.jpg,Images/Speaker2.jpg,Images/Speaker3.jpg,Images/Speaker4.jpg,Audio/Speaker4_Per/P4-6-Per.wav,Speaker3,گوینده۳,,,,,,,,,,,,,,,,,,,,,,,,,,,,564665,001,2024-06-30_19h06.46.067,5-24,2024.1.4,None,2024-06-30 19h06.51.545495 +0900,
,,,,,,,Images/Speaker1.jpg,Images/Speaker2.jpg,Images/Speaker3.jpg,Images/Speaker4.jpg,Audio/Speaker4_Per/P4-14-Per.wav,Speaker4,گوینده۴,,,,,,,,,,,,,0,23,23,73,,,,,,,,,232.6497048750025,,,,,,,,,,,,,,,,,,,,,,,,,,,,,,,,,,,,,,,,,,,,,,,,,,,,,,,,,,,,,,,,,,,,,,,,,,231.10999274999995,231.12211662499976,None,No response,Images/Speaker1.jpg,Images/Speaker2.jpg,Images/Speaker3.jpg,Images/Speaker4.jpg,Audio/Speaker4_Per/P4-14-Per.wav,Speaker3,گوینده۳,,,,,,,,,,,,,,,,,,,,,,,,,,,,564665,001,2024-06-30_19h06.46.067,5-24,2024.1.4,None,2024-06-30 19h06.51.545495 +0900,
,,,,,,,Images/Speaker1.jpg,Images/Speaker2.jpg,Images/Speaker3.jpg,Images/Speaker4.jpg,Audio/Speaker4_Per/P4-11-Per.wav,Speaker4,گوینده۴,,,,,,,,,,,,,0,24,24,70,,,,,,,,,232.6497048750025,,,,,,,,,,,,,,,,,,,,,,,,,,,,,,,,,,,,,,,,,,,,,,,,,,,,,,,,,,,,,,,,,,,,,,,,,,231.12226391700096,231.13383166700078,None,No response,Images/Speaker1.jpg,Images/Speaker2.jpg,Images/Speaker3.jpg,Images/Speaker4.jpg,Audio/Speaker4_Per/P4-11-Per.wav,Speaker3,گوینده۳,,,,,,,,,,,,,,,,,,,,,,,,,,,,564665,001,2024-06-30_19h06.46.067,5-24,2024.1.4,None,2024-06-30 19h06.51.545495 +0900,
,,,,,,,Images/Speaker1.jpg,Images/Speaker2.jpg,Images/Speaker3.jpg,Images/Speaker4.jpg,Audio/Speaker4_Per/P4-3-Per.wav,Speaker4,گوینده۴,,,,,,,,,,,,,0,25,25,62,,,,,,,,,232.6497048750025,,,,,,,,,,,,,,,,,,,,,,,,,,,,,,,,,,,,,,,,,,,,,,,,,,,,,,,,,,,,,,,,,,,,,,,,,,231.1339837500018,231.14515125000253,None,No response,Images/Speaker1.jpg,Images/Speaker2.jpg,Images/Speaker3.jpg,Images/Speaker4.jpg,Audio/Speaker4_Per/P4-3-Per.wav,Speaker3,گوینده۳,,,,,,,,,,,,,,,,,,,,,,,,,,,,564665,001,2024-06-30_19h06.46.067,5-24,2024.1.4,None,2024-06-30 19h06.51.545495 +0900,
,,,,,,,Images/Speaker1.jpg,Images/Speaker2.jpg,Images/Speaker3.jpg,Images/Speaker4.jpg,Audio/Speaker2_Per/P2-6-Per.wav,Speaker2,گوینده۲,,,,,,,,,,,,,0,26,26,25,,,,,,,,,232.6497048750025,,,,,,,,,,,,,,,,,,,,,,,,,,,,,,,,,,,,,,,,,,,,,,,,,,,,,,,,,,,,,,,,,,,,,,,,,,231.145298792002,231.15611283399994,None,No response,Images/Speaker1.jpg,Images/Speaker2.jpg,Images/Speaker3.jpg,Images/Speaker4.jpg,Audio/Speaker2_Per/P2-6-Per.wav,Speaker3,گوینده۳,,,,,,,,,,,,,,,,,,,,,,,,,,,,564665,001,2024-06-30_19h06.46.067,5-24,2024.1.4,None,2024-06-30 19h06.51.545495 +0900,
,,,,,,,Images/Speaker1.jpg,Images/Speaker2.jpg,Images/Speaker3.jpg,Images/Speaker4.jpg,Audio/Speaker1_Per/P1-1-Per.wav,Speaker1,گوینده ۱,,,,,,,,,,,,,0,27,27,0,,,,,,,,,232.6497048750025,,,,,,,,,,,,,,,,,,,,,,,,,,,,,,,,,,,,,,,,,,,,,,,,,,,,,,,,,,,,,,,,,,,,,,,,,,231.15625266700226,231.1673134590019,None,No response,Images/Speaker1.jpg,Images/Speaker2.jpg,Images/Speaker3.jpg,Images/Speaker4.jpg,Audio/Speaker1_Per/P1-1-Per.wav,Speaker3,گوینده۳,,,,,,,,,,,,,,,,,,,,,,,,,,,,564665,001,2024-06-30_19h06.46.067,5-24,2024.1.4,None,2024-06-30 19h06.51.545495 +0900,
,,,,,,,Images/Speaker1.jpg,Images/Speaker2.jpg,Images/Speaker3.jpg,Images/Speaker4.jpg,Audio/Speaker3_Per/P3-8-Per.wav,Speaker3,گوینده۳,,,,,,,,,,,,,0,28,28,47,,,,,,,,,232.6497048750025,,,,,,,,,,,,,,,,,,,,,,,,,,,,,,,,,,,,,,,,,,,,,,,,,,,,,,,,,,,,,,,,,,,,,,,,,,231.16745337500106,231.17946216700147,None,No response,Images/Speaker1.jpg,Images/Speaker2.jpg,Images/Speaker3.jpg,Images/Speaker4.jpg,Audio/Speaker3_Per/P3-8-Per.wav,Speaker3,گوینده۳,,,,,,,,,,,,,,,,,,,,,,,,,,,,564665,001,2024-06-30_19h06.46.067,5-24,2024.1.4,None,2024-06-30 19h06.51.545495 +0900,
,,,,,,,Images/Speaker1.jpg,Images/Speaker2.jpg,Images/Speaker3.jpg,Images/Speaker4.jpg,Audio/Speaker2_Per/P2-4-Per.wav,Speaker2,گوینده۲,,,,,,,,,,,,,0,29,29,23,,,,,,,,,232.6497048750025,,,,,,,,,,,,,,,,,,,,,,,,,,,,,,,,,,,,,,,,,,,,,,,,,,,,,,,,,,,,,,,,,,,,,,,,,,231.17960479199974,231.1905081670011,None,No response,Images/Speaker1.jpg,Images/Speaker2.jpg,Images/Speaker3.jpg,Images/Speaker4.jpg,Audio/Speaker2_Per/P2-4-Per.wav,Speaker3,گوینده۳,,,,,,,,,,,,,,,,,,,,,,,,,,,,564665,001,2024-06-30_19h06.46.067,5-24,2024.1.4,None,2024-06-30 19h06.51.545495 +0900,
,,,,,,,Images/Speaker1.jpg,Images/Speaker2.jpg,Images/Speaker3.jpg,Images/Speaker4.jpg,Audio/Speaker4_Per/P4-1-Per.wav,Speaker4,گوینده۴,,,,,,,,,,,,,0,30,30,60,,,,,,,,,232.6497048750025,,,,,,,,,,,,,,,,,,,,,,,,,,,,,,,,,,,,,,,,,,,,,,,,,,,,,,,,,,,,,,,,,,,,,,,,,,231.19065262500226,231.20190504200218,None,No response,Images/Speaker1.jpg,Images/Speaker2.jpg,Images/Speaker3.jpg,Images/Speaker4.jpg,Audio/Speaker4_Per/P4-1-Per.wav,Speaker3,گوینده۳,,,,,,,,,,,,,,,,,,,,,,,,,,,,564665,001,2024-06-30_19h06.46.067,5-24,2024.1.4,None,2024-06-30 19h06.51.545495 +0900,
,,,,,,,Images/Speaker1.jpg,Images/Speaker2.jpg,Images/Speaker3.jpg,Images/Speaker4.jpg,Audio/Speaker3_Per/P3-6-Per.wav,Speaker3,گوینده۳,,,,,,,,,,,,,0,31,31,45,,,,,,,,,232.6497048750025,,,,,,,,,,,,,,,,,,,,,,,,,,,,,,,,,,,,,,,,,,,,,,,,,,,,,,,,,,,,,,,,,,,,,,,,,,231.20204516700323,231.21346237500256,None,No response,Images/Speaker1.jpg,Images/Speaker2.jpg,Images/Speaker3.jpg,Images/Speaker4.jpg,Audio/Speaker3_Per/P3-6-Per.wav,Speaker3,گوینده۳,,,,,,,,,,,,,,,,,,,,,,,,,,,,564665,001,2024-06-30_19h06.46.067,5-24,2024.1.4,None,2024-06-30 19h06.51.545495 +0900,
,,,,,,,Images/Speaker1.jpg,Images/Speaker2.jpg,Images/Speaker3.jpg,Images/Speaker4.jpg,Audio/Speaker4_Per/P4-20-Per.wav,Speaker4,گوینده۴,,,,,,,,,,,,,0,32,32,79,,,,,,,,,232.6497048750025,,,,,,,,,,,,,,,,,,,,,,,,,,,,,,,,,,,,,,,,,,,,,,,,,,,,,,,,,,,,,,,,,,,,,,,,,,231.21360837500106,231.2242334170005,None,No response,Images/Speaker1.jpg,Images/Speaker2.jpg,Images/Speaker3.jpg,Images/Speaker4.jpg,Audio/Speaker4_Per/P4-20-Per.wav,Speaker3,گوینده۳,,,,,,,,,,,,,,,,,,,,,,,,,,,,564665,001,2024-06-30_19h06.46.067,5-24,2024.1.4,None,2024-06-30 19h06.51.545495 +0900,
,,,,,,,Images/Speaker1.jpg,Images/Speaker2.jpg,Images/Speaker3.jpg,Images/Speaker4.jpg,Audio/Speaker2_Per/P2-3-Per.wav,Speaker2,گوینده۲,,,,,,,,,,,,,0,33,33,22,,,,,,,,,232.6497048750025,,,,,,,,,,,,,,,,,,,,,,,,,,,,,,,,,,,,,,,,,,,,,,,,,,,,,,,,,,,,,,,,,,,,,,,,,,231.22437395900124,231.23526012500224,None,No response,Images/Speaker1.jpg,Images/Speaker2.jpg,Images/Speaker3.jpg,Images/Speaker4.jpg,Audio/Speaker2_Per/P2-3-Per.wav,Speaker3,گوینده۳,,,,,,,,,,,,,,,,,,,,,,,,,,,,564665,001,2024-06-30_19h06.46.067,5-24,2024.1.4,None,2024-06-30 19h06.51.545495 +0900,
,,,,,,,Images/Speaker1.jpg,Images/Speaker2.jpg,Images/Speaker3.jpg,Images/Speaker4.jpg,Audio/Speaker1_Per/P1-7-Per.wav,Speaker1,گوینده ۱,,,,,,,,,,,,,0,34,34,6,,,,,,,,,232.6497048750025,,,,,,,,,,,,,,,,,,,,,,,,,,,,,,,,,,,,,,,,,,,,,,,,,,,,,,,,,,,,,,,,,,,,,,,,,,231.2353985840018,231.24620883399984,None,No response,Images/Speaker1.jpg,Images/Speaker2.jpg,Images/Speaker3.jpg,Images/Speaker4.jpg,Audio/Speaker1_Per/P1-7-Per.wav,Speaker3,گوینده۳,,,,,,,,,,,,,,,,,,,,,,,,,,,,564665,001,2024-06-30_19h06.46.067,5-24,2024.1.4,None,2024-06-30 19h06.51.545495 +0900,
,,,,,,,Images/Speaker1.jpg,Images/Speaker2.jpg,Images/Speaker3.jpg,Images/Speaker4.jpg,Audio/Speaker1_Per/P1-20-Per.wav,Speaker1,گوینده ۱,,,,,,,,,,,,,0,35,35,19,,,,,,,,,232.6497048750025,,,,,,,,,,,,,,,,,,,,,,,,,,,,,,,,,,,,,,,,,,,,,,,,,,,,,,,,,,,,,,,,,,,,,,,,,,231.24635583400232,231.25699100000202,None,No response,Images/Speaker1.jpg,Images/Speaker2.jpg,Images/Speaker3.jpg,Images/Speaker4.jpg,Audio/Speaker1_Per/P1-20-Per.wav,Speaker3,گوینده۳,,,,,,,,,,,,,,,,,,,,,,,,,,,,564665,001,2024-06-30_19h06.46.067,5-24,2024.1.4,None,2024-06-30 19h06.51.545495 +0900,
,,,,,,,Images/Speaker1.jpg,Images/Speaker2.jpg,Images/Speaker3.jpg,Images/Speaker4.jpg,Audio/Speaker2_Per/P2-10-Per.wav,Speaker2,گوینده۲,,,,,,,,,,,,,0,36,36,29,,,,,,,,,232.6497048750025,,,,,,,,,,,,,,,,,,,,,,,,,,,,,,,,,,,,,,,,,,,,,,,,,,,,,,,,,,,,,,,,,,,,,,,,,,231.25713162500324,231.268296000002,None,No response,Images/Speaker1.jpg,Images/Speaker2.jpg,Images/Speaker3.jpg,Images/Speaker4.jpg,Audio/Speaker2_Per/P2-10-Per.wav,Speaker3,گوینده۳,,,,,,,,,,,,,,,,,,,,,,,,,,,,564665,001,2024-06-30_19h06.46.067,5-24,2024.1.4,None,2024-06-30 19h06.51.545495 +0900,
,,,,,,,Images/Speaker1.jpg,Images/Speaker2.jpg,Images/Speaker3.jpg,Images/Speaker4.jpg,Audio/Speaker2_Per/P2-19-Per.wav,Speaker2,گوینده۲,,,,,,,,,,,,,0,37,37,38,,,,,,,,,232.6497048750025,,,,,,,,,,,,,,,,,,,,,,,,,,,,,,,,,,,,,,,,,,,,,,,,,,,,,,,,,,,,,,,,,,,,,,,,,,231.2684365840032,231.2794759999997,None,No response,Images/Speaker1.jpg,Images/Speaker2.jpg,Images/Speaker3.jpg,Images/Speaker4.jpg,Audio/Speaker2_Per/P2-19-Per.wav,Speaker3,گوینده۳,,,,,,,,,,,,,,,,,,,,,,,,,,,,564665,001,2024-06-30_19h06.46.067,5-24,2024.1.4,None,2024-06-30 19h06.51.545495 +0900,
,,,,,,,Images/Speaker1.jpg,Images/Speaker2.jpg,Images/Speaker3.jpg,Images/Speaker4.jpg,Audio/Speaker4_Per/P4-15-Per.wav,Speaker4,گوینده۴,,,,,,,,,,,,,0,38,38,74,,,,,,,,,232.6497048750025,,,,,,,,,,,,,,,,,,,,,,,,,,,,,,,,,,,,,,,,,,,,,,,,,,,,,,,,,,,,,,,,,,,,,,,,,,231.27961379200133,231.29125162499986,None,No response,Images/Speaker1.jpg,Images/Speaker2.jpg,Images/Speaker3.jpg,Images/Speaker4.jpg,Audio/Speaker4_Per/P4-15-Per.wav,Speaker3,گوینده۳,,,,,,,,,,,,,,,,,,,,,,,,,,,,564665,001,2024-06-30_19h06.46.067,5-24,2024.1.4,None,2024-06-30 19h06.51.545495 +0900,
,,,,,,,Images/Speaker1.jpg,Images/Speaker2.jpg,Images/Speaker3.jpg,Images/Speaker4.jpg,Audio/Speaker3_Per/P3-19-Per.wav,Speaker3,گوینده۳,,,,,,,,,,,,,0,39,39,58,,,,,,,,,232.6497048750025,,,,,,,,,,,,,,,,,,,,,,,,,,,,,,,,,,,,,,,,,,,,,,,,,,,,,,,,,,,,,,,,,,,,,,,,,,231.29139541699988,231.30269383400082,None,No response,Images/Speaker1.jpg,Images/Speaker2.jpg,Images/Speaker3.jpg,Images/Speaker4.jpg,Audio/Speaker3_Per/P3-19-Per.wav,Speaker3,گوینده۳,,,,,,,,,,,,,,,,,,,,,,,,,,,,564665,001,2024-06-30_19h06.46.067,5-24,2024.1.4,None,2024-06-30 19h06.51.545495 +0900,
,,,,,,,Images/Speaker1.jpg,Images/Speaker2.jpg,Images/Speaker3.jpg,Images/Speaker4.jpg,Audio/Speaker2_Per/P2-20-Per.wav,Speaker2,گوینده۲,,,,,,,,,,,,,0,40,40,39,,,,,,,,,232.6497048750025,,,,,,,,,,,,,,,,,,,,,,,,,,,,,,,,,,,,,,,,,,,,,,,,,,,,,,,,,,,,,,,,,,,,,,,,,,231.30283750000308,231.3132220840016,None,No response,Images/Speaker1.jpg,Images/Speaker2.jpg,Images/Speaker3.jpg,Images/Speaker4.jpg,Audio/Speaker2_Per/P2-20-Per.wav,Speaker3,گوینده۳,,,,,,,,,,,,,,,,,,,,,,,,,,,,564665,001,2024-06-30_19h06.46.067,5-24,2024.1.4,None,2024-06-30 19h06.51.545495 +0900,
,,,,,,,Images/Speaker1.jpg,Images/Speaker2.jpg,Images/Speaker3.jpg,Images/Speaker4.jpg,Audio/Speaker2_Per/P2-16-Per.wav,Speaker2,گوینده۲,,,,,,,,,,,,,0,41,41,35,,,,,,,,,232.6497048750025,,,,,,,,,,,,,,,,,,,,,,,,,,,,,,,,,,,,,,,,,,,,,,,,,,,,,,,,,,,,,,,,,,,,,,,,,,231.31336108400137,231.32381375000114,None,No response,Images/Speaker1.jpg,Images/Speaker2.jpg,Images/Speaker3.jpg,Images/Speaker4.jpg,Audio/Speaker2_Per/P2-16-Per.wav,Speaker3,گوینده۳,,,,,,,,,,,,,,,,,,,,,,,,,,,,564665,001,2024-06-30_19h06.46.067,5-24,2024.1.4,None,2024-06-30 19h06.51.545495 +0900,
,,,,,,,Images/Speaker1.jpg,Images/Speaker2.jpg,Images/Speaker3.jpg,Images/Speaker4.jpg,Audio/Speaker3_Per/P3-4-Per.wav,Speaker3,گوینده۳,,,,,,,,,,,,,0,42,42,43,,,,,,,,,232.6497048750025,,,,,,,,,,,,,,,,,,,,,,,,,,,,,,,,,,,,,,,,,,,,,,,,,,,,,,,,,,,,,,,,,,,,,,,,,,231.32395654200081,231.33555187500315,None,No response,Images/Speaker1.jpg,Images/Speaker2.jpg,Images/Speaker3.jpg,Images/Speaker4.jpg,Audio/Speaker3_Per/P3-4-Per.wav,Speaker3,گوینده۳,,,,,,,,,,,,,,,,,,,,,,,,,,,,564665,001,2024-06-30_19h06.46.067,5-24,2024.1.4,None,2024-06-30 19h06.51.545495 +0900,
,,,,,,,Images/Speaker1.jpg,Images/Speaker2.jpg,Images/Speaker3.jpg,Images/Speaker4.jpg,Audio/Speaker3_Per/P3-17-Per.wav,Speaker3,گوینده۳,,,,,,,,,,,,,0,43,43,56,,,,,,,,,232.6497048750025,,,,,,,,,,,,,,,,,,,,,,,,,,,,,,,,,,,,,,,,,,,,,,,,,,,,,,,,,,,,,,,,,,,,,,,,,,231.33569558400268,231.34670237500177,None,No response,Images/Speaker1.jpg,Images/Speaker2.jpg,Images/Speaker3.jpg,Images/Speaker4.jpg,Audio/Speaker3_Per/P3-17-Per.wav,Speaker3,گوینده۳,,,,,,,,,,,,,,,,,,,,,,,,,,,,564665,001,2024-06-30_19h06.46.067,5-24,2024.1.4,None,2024-06-30 19h06.51.545495 +0900,
,,,,,,,Images/Speaker1.jpg,Images/Speaker2.jpg,Images/Speaker3.jpg,Images/Speaker4.jpg,Audio/Speaker1_Per/P1-9-Per.wav,Speaker1,گوینده ۱,,,,,,,,,,,,,0,44,44,8,,,,,,,,,232.6497048750025,,,,,,,,,,,,,,,,,,,,,,,,,,,,,,,,,,,,,,,,,,,,,,,,,,,,,,,,,,,,,,,,,,,,,,,,,,231.3468411670001,231.3583350000008,None,No response,Images/Speaker1.jpg,Images/Speaker2.jpg,Images/Speaker3.jpg,Images/Speaker4.jpg,Audio/Speaker1_Per/P1-9-Per.wav,Speaker3,گوینده۳,,,,,,,,,,,,,,,,,,,,,,,,,,,,564665,001,2024-06-30_19h06.46.067,5-24,2024.1.4,None,2024-06-30 19h06.51.545495 +0900,
,,,,,,,Images/Speaker1.jpg,Images/Speaker2.jpg,Images/Speaker3.jpg,Images/Speaker4.jpg,Audio/Speaker4_Per/P4-18-Per.wav,Speaker4,گوینده۴,,,,,,,,,,,,,0,45,45,77,,,,,,,,,232.6497048750025,,,,,,,,,,,,,,,,,,,,,,,,,,,,,,,,,,,,,,,,,,,,,,,,,,,,,,,,,,,,,,,,,,,,,,,,,,231.3584780420024,231.3691103750025,None,No response,Images/Speaker1.jpg,Images/Speaker2.jpg,Images/Speaker3.jpg,Images/Speaker4.jpg,Audio/Speaker4_Per/P4-18-Per.wav,Speaker3,گوینده۳,,,,,,,,,,,,,,,,,,,,,,,,,,,,564665,001,2024-06-30_19h06.46.067,5-24,2024.1.4,None,2024-06-30 19h06.51.545495 +0900,
,,,,,,,Images/Speaker1.jpg,Images/Speaker2.jpg,Images/Speaker3.jpg,Images/Speaker4.jpg,Audio/Speaker3_Per/P3-9-Per.wav,Speaker3,گوینده۳,,,,,,,,,,,,,0,46,46,48,,,,,,,,,232.6497048750025,,,,,,,,,,,,,,,,,,,,,,,,,,,,,,,,,,,,,,,,,,,,,,,,,,,,,,,,,,,,,,,,,,,,,,,,,,231.36925366700234,231.38037212500058,None,No response,Images/Speaker1.jpg,Images/Speaker2.jpg,Images/Speaker3.jpg,Images/Speaker4.jpg,Audio/Speaker3_Per/P3-9-Per.wav,Speaker3,گوینده۳,,,,,,,,,,,,,,,,,,,,,,,,,,,,564665,001,2024-06-30_19h06.46.067,5-24,2024.1.4,None,2024-06-30 19h06.51.545495 +0900,
,,,,,,,Images/Speaker1.jpg,Images/Speaker2.jpg,Images/Speaker3.jpg,Images/Speaker4.jpg,Audio/Speaker2_Per/P2-17-Per.wav,Speaker2,گوینده۲,,,,,,,,,,,,,0,47,47,36,,,,,,,,,232.6497048750025,,,,,,,,,,,,,,,,,,,,,,,,,,,,,,,,,,,,,,,,,,,,,,,,,,,,,,,,,,,,,,,,,,,,,,,,,,231.38051216700114,231.39083862500047,None,No response,Images/Speaker1.jpg,Images/Speaker2.jpg,Images/Speaker3.jpg,Images/Speaker4.jpg,Audio/Speaker2_Per/P2-17-Per.wav,Speaker3,گوینده۳,,,,,,,,,,,,,,,,,,,,,,,,,,,,564665,001,2024-06-30_19h06.46.067,5-24,2024.1.4,None,2024-06-30 19h06.51.545495 +0900,
,,,,,,,Images/Speaker1.jpg,Images/Speaker2.jpg,Images/Speaker3.jpg,Images/Speaker4.jpg,Audio/Speaker1_Per/P1-3-Per.wav,Speaker1,گوینده ۱,,,,,,,,,,,,,0,48,48,2,,,,,,,,,232.6497048750025,,,,,,,,,,,,,,,,,,,,,,,,,,,,,,,,,,,,,,,,,,,,,,,,,,,,,,,,,,,,,,,,,,,,,,,,,,231.39097437500095,231.40171337500215,None,No response,Images/Speaker1.jpg,Images/Speaker2.jpg,Images/Speaker3.jpg,Images/Speaker4.jpg,Audio/Speaker1_Per/P1-3-Per.wav,Speaker3,گوینده۳,,,,,,,,,,,,,,,,,,,,,,,,,,,,564665,001,2024-06-30_19h06.46.067,5-24,2024.1.4,None,2024-06-30 19h06.51.545495 +0900,
,,,,,,,Images/Speaker1.jpg,Images/Speaker2.jpg,Images/Speaker3.jpg,Images/Speaker4.jpg,Audio/Speaker1_Per/P1-17-Per.wav,Speaker1,گوینده ۱,,,,,,,,,,,,,0,49,49,16,,,,,,,,,232.6497048750025,,,,,,,,,,,,,,,,,,,,,,,,,,,,,,,,,,,,,,,,,,,,,,,,,,,,,,,,,,,,,,,,,,,,,,,,,,231.4018491670031,231.41230412500227,None,No response,Images/Speaker1.jpg,Images/Speaker2.jpg,Images/Speaker3.jpg,Images/Speaker4.jpg,Audio/Speaker1_Per/P1-17-Per.wav,Speaker3,گوینده۳,,,,,,,,,,,,,,,,,,,,,,,,,,,,564665,001,2024-06-30_19h06.46.067,5-24,2024.1.4,None,2024-06-30 19h06.51.545495 +0900,
,,,,,,,Images/Speaker1.jpg,Images/Speaker2.jpg,Images/Speaker3.jpg,Images/Speaker4.jpg,Audio/Speaker4_Per/P4-7-Per.wav,Speaker4,گوینده۴,,,,,,,,,,,,,0,50,50,66,,,,,,,,,232.6497048750025,,,,,,,,,,,,,,,,,,,,,,,,,,,,,,,,,,,,,,,,,,,,,,,,,,,,,,,,,,,,,,,,,,,,,,,,,,231.41244420899966,231.4232295840011,None,No response,Images/Speaker1.jpg,Images/Speaker2.jpg,Images/Speaker3.jpg,Images/Speaker4.jpg,Audio/Speaker4_Per/P4-7-Per.wav,Speaker3,گوینده۳,,,,,,,,,,,,,,,,,,,,,,,,,,,,564665,001,2024-06-30_19h06.46.067,5-24,2024.1.4,None,2024-06-30 19h06.51.545495 +0900,
,,,,,,,Images/Speaker1.jpg,Images/Speaker2.jpg,Images/Speaker3.jpg,Images/Speaker4.jpg,Audio/Speaker1_Per/P1-13-Per.wav,Speaker1,گوینده ۱,,,,,,,,,,,,,0,51,51,12,,,,,,,,,232.6497048750025,,,,,,,,,,,,,,,,,,,,,,,,,,,,,,,,,,,,,,,,,,,,,,,,,,,,,,,,,,,,,,,,,,,,,,,,,,231.42337054200107,231.43475816700084,None,No response,Images/Speaker1.jpg,Images/Speaker2.jpg,Images/Speaker3.jpg,Images/Speaker4.jpg,Audio/Speaker1_Per/P1-13-Per.wav,Speaker3,گوینده۳,,,,,,,,,,,,,,,,,,,,,,,,,,,,564665,001,2024-06-30_19h06.46.067,5-24,2024.1.4,None,2024-06-30 19h06.51.545495 +0900,
,,,,,,,Images/Speaker1.jpg,Images/Speaker2.jpg,Images/Speaker3.jpg,Images/Speaker4.jpg,Audio/Speaker3_Per/P3-7-Per.wav,Speaker3,گوینده۳,,,,,,,,,,,,,0,52,52,46,,,,,,,,,232.6497048750025,,,,,,,,,,,,,,,,,,,,,,,,,,,,,,,,,,,,,,,,,,,,,,,,,,,,,,,,,,,,,,,,,,,,,,,,,,231.43489650000265,231.44582358400294,None,No response,Images/Speaker1.jpg,Images/Speaker2.jpg,Images/Speaker3.jpg,Images/Speaker4.jpg,Audio/Speaker3_Per/P3-7-Per.wav,Speaker3,گوینده۳,,,,,,,,,,,,,,,,,,,,,,,,,,,,564665,001,2024-06-30_19h06.46.067,5-24,2024.1.4,None,2024-06-30 19h06.51.545495 +0900,
,,,,,,,Images/Speaker1.jpg,Images/Speaker2.jpg,Images/Speaker3.jpg,Images/Speaker4.jpg,Audio/Speaker3_Per/P3-11-Per.wav,Speaker3,گوینده۳,,,,,,,,,,,,,0,53,53,50,,,,,,,,,232.6497048750025,,,,,,,,,,,,,,,,,,,,,,,,,,,,,,,,,,,,,,,,,,,,,,,,,,,,,,,,,,,,,,,,,,,,,,,,,,231.44597266700293,231.45804112500264,None,No response,Images/Speaker1.jpg,Images/Speaker2.jpg,Images/Speaker3.jpg,Images/Speaker4.jpg,Audio/Speaker3_Per/P3-11-Per.wav,Speaker3,گوینده۳,,,,,,,,,,,,,,,,,,,,,,,,,,,,564665,001,2024-06-30_19h06.46.067,5-24,2024.1.4,None,2024-06-30 19h06.51.545495 +0900,
,,,,,,,Images/Speaker1.jpg,Images/Speaker2.jpg,Images/Speaker3.jpg,Images/Speaker4.jpg,Audio/Speaker1_Per/P1-11-Per.wav,Speaker1,گوینده ۱,,,,,,,,,,,,,0,54,54,10,,,,,,,,,232.6497048750025,,,,,,,,,,,,,,,,,,,,,,,,,,,,,,,,,,,,,,,,,,,,,,,,,,,,,,,,,,,,,,,,,,,,,,,,,,231.4581828750015,231.46955004200208,None,No response,Images/Speaker1.jpg,Images/Speaker2.jpg,Images/Speaker3.jpg,Images/Speaker4.jpg,Audio/Speaker1_Per/P1-11-Per.wav,Speaker3,گوینده۳,,,,,,,,,,,,,,,,,,,,,,,,,,,,564665,001,2024-06-30_19h06.46.067,5-24,2024.1.4,None,2024-06-30 19h06.51.545495 +0900,
,,,,,,,Images/Speaker1.jpg,Images/Speaker2.jpg,Images/Speaker3.jpg,Images/Speaker4.jpg,Audio/Speaker4_Per/P4-8-Per.wav,Speaker4,گوینده۴,,,,,,,,,,,,,0,55,55,67,,,,,,,,,232.6497048750025,,,,,,,,,,,,,,,,,,,,,,,,,,,,,,,,,,,,,,,,,,,,,,,,,,,,,,,,,,,,,,,,,,,,,,,,,,231.4696891670028,231.48077087500133,None,No response,Images/Speaker1.jpg,Images/Speaker2.jpg,Images/Speaker3.jpg,Images/Speaker4.jpg,Audio/Speaker4_Per/P4-8-Per.wav,Speaker3,گوینده۳,,,,,,,,,,,,,,,,,,,,,,,,,,,,564665,001,2024-06-30_19h06.46.067,5-24,2024.1.4,None,2024-06-30 19h06.51.545495 +0900,
,,,,,,,Images/Speaker1.jpg,Images/Speaker2.jpg,Images/Speaker3.jpg,Images/Speaker4.jpg,Audio/Speaker2_Per/P2-9-Per.wav,Speaker2,گوینده۲,,,,,,,,,,,,,0,56,56,28,,,,,,,,,232.6497048750025,,,,,,,,,,,,,,,,,,,,,,,,,,,,,,,,,,,,,,,,,,,,,,,,,,,,,,,,,,,,,,,,,,,,,,,,,,231.48090954200234,231.49155741700088,None,No response,Images/Speaker1.jpg,Images/Speaker2.jpg,Images/Speaker3.jpg,Images/Speaker4.jpg,Audio/Speaker2_Per/P2-9-Per.wav,Speaker3,گوینده۳,,,,,,,,,,,,,,,,,,,,,,,,,,,,564665,001,2024-06-30_19h06.46.067,5-24,2024.1.4,None,2024-06-30 19h06.51.545495 +0900,
,,,,,,,Images/Speaker1.jpg,Images/Speaker2.jpg,Images/Speaker3.jpg,Images/Speaker4.jpg,Audio/Speaker1_Per/P1-15-Per.wav,Speaker1,گوینده ۱,,,,,,,,,,,,,0,57,57,14,,,,,,,,,232.6497048750025,,,,,,,,,,,,,,,,,,,,,,,,,,,,,,,,,,,,,,,,,,,,,,,,,,,,,,,,,,,,,,,,,,,,,,,,,,231.49170012500326,231.5027805000027,None,No response,Images/Speaker1.jpg,Images/Speaker2.jpg,Images/Speaker3.jpg,Images/Speaker4.jpg,Audio/Speaker1_Per/P1-15-Per.wav,Speaker3,گوینده۳,,,,,,,,,,,,,,,,,,,,,,,,,,,,564665,001,2024-06-30_19h06.46.067,5-24,2024.1.4,None,2024-06-30 19h06.51.545495 +0900,
,,,,,,,Images/Speaker1.jpg,Images/Speaker2.jpg,Images/Speaker3.jpg,Images/Speaker4.jpg,Audio/Speaker4_Per/P4-2-Per.wav,Speaker4,گوینده۴,,,,,,,,,,,,,0,58,58,61,,,,,,,,,232.6497048750025,,,,,,,,,,,,,,,,,,,,,,,,,,,,,,,,,,,,,,,,,,,,,,,,,,,,,,,,,,,,,,,,,,,,,,,,,,231.502922417003,231.51451883400296,None,No response,Images/Speaker1.jpg,Images/Speaker2.jpg,Images/Speaker3.jpg,Images/Speaker4.jpg,Audio/Speaker4_Per/P4-2-Per.wav,Speaker3,گوینده۳,,,,,,,,,,,,,,,,,,,,,,,,,,,,564665,001,2024-06-30_19h06.46.067,5-24,2024.1.4,None,2024-06-30 19h06.51.545495 +0900,
,,,,,,,Images/Speaker1.jpg,Images/Speaker2.jpg,Images/Speaker3.jpg,Images/Speaker4.jpg,Audio/Speaker1_Per/P1-8-Per.wav,Speaker1,گوینده ۱,,,,,,,,,,,,,0,59,59,7,,,,,,,,,232.6497048750025,,,,,,,,,,,,,,,,,,,,,,,,,,,,,,,,,,,,,,,,,,,,,,,,,,,,,,,,,,,,,,,,,,,,,,,,,,231.51465987499978,231.5257270000002,None,No response,Images/Speaker1.jpg,Images/Speaker2.jpg,Images/Speaker3.jpg,Images/Speaker4.jpg,Audio/Speaker1_Per/P1-8-Per.wav,Speaker3,گوینده۳,,,,,,,,,,,,,,,,,,,,,,,,,,,,564665,001,2024-06-30_19h06.46.067,5-24,2024.1.4,None,2024-06-30 19h06.51.545495 +0900,
,,,,,,,Images/Speaker1.jpg,Images/Speaker2.jpg,Images/Speaker3.jpg,Images/Speaker4.jpg,Audio/Speaker3_Per/P3-1-Per.wav,Speaker3,گوینده۳,,,,,,,,,,,,,0,60,60,40,,,,,,,,,232.6497048750025,,,,,,,,,,,,,,,,,,,,,,,,,,,,,,,,,,,,,,,,,,,,,,,,,,,,,,,,,,,,,,,,,,,,,,,,,,231.52586808400156,231.53711566700076,None,No response,Images/Speaker1.jpg,Images/Speaker2.jpg,Images/Speaker3.jpg,Images/Speaker4.jpg,Audio/Speaker3_Per/P3-1-Per.wav,Speaker3,گوینده۳,,,,,,,,,,,,,,,,,,,,,,,,,,,,564665,001,2024-06-30_19h06.46.067,5-24,2024.1.4,None,2024-06-30 19h06.51.545495 +0900,
,,,,,,,Images/Speaker1.jpg,Images/Speaker2.jpg,Images/Speaker3.jpg,Images/Speaker4.jpg,Audio/Speaker4_Per/P4-16-Per.wav,Speaker4,گوینده۴,,,,,,,,,,,,,0,61,61,75,,,,,,,,,232.6497048750025,,,,,,,,,,,,,,,,,,,,,,,,,,,,,,,,,,,,,,,,,,,,,,,,,,,,,,,,,,,,,,,,,,,,,,,,,,231.53725504199974,231.54815658400184,None,No response,Images/Speaker1.jpg,Images/Speaker2.jpg,Images/Speaker3.jpg,Images/Speaker4.jpg,Audio/Speaker4_Per/P4-16-Per.wav,Speaker3,گوینده۳,,,,,,,,,,,,,,,,,,,,,,,,,,,,564665,001,2024-06-30_19h06.46.067,5-24,2024.1.4,None,2024-06-30 19h06.51.545495 +0900,
,,,,,,,Images/Speaker1.jpg,Images/Speaker2.jpg,Images/Speaker3.jpg,Images/Speaker4.jpg,Audio/Speaker4_Per/P4-9-Per.wav,Speaker4,گوینده۴,,,,,,,,,,,,,0,62,62,68,,,,,,,,,232.6497048750025,,,,,,,,,,,,,,,,,,,,,,,,,,,,,,,,,,,,,,,,,,,,,,,,,,,,,,,,,,,,,,,,,,,,,,,,,,231.548296459001,231.55912141700173,None,No response,Images/Speaker1.jpg,Images/Speaker2.jpg,Images/Speaker3.jpg,Images/Speaker4.jpg,Audio/Speaker4_Per/P4-9-Per.wav,Speaker3,گوینده۳,,,,,,,,,,,,,,,,,,,,,,,,,,,,564665,001,2024-06-30_19h06.46.067,5-24,2024.1.4,None,2024-06-30 19h06.51.545495 +0900,
,,,,,,,Images/Speaker1.jpg,Images/Speaker2.jpg,Images/Speaker3.jpg,Images/Speaker4.jpg,Audio/Speaker1_Per/P1-10-Per.wav,Speaker1,گوینده ۱,,,,,,,,,,,,,0,63,63,9,,,,,,,,,232.6497048750025,,,,,,,,,,,,,,,,,,,,,,,,,,,,,,,,,,,,,,,,,,,,,,,,,,,,,,,,,,,,,,,,,,,,,,,,,,231.55925845900128,231.57096837500285,None,No response,Images/Speaker1.jpg,Images/Speaker2.jpg,Images/Speaker3.jpg,Images/Speaker4.jpg,Audio/Speaker1_Per/P1-10-Per.wav,Speaker3,گوینده۳,,,,,,,,,,,,,,,,,,,,,,,,,,,,564665,001,2024-06-30_19h06.46.067,5-24,2024.1.4,None,2024-06-30 19h06.51.545495 +0900,
,,,,,,,Images/Speaker1.jpg,Images/Speaker2.jpg,Images/Speaker3.jpg,Images/Speaker4.jpg,Audio/Speaker2_Per/P2-2-Per.wav,Speaker2,گوینده۲,,,,,,,,,,,,,0,64,64,21,,,,,,,,,232.6497048750025,,,,,,,,,,,,,,,,,,,,,,,,,,,,,,,,,,,,,,,,,,,,,,,,,,,,,,,,,,,,,,,,,,,,,,,,,,231.57110870900215,231.58273812500192,None,No response,Images/Speaker1.jpg,Images/Speaker2.jpg,Images/Speaker3.jpg,Images/Speaker4.jpg,Audio/Speaker2_Per/P2-2-Per.wav,Speaker3,گوینده۳,,,,,,,,,,,,,,,,,,,,,,,,,,,,564665,001,2024-06-30_19h06.46.067,5-24,2024.1.4,None,2024-06-30 19h06.51.545495 +0900,
,,,,,,,Images/Speaker1.jpg,Images/Speaker2.jpg,Images/Speaker3.jpg,Images/Speaker4.jpg,Audio/Speaker3_Per/P3-5-Per.wav,Speaker3,گوینده۳,,,,,,,,,,,,,0,65,65,44,,,,,,,,,232.6497048750025,,,,,,,,,,,,,,,,,,,,,,,,,,,,,,,,,,,,,,,,,,,,,,,,,,,,,,,,,,,,,,,,,,,,,,,,,,231.58287566700164,231.59382670900231,None,No response,Images/Speaker1.jpg,Images/Speaker2.jpg,Images/Speaker3.jpg,Images/Speaker4.jpg,Audio/Speaker3_Per/P3-5-Per.wav,Speaker3,گوینده۳,,,,,,,,,,,,,,,,,,,,,,,,,,,,564665,001,2024-06-30_19h06.46.067,5-24,2024.1.4,None,2024-06-30 19h06.51.545495 +0900,
,,,,,,,Images/Speaker1.jpg,Images/Speaker2.jpg,Images/Speaker3.jpg,Images/Speaker4.jpg,Audio/Speaker1_Per/P1-12-Per.wav,Speaker1,گوینده ۱,,,,,,,,,,,,,0,66,66,11,,,,,,,,,232.6497048750025,,,,,,,,,,,,,,,,,,,,,,,,,,,,,,,,,,,,,,,,,,,,,,,,,,,,,,,,,,,,,,,,,,,,,,,,,,231.59396545900017,231.60457562500233,None,No response,Images/Speaker1.jpg,Images/Speaker2.jpg,Images/Speaker3.jpg,Images/Speaker4.jpg,Audio/Speaker1_Per/P1-12-Per.wav,Speaker3,گوینده۳,,,,,,,,,,,,,,,,,,,,,,,,,,,,564665,001,2024-06-30_19h06.46.067,5-24,2024.1.4,None,2024-06-30 19h06.51.545495 +0900,
,,,,,,,Images/Speaker1.jpg,Images/Speaker2.jpg,Images/Speaker3.jpg,Images/Speaker4.jpg,Audio/Speaker1_Per/P1-4-Per.wav,Speaker1,گوینده ۱,,,,,,,,,,,,,0,67,67,13,,,,,,,,,232.6497048750025,,,,,,,,,,,,,,,,,,,,,,,,,,,,,,,,,,,,,,,,,,,,,,,,,,,,,,,,,,,,,,,,,,,,,,,,,,231.60471741700167,231.6150199170006,None,No response,Images/Speaker1.jpg,Images/Speaker2.jpg,Images/Speaker3.jpg,Images/Speaker4.jpg,Audio/Speaker1_Per/P1-4-Per.wav,Speaker3,گوینده۳,,,,,,,,,,,,,,,,,,,,,,,,,,,,564665,001,2024-06-30_19h06.46.067,5-24,2024.1.4,None,2024-06-30 19h06.51.545495 +0900,
,,,,,,,Images/Speaker1.jpg,Images/Speaker2.jpg,Images/Speaker3.jpg,Images/Speaker4.jpg,Audio/Speaker4_Per/P4-19-Per.wav,Speaker4,گوینده۴,,,,,,,,,,,,,0,68,68,78,,,,,,,,,232.6497048750025,,,,,,,,,,,,,,,,,,,,,,,,,,,,,,,,,,,,,,,,,,,,,,,,,,,,,,,,,,,,,,,,,,,,,,,,,,231.61515533400234,231.62651104200268,None,No response,Images/Speaker1.jpg,Images/Speaker2.jpg,Images/Speaker3.jpg,Images/Speaker4.jpg,Audio/Speaker4_Per/P4-19-Per.wav,Speaker3,گوینده۳,,,,,,,,,,,,,,,,,,,,,,,,,,,,564665,001,2024-06-30_19h06.46.067,5-24,2024.1.4,None,2024-06-30 19h06.51.545495 +0900,
,,,,,,,Images/Speaker1.jpg,Images/Speaker2.jpg,Images/Speaker3.jpg,Images/Speaker4.jpg,Audio/Speaker2_Per/P2-8-Per.wav,Speaker2,گوینده۲,,,,,,,,,,,,,0,69,69,27,,,,,,,,,232.6497048750025,,,,,,,,,,,,,,,,,,,,,,,,,,,,,,,,,,,,,,,,,,,,,,,,,,,,,,,,,,,,,,,,,,,,,,,,,,231.62664658400172,231.63786191700274,None,No response,Images/Speaker1.jpg,Images/Speaker2.jpg,Images/Speaker3.jpg,Images/Speaker4.jpg,Audio/Speaker2_Per/P2-8-Per.wav,Speaker3,گوینده۳,,,,,,,,,,,,,,,,,,,,,,,,,,,,564665,001,2024-06-30_19h06.46.067,5-24,2024.1.4,None,2024-06-30 19h06.51.545495 +0900,
