SpeakerImage1,SpeakerImage2,SpeakerImage3,SpeakerImage4,TrainingSound,EnglishCorrectAnswer,PersianCorrectAnswer,SpeakerPhoto1,SpeakerPhoto2,SpeakerPhoto3,SpeakerPhoto4,TestingSound,EnglishCorrectResponse,PersianCorrectResponse,TrainingLoopGroup1.thisRepN,TrainingLoopGroup1.thisTrialN,TrainingLoopGroup1.thisN,TrainingLoopGroup1.thisIndex,TrainingLoopGroup2.thisRepN,TrainingLoopGroup2.thisTrialN,TrainingLoopGroup2.thisN,TrainingLoopGroup2.thisIndex,repeated_TrainingLoopGroup3.thisRepN,repeated_TrainingLoopGroup3.thisTrialN,repeated_TrainingLoopGroup3.thisN,repeated_TrainingLoopGroup3.thisIndex,TrainingLoopGroup3.thisRepN,TrainingLoopGroup3.thisTrialN,TrainingLoopGroup3.thisN,TrainingLoopGroup3.thisIndex,testPhase1Loop.thisRepN,testPhase1Loop.thisTrialN,testPhase1Loop.thisN,testPhase1Loop.thisIndex,thisRow.t,notes,trial.started,trial.stopped,GroupSelection.started,GroupInstructions.started,key_resp.started,GroupSelection.stopped,key_resp.keys,key_resp.rt,key_resp.duration,Introduction.started,text_2.started,image.started,sound_7.started,text_4.started,text_2.stopped,sound_8.started,image.stopped,text_4.stopped,image_7.started,sound_9.started,text_5.started,sound_10.started,image_7.stopped,text_5.stopped,image_8.started,sound_11.started,text_6.started,sound_12.started,image_8.stopped,text_6.stopped,image_9.started,sound_13.started,text_7.started,sound_14.started,image_9.stopped,text_7.stopped,Introduction.stopped,Instructions.started,InstructionText.started,InstructionText.stopped,Instructions.stopped,InitializeExperiment.started,InitializeExperiment.stopped,TrainingGroup3.started,SpeakerPicture3.started,image_15.started,image_16.started,image_17.started,Sound3.started,Instruction3.started,Response3.started,TrainingGroup3.stopped,feedbackText,correct_responses_group3,total_trials_group3,Response3.keys,Response3.rt,Response3.duration,FeedbackRoutine3.started,FeedbackText3.started,FeedbackText3.stopped,FeedbackRoutine3.stopped,CheckAccuracy3.started,accuracy_group3,proceed_to_test,CheckAccuracy3.stopped,WelcomeTest.started,text_12.started,text_12.stopped,WelcomeTest.stopped,TestPhase1.started,test1_image1.started,test1_image2.started,test1_image3.started,test1_image4.started,test1_sound.started,text_3.started,test1_response_keyboard.started,TestPhase1.stopped,test1_response_keyboard.keys,test1_response_keyboard.rt,test1_response_keyboard.duration,test1_response,test1_image_file1,test1_image_file2,test1_image_file3,test1_image_file4,test1_sound_file,english_correct_answer,persian_correct_answer,participant,session,date,expName,psychopyVersion,frameRate,expStart,
,,,,,,,,,,,,,,,,,,,,,,,,,,,,,,,,,,,,0.010056584000267321,0.010411499999463558,,,,,,,,,,,,,,,,,,,,,,,,,,,,,,,,,,,,,,,,,,,,,,,,,,,,,,,,,,,,,,,,,,,,,,,,,,,,,,,,,,,,,,,,,585383,001,2024-07-01_22h48.46.955,5-27,2024.1.4,None,2024-07-01 22h48.52.577944 +0900,
,,,,,,,,,,,,,,,,,,,,,,,,,,,,,,,,,,,,,,0.010433416999148903,0.015062834001582814,0.015062834001582814,1.5804945419986325,3,1.5298515419999603,None,,,,,,,,,,,,,,,,,,,,,,,,,,,,,,,,,,,,,,,,,,,,,,,,,,,,,,,,,,,,,,,,,,,,,,,,,,,,,,,,,,585383,001,2024-07-01_22h48.46.955,5-27,2024.1.4,None,2024-07-01 22h48.52.577944 +0900,
,,,,,,,,,,,,,,,,,,,,,,,,,,,,,,,,,,,,,,,,,,,,,1.5805248340002436,1.6334406249989115,6.571440042000177,6.581093375665902,6.571440042000177,6.626518708999356,11.58049908366617,16.569805541999813,16.569805541999813,16.569805541999813,16.58170966666536,16.569805541999813,21.585647458665576,26.558095625001442,26.558095625001442,26.578113291998307,26.58979420866696,26.578113291998307,31.58238729166648,36.57463716699931,36.57463716699931,36.57463716699931,36.58629770866561,36.57463716699931,41.580975625667875,46.565226416998485,46.565226416998485,46.56303704200036,,,,,,,,,,,,,,,,,,,,,,,,,,,,,,,,,,,,,,,,,,,,,,,,,,,,,,585383,001,2024-07-01_22h48.46.955,5-27,2024.1.4,None,2024-07-01 22h48.52.577944 +0900,
,,,,,,,,,,,,,,,,,,,,,,,,,,,,,,,,,,,,,,,,,,,,,,,,,,,,,,,,,,,,,,,,,,,,,,,,,46.56305466699996,46.57964725000056,47.66689095900074,47.562346292001166,,,,,,,,,,,,,,,,,,,,,,,,,,,,,,,,,,,,,,,,,,,,,,,,,,585383,001,2024-07-01_22h48.46.955,5-27,2024.1.4,None,2024-07-01 22h48.52.577944 +0900,
,,,,,,,,,,,,,,,,,,,,,,,,,,,,,,,,,,,,,,,,,,,,,,,,,,,,,,,,,,,,,,,,,,,,,,,,,,,,,47.56235966700115,47.56248104200131,,,,,,,,,,,,,,,,,,,,,,,,,,,,,,,,,,,,,,,,,,,,,,,,585383,001,2024-07-01_22h48.46.955,5-27,2024.1.4,None,2024-07-01 22h48.52.577944 +0900,
Images/Speaker1.jpg,Images/Speaker2.jpg,Images/Speaker3.jpg,Images/Speaker4.jpg,Audio/Speaker1_En/P1-11-En.wav,Speaker1,گوینده ۱,,,,,,,,,,,,,,,,0,0,0,30,0,0,0,10,,,,,47.66689095900074,,,,,,,,,,,,,,,,,,,,,,,,,,,,,,,,,,,,,,,,,,,,,47.64319166700079,47.66689095900074,47.66689095900074,47.66689095900074,47.66689095900074,47.66215466700087,47.66689095900074,47.66689095900074,50.247713959000976,Correct! صحیح است,1,1,1,2.577499209000962,None,50.25216441700104,50.26513645899831,52.27012133400058,52.24860429199907,,,,,,,,,,,,,,,,,,,,,,,,,,,,,585383,001,2024-07-01_22h48.46.955,5-27,2024.1.4,None,2024-07-01 22h48.52.577944 +0900,
Images/Speaker1.jpg,Images/Speaker2.jpg,Images/Speaker3.jpg,Images/Speaker4.jpg,Audio/Speaker1_En/P1-12-En.wav,Speaker1,گوینده ۱,,,,,,,,,,,,,,,,0,0,0,30,0,1,1,11,,,,,52.27012133400058,,,,,,,,,,,,,,,,,,,,,,,,,,,,,,,,,,,,,,,,,,,,,52.24878170900047,52.27012133400058,52.27012133400058,52.27012133400058,52.27012133400058,52.26506737566548,52.27012133400058,52.27012133400058,52.48107291699853,Correct! صحیح است,1,1,1,0.20830641700013075,None,52.485269749999134,52.501361083999655,,54.48972162499922,,,,,,,,,,,,,,,,,,,,,,,,,,,,,585383,001,2024-07-01_22h48.46.955,5-27,2024.1.4,None,2024-07-01 22h48.52.577944 +0900,
Images/Speaker1.jpg,Images/Speaker2.jpg,Images/Speaker3.jpg,Images/Speaker4.jpg,Audio/Speaker3_En/P3-10-En.wav,Speaker3,گوینده۳,,,,,,,,,,,,,,,,0,0,0,30,0,2,2,49,,,,,54.51199233399893,,,,,,,,,,,,,,,,,,,,,,,,,,,,,,,,,,,,,,,,,,,,,54.48989733399867,54.51199233399893,54.51199233399893,54.51199233399893,54.51199233399893,54.506351708667594,54.51199233399893,54.51199233399893,54.518600791998324,Incorrect! The correct answer is Speaker3. نادرست! پاسخ صحیح گوینده۳ است,0,1,1,0.004726333001599414,None,54.52242808400115,54.535208042001614,56.54137183399871,56.519067459001235,,,,,,,,,,,,,,,,,,,,,,,,,,,,,585383,001,2024-07-01_22h48.46.955,5-27,2024.1.4,None,2024-07-01 22h48.52.577944 +0900,
Images/Speaker1.jpg,Images/Speaker2.jpg,Images/Speaker3.jpg,Images/Speaker4.jpg,Audio/Speaker3_En/P3-17-En.wav,Speaker3,گوینده۳,,,,,,,,,,,,,,,,0,0,0,30,0,3,3,56,,,,,56.54137183399871,,,,,,,,,,,,,,,,,,,,,,,,,,,,,,,,,,,,,,,,,,,,,56.51924708400111,56.54137183399871,56.54137183399871,56.54137183399871,56.54137183399871,56.535498458666794,56.54137183399871,56.54137183399871,56.61731987500025,Incorrect! The correct answer is Speaker3. نادرست! پاسخ صحیح گوینده۳ است,0,1,1,0.07381066600282793,None,56.62148525000157,56.63511937500152,,58.62915295900166,,,,,,,,,,,,,,,,,,,,,,,,,,,,,585383,001,2024-07-01_22h48.46.955,5-27,2024.1.4,None,2024-07-01 22h48.52.577944 +0900,
Images/Speaker1.jpg,Images/Speaker2.jpg,Images/Speaker3.jpg,Images/Speaker4.jpg,Audio/Speaker2_En/P2-18-En.wav,Speaker2,گوینده۲,,,,,,,,,,,,,,,,0,0,0,30,0,4,4,37,,,,,58.651251041999785,,,,,,,,,,,,,,,,,,,,,,,,,,,,,,,,,,,,,,,,,,,,,58.62931716700041,58.651251041999785,58.651251041999785,58.651251041999785,58.651251041999785,58.64577829166616,58.651251041999785,58.651251041999785,58.651797709000675,Incorrect! The correct answer is Speaker2. نادرست! پاسخ صحیح گوینده۲ است,0,1,1,2.064880333000474,None,58.65588429199852,58.6653428339996,60.677861208998365,60.654090584001096,,,,,,,,,,,,,,,,,,,,,,,,,,,,,585383,001,2024-07-01_22h48.46.955,5-27,2024.1.4,None,2024-07-01 22h48.52.577944 +0900,
Images/Speaker1.jpg,Images/Speaker2.jpg,Images/Speaker3.jpg,Images/Speaker4.jpg,Audio/Speaker2_En/P2-11-En.wav,Speaker2,گوینده۲,,,,,,,,,,,,,,,,0,0,0,30,0,5,5,30,,,,,60.677861208998365,,,,,,,,,,,,,,,,,,,,,,,,,,,,,,,,,,,,,,,,,,,,,60.65494262499851,60.677861208998365,60.677861208998365,60.677861208998365,60.677861208998365,60.6866035423341,60.677861208998365,60.677861208998365,60.73675100000037,Incorrect! The correct answer is Speaker2. نادرست! پاسخ صحیح گوینده۲ است,0,1,1,0.04754266699819709,None,60.74088558400035,60.75347145900014,,62.74647083400123,,,,,,,,,,,,,,,,,,,,,,,,,,,,,585383,001,2024-07-01_22h48.46.955,5-27,2024.1.4,None,2024-07-01 22h48.52.577944 +0900,
Images/Speaker1.jpg,Images/Speaker2.jpg,Images/Speaker3.jpg,Images/Speaker4.jpg,Audio/Speaker4_En/P4-15-En.wav,Speaker4,گوینده۴,,,,,,,,,,,,,,,,0,0,0,30,0,6,6,74,,,,,62.7702333749985,,,,,,,,,,,,,,,,,,,,,,,,,,,,,,,,,,,,,,,,,,,,,62.747191292000934,62.7702333749985,62.7702333749985,62.7702333749985,62.7702333749985,62.779650542332575,62.7702333749985,62.7702333749985,62.77078058400002,Incorrect! The correct answer is Speaker4. نادرست! پاسخ صحیح گوینده۴ است,0,1,1,2.007886999999755,None,62.77122483399944,62.78115020900077,64.79459704200053,64.77199649999966,,,,,,,,,,,,,,,,,,,,,,,,,,,,,585383,001,2024-07-01_22h48.46.955,5-27,2024.1.4,None,2024-07-01 22h48.52.577944 +0900,
Images/Speaker1.jpg,Images/Speaker2.jpg,Images/Speaker3.jpg,Images/Speaker4.jpg,Audio/Speaker4_En/P4-19-En.wav,Speaker4,گوینده۴,,,,,,,,,,,,,,,,0,0,0,30,0,7,7,78,,,,,64.79459704200053,,,,,,,,,,,,,,,,,,,,,,,,,,,,,,,,,,,,,,,,,,,,,64.77255770899865,64.79459704200053,64.79459704200053,64.79459704200053,64.79459704200053,64.80422308333485,64.79459704200053,64.79459704200053,64.79519074999916,Incorrect! The correct answer is Speaker4. نادرست! پاسخ صحیح گوینده۴ است,0,1,1,1.9712738749985874,None,64.7956082089986,64.80576029200165,66.81117391700172,66.79027987500012,,,,,,,,,,,,,,,,,,,,,,,,,,,,,585383,001,2024-07-01_22h48.46.955,5-27,2024.1.4,None,2024-07-01 22h48.52.577944 +0900,
Images/Speaker1.jpg,Images/Speaker2.jpg,Images/Speaker3.jpg,Images/Speaker4.jpg,Audio/Speaker4_En/P4-10-En.wav,Speaker4,گوینده۴,,,,,,,,,,,,,,,,0,0,0,30,0,8,8,69,,,,,66.81117391700172,,,,,,,,,,,,,,,,,,,,,,,,,,,,,,,,,,,,,,,,,,,,,66.7904657500003,66.81117391700172,66.81117391700172,66.81117391700172,66.81117391700172,66.80675220866785,66.81117391700172,66.81117391700172,66.8117704590004,Incorrect! The correct answer is Speaker4. نادرست! پاسخ صحیح گوینده۴ است,0,1,1,1.9704113330008113,None,66.81589683399943,66.8259829589988,68.83776429199861,68.81228512500093,,,,,,,,,,,,,,,,,,,,,,,,,,,,,585383,001,2024-07-01_22h48.46.955,5-27,2024.1.4,None,2024-07-01 22h48.52.577944 +0900,
Images/Speaker1.jpg,Images/Speaker2.jpg,Images/Speaker3.jpg,Images/Speaker4.jpg,Audio/Speaker4_En/P4-3-En.wav,Speaker4,گوینده۴,,,,,,,,,,,,,,,,0,0,0,30,0,9,9,62,,,,,68.83776429199861,,,,,,,,,,,,,,,,,,,,,,,,,,,,,,,,,,,,,,,,,,,,,68.81327895900176,68.83776429199861,68.83776429199861,68.83776429199861,68.83776429199861,68.84469479233351,68.83776429199861,68.83776429199861,68.83831524999914,Incorrect! The correct answer is Speaker4. نادرست! پاسخ صحیح گوینده۴ است,0,1,1,1.9077348749997327,None,68.83875708399864,68.84844149999844,,70.83917049999945,,,,,,,,,,,,,,,,,,,,,,,,,,,,,585383,001,2024-07-01_22h48.46.955,5-27,2024.1.4,None,2024-07-01 22h48.52.577944 +0900,
Images/Speaker1.jpg,Images/Speaker2.jpg,Images/Speaker3.jpg,Images/Speaker4.jpg,Audio/Speaker2_En/P2-6-En.wav,Speaker2,گوینده۲,,,,,,,,,,,,,,,,0,0,0,30,0,10,10,25,,,,,70.86325804200169,,,,,,,,,,,,,,,,,,,,,,,,,,,,,,,,,,,,,,,,,,,,,70.83977512500132,70.86325804200169,70.86325804200169,70.86325804200169,70.86325804200169,70.8722818753345,70.86325804200169,70.86325804200169,70.86377104200074,Incorrect! The correct answer is Speaker2. نادرست! پاسخ صحیح گوینده۲ است,0,1,1,1.7549252919998253,None,70.86404429200047,70.87424345899854,72.88667591700141,72.86248816700027,,,,,,,,,,,,,,,,,,,,,,,,,,,,,585383,001,2024-07-01_22h48.46.955,5-27,2024.1.4,None,2024-07-01 22h48.52.577944 +0900,
Images/Speaker1.jpg,Images/Speaker2.jpg,Images/Speaker3.jpg,Images/Speaker4.jpg,Audio/Speaker4_En/P4-7-En.wav,Speaker4,گوینده۴,,,,,,,,,,,,,,,,0,0,0,30,0,11,11,66,,,,,72.88667591700141,,,,,,,,,,,,,,,,,,,,,,,,,,,,,,,,,,,,,,,,,,,,,72.86266695900122,72.88667591700141,72.88667591700141,72.88667591700141,72.88667591700141,72.89563908333415,72.88667591700141,72.88667591700141,72.8872005000012,Incorrect! The correct answer is Speaker4. نادرست! پاسخ صحیح گوینده۴ است,0,1,1,1.7897362500007148,None,72.8874805000014,72.8978365840012,,74.88821083400035,,,,,,,,,,,,,,,,,,,,,,,,,,,,,585383,001,2024-07-01_22h48.46.955,5-27,2024.1.4,None,2024-07-01 22h48.52.577944 +0900,
Images/Speaker1.jpg,Images/Speaker2.jpg,Images/Speaker3.jpg,Images/Speaker4.jpg,Audio/Speaker3_En/P3-1-En.wav,Speaker3,گوینده۳,,,,,,,,,,,,,,,,0,0,0,30,0,12,12,40,,,,,74.90988570899935,,,,,,,,,,,,,,,,,,,,,,,,,,,,,,,,,,,,,,,,,,,,,74.88836966700183,74.90988570899935,74.90988570899935,74.90988570899935,74.90988570899935,74.90483779166631,74.90988570899935,74.90988570899935,74.91042412499883,Incorrect! The correct answer is Speaker3. نادرست! پاسخ صحیح گوینده۳ است,0,1,1,1.8007073340013449,None,74.91469445899929,74.92445683400001,76.92851412500022,76.90753433400096,,,,,,,,,,,,,,,,,,,,,,,,,,,,,585383,001,2024-07-01_22h48.46.955,5-27,2024.1.4,None,2024-07-01 22h48.52.577944 +0900,
Images/Speaker1.jpg,Images/Speaker2.jpg,Images/Speaker3.jpg,Images/Speaker4.jpg,Audio/Speaker3_En/P3-16-En.wav,Speaker3,گوینده۳,,,,,,,,,,,,,,,,0,0,0,30,0,13,13,55,,,,,76.92851412500022,,,,,,,,,,,,,,,,,,,,,,,,,,,,,,,,,,,,,,,,,,,,,76.90773550000085,76.92851412500022,76.92851412500022,76.92851412500022,76.92851412500022,76.92398629166588,76.92851412500022,76.92851412500022,76.97834520900142,Incorrect! The correct answer is Speaker3. نادرست! پاسخ صحیح گوینده۳ است,0,1,1,0.048327542001061374,None,76.9825442500005,76.99597274999905,,78.98718333400029,,,,,,,,,,,,,,,,,,,,,,,,,,,,,585383,001,2024-07-01_22h48.46.955,5-27,2024.1.4,None,2024-07-01 22h48.52.577944 +0900,
Images/Speaker1.jpg,Images/Speaker2.jpg,Images/Speaker3.jpg,Images/Speaker4.jpg,Audio/Speaker2_En/P2-10-En.wav,Speaker2,گوینده۲,,,,,,,,,,,,,,,,0,0,0,30,0,14,14,29,,,,,79.00883483399957,,,,,,,,,,,,,,,,,,,,,,,,,,,,,,,,,,,,,,,,,,,,,78.98735712499911,79.00883483399957,79.00883483399957,79.00883483399957,79.00883483399957,79.00381633366511,79.00883483399957,79.00883483399957,79.00934629200128,Incorrect! The correct answer is Speaker2. نادرست! پاسخ صحیح گوینده۲ است,0,1,1,1.9076121670004795,None,79.01345454200055,79.02291512499869,81.02930058399943,81.00768949999838,,,,,,,,,,,,,,,,,,,,,,,,,,,,,585383,001,2024-07-01_22h48.46.955,5-27,2024.1.4,None,2024-07-01 22h48.52.577944 +0900,
Images/Speaker1.jpg,Images/Speaker2.jpg,Images/Speaker3.jpg,Images/Speaker4.jpg,Audio/Speaker1_En/P1-6-En.wav,Speaker1,گوینده ۱,,,,,,,,,,,,,,,,0,0,0,30,0,15,15,5,,,,,81.02930058399943,,,,,,,,,,,,,,,,,,,,,,,,,,,,,,,,,,,,,,,,,,,,,81.00786583399895,81.02930058399943,81.02930058399943,81.02930058399943,81.02930058399943,81.02414162566517,81.02930058399943,81.02930058399943,81.0298740420003,Correct! صحیح است,1,1,1,1.9057207080004446,None,81.03408429200135,81.04246595899895,83.05366812500142,83.03195741699892,,,,,,,,,,,,,,,,,,,,,,,,,,,,,585383,001,2024-07-01_22h48.46.955,5-27,2024.1.4,None,2024-07-01 22h48.52.577944 +0900,
Images/Speaker1.jpg,Images/Speaker2.jpg,Images/Speaker3.jpg,Images/Speaker4.jpg,Audio/Speaker3_En/P3-5-En.wav,Speaker3,گوینده۳,,,,,,,,,,,,,,,,0,0,0,30,0,16,16,44,,,,,83.05366812500142,,,,,,,,,,,,,,,,,,,,,,,,,,,,,,,,,,,,,,,,,,,,,83.03215316700152,83.05366812500142,83.05366812500142,83.05366812500142,83.05366812500142,83.04839333366569,83.05366812500142,83.05366812500142,83.05422191699836,Incorrect! The correct answer is Speaker3. نادرست! پاسخ صحیح گوینده۳ است,0,1,1,1.958527334001701,None,83.05817229199965,83.06850270900031,85.07520195899997,85.0525352500008,,,,,,,,,,,,,,,,,,,,,,,,,,,,,585383,001,2024-07-01_22h48.46.955,5-27,2024.1.4,None,2024-07-01 22h48.52.577944 +0900,
Images/Speaker1.jpg,Images/Speaker2.jpg,Images/Speaker3.jpg,Images/Speaker4.jpg,Audio/Speaker3_En/P3-14-En.wav,Speaker3,گوینده۳,,,,,,,,,,,,,,,,0,0,0,30,0,17,17,53,,,,,85.07520195899997,,,,,,,,,,,,,,,,,,,,,,,,,,,,,,,,,,,,,,,,,,,,,85.05269962500097,85.07520195899997,85.07520195899997,85.07520195899997,85.07520195899997,85.06893845866604,85.07520195899997,85.07520195899997,85.07578995899894,Incorrect! The correct answer is Speaker3. نادرست! پاسخ صحیح گوینده۳ است,0,1,1,1.9543301669982611,None,85.08004958400124,85.08959474999938,,87.08067579199997,,,,,,,,,,,,,,,,,,,,,,,,,,,,,585383,001,2024-07-01_22h48.46.955,5-27,2024.1.4,None,2024-07-01 22h48.52.577944 +0900,
Images/Speaker1.jpg,Images/Speaker2.jpg,Images/Speaker3.jpg,Images/Speaker4.jpg,Audio/Speaker1_En/P1-5-En.wav,Speaker1,گوینده ۱,,,,,,,,,,,,,,,,0,0,0,30,0,18,18,4,,,,,87.10776570899907,,,,,,,,,,,,,,,,,,,,,,,,,,,,,,,,,,,,,,,,,,,,,87.08138595900164,87.10776570899907,87.10776570899907,87.10776570899907,87.10776570899907,87.11379395833185,87.10776570899907,87.10776570899907,87.10840229200039,Correct! صحیح است,1,1,1,2.0150450410001213,None,87.10882516700076,87.11749575000067,,89.11217666700031,,,,,,,,,,,,,,,,,,,,,,,,,,,,,585383,001,2024-07-01_22h48.46.955,5-27,2024.1.4,None,2024-07-01 22h48.52.577944 +0900,
Images/Speaker1.jpg,Images/Speaker2.jpg,Images/Speaker3.jpg,Images/Speaker4.jpg,Audio/Speaker4_En/P4-13-En.wav,Speaker4,گوینده۴,,,,,,,,,,,,,,,,0,0,0,30,0,19,19,72,,,,,89.13509308400171,,,,,,,,,,,,,,,,,,,,,,,,,,,,,,,,,,,,,,,,,,,,,89.11269012499906,89.13509308400171,89.13509308400171,89.13509308400171,89.13509308400171,89.12870912566747,89.13509308400171,89.13509308400171,89.16513587499867,Incorrect! The correct answer is Speaker4. نادرست! پاسخ صحیح گوینده۴ است,0,1,1,0.022388042001693975,None,89.16918120899936,89.17995058399902,91.18670645900056,91.16515462499956,,,,,,,,,,,,,,,,,,,,,,,,,,,,,585383,001,2024-07-01_22h48.46.955,5-27,2024.1.4,None,2024-07-01 22h48.52.577944 +0900,
Images/Speaker1.jpg,Images/Speaker2.jpg,Images/Speaker3.jpg,Images/Speaker4.jpg,Audio/Speaker3_En/P3-6-En.wav,Speaker3,گوینده۳,,,,,,,,,,,,,,,,0,0,0,30,0,20,20,45,,,,,91.18670645900056,,,,,,,,,,,,,,,,,,,,,,,,,,,,,,,,,,,,,,,,,,,,,91.16534379199948,91.18670645900056,91.18670645900056,91.18670645900056,91.18670645900056,91.1814927086673,91.18670645900056,91.18670645900056,91.21438154199859,Incorrect! The correct answer is Speaker3. نادرست! پاسخ صحیح گوینده۳ است,0,1,1,0.01983716700124205,None,91.21822683400023,91.23085879200153,93.23856333400181,93.21687920900149,,,,,,,,,,,,,,,,,,,,,,,,,,,,,585383,001,2024-07-01_22h48.46.955,5-27,2024.1.4,None,2024-07-01 22h48.52.577944 +0900,
Images/Speaker1.jpg,Images/Speaker2.jpg,Images/Speaker3.jpg,Images/Speaker4.jpg,Audio/Speaker3_En/P3-13-En.wav,Speaker3,گوینده۳,,,,,,,,,,,,,,,,0,0,0,30,0,21,21,52,,,,,93.23856333400181,,,,,,,,,,,,,,,,,,,,,,,,,,,,,,,,,,,,,,,,,,,,,93.21706158400048,93.23856333400181,93.23856333400181,93.23856333400181,93.23856333400181,93.23327308366812,93.23856333400181,93.23856333400181,93.23911195899927,Incorrect! The correct answer is Speaker3. نادرست! پاسخ صحیح گوینده۳ است,0,1,1,1.732302708998759,None,93.24291033400004,93.2532883749991,95.26308900000004,95.24157045899847,,,,,,,,,,,,,,,,,,,,,,,,,,,,,585383,001,2024-07-01_22h48.46.955,5-27,2024.1.4,None,2024-07-01 22h48.52.577944 +0900,
Images/Speaker1.jpg,Images/Speaker2.jpg,Images/Speaker3.jpg,Images/Speaker4.jpg,Audio/Speaker2_En/P2-15-En.wav,Speaker2,گوینده۲,,,,,,,,,,,,,,,,0,0,0,30,0,22,22,34,,,,,95.26308900000004,,,,,,,,,,,,,,,,,,,,,,,,,,,,,,,,,,,,,,,,,,,,,95.2417369169998,95.26308900000004,95.26308900000004,95.26308900000004,95.26308900000004,95.25785591666524,95.26308900000004,95.26308900000004,95.26370674999998,Incorrect! The correct answer is Speaker2. نادرست! پاسخ صحیح گوینده۲ است,0,1,1,1.8265375830014818,None,95.26759591700102,95.27720362499895,97.28860374999931,97.26149895900016,,,,,,,,,,,,,,,,,,,,,,,,,,,,,585383,001,2024-07-01_22h48.46.955,5-27,2024.1.4,None,2024-07-01 22h48.52.577944 +0900,
Images/Speaker1.jpg,Images/Speaker2.jpg,Images/Speaker3.jpg,Images/Speaker4.jpg,Audio/Speaker4_En/P4-18-En.wav,Speaker4,گوینده۴,,,,,,,,,,,,,,,,0,0,0,30,0,23,23,77,,,,,97.28860374999931,,,,,,,,,,,,,,,,,,,,,,,,,,,,,,,,,,,,,,,,,,,,,97.26250258399887,97.28860374999931,97.28860374999931,97.28860374999931,97.28860374999931,97.29389087533175,97.28860374999931,97.28860374999931,97.34247062500071,Incorrect! The correct answer is Speaker4. نادرست! پاسخ صحیح گوینده۴ است,0,1,1,0.048934540998743614,None,97.34671520900156,97.35956908400112,99.36545612500049,99.34428012499848,,,,,,,,,,,,,,,,,,,,,,,,,,,,,585383,001,2024-07-01_22h48.46.955,5-27,2024.1.4,None,2024-07-01 22h48.52.577944 +0900,
Images/Speaker1.jpg,Images/Speaker2.jpg,Images/Speaker3.jpg,Images/Speaker4.jpg,Audio/Speaker2_En/P2-19-En.wav,Speaker2,گوینده۲,,,,,,,,,,,,,,,,0,0,0,30,0,24,24,38,,,,,99.36545612500049,,,,,,,,,,,,,,,,,,,,,,,,,,,,,,,,,,,,,,,,,,,,,99.34446770900104,99.36545612500049,99.36545612500049,99.36545612500049,99.36545612500049,99.36074045866577,99.36545612500049,99.36545612500049,99.59144420899975,Incorrect! The correct answer is Speaker2. نادرست! پاسخ صحیح گوینده۲ است,0,1,1,0.21922633299982408,None,99.59512504200029,99.6071406250012,,101.60262262499964,,,,,,,,,,,,,,,,,,,,,,,,,,,,,585383,001,2024-07-01_22h48.46.955,5-27,2024.1.4,None,2024-07-01 22h48.52.577944 +0900,
Images/Speaker1.jpg,Images/Speaker2.jpg,Images/Speaker3.jpg,Images/Speaker4.jpg,Audio/Speaker2_En/P2-2-En.wav,Speaker2,گوینده۲,,,,,,,,,,,,,,,,0,0,0,30,0,25,25,21,,,,,101.62493774999894,,,,,,,,,,,,,,,,,,,,,,,,,,,,,,,,,,,,,,,,,,,,,101.60282904199994,101.62493774999894,101.62493774999894,101.62493774999894,101.62493774999894,101.6192533336655,101.62493774999894,101.62493774999894,101.62545500000124,Incorrect! The correct answer is Speaker2. نادرست! پاسخ صحیح گوینده۲ است,0,1,1,2.1546164579995093,None,101.62918541700128,101.63898675000019,103.64332125000146,103.62291454200022,,,,,,,,,,,,,,,,,,,,,,,,,,,,,585383,001,2024-07-01_22h48.46.955,5-27,2024.1.4,None,2024-07-01 22h48.52.577944 +0900,
Images/Speaker1.jpg,Images/Speaker2.jpg,Images/Speaker3.jpg,Images/Speaker4.jpg,Audio/Speaker1_En/P1-9-En.wav,Speaker1,گوینده ۱,,,,,,,,,,,,,,,,0,0,0,30,0,26,26,8,,,,,103.64332125000146,,,,,,,,,,,,,,,,,,,,,,,,,,,,,,,,,,,,,,,,,,,,,103.62307375000091,103.64332125000146,103.64332125000146,103.64332125000146,103.64332125000146,103.63934150066804,103.64332125000146,103.64332125000146,103.79604270900018,Correct! صحیح است,1,1,1,0.1495643749985902,None,103.8001515420001,103.8114315419989,105.81483737500093,105.79424366700187,,,,,,,,,,,,,,,,,,,,,,,,,,,,,585383,001,2024-07-01_22h48.46.955,5-27,2024.1.4,None,2024-07-01 22h48.52.577944 +0900,
Images/Speaker1.jpg,Images/Speaker2.jpg,Images/Speaker3.jpg,Images/Speaker4.jpg,Audio/Speaker4_En/P4-17-En.wav,Speaker4,گوینده۴,,,,,,,,,,,,,,,,0,0,0,30,0,27,27,76,,,,,105.81483737500093,,,,,,,,,,,,,,,,,,,,,,,,,,,,,,,,,,,,,,,,,,,,,105.79440879200047,105.81483737500093,105.81483737500093,105.81483737500093,105.81483737500093,105.81071516666658,105.81483737500093,105.81483737500093,105.91538970900001,Incorrect! The correct answer is Speaker4. نادرست! پاسخ صحیح گوینده۴ است,0,1,1,0.09683299999960582,None,105.91928787500001,105.93234241699975,107.93890725000165,107.91826958399906,,,,,,,,,,,,,,,,,,,,,,,,,,,,,585383,001,2024-07-01_22h48.46.955,5-27,2024.1.4,None,2024-07-01 22h48.52.577944 +0900,
Images/Speaker1.jpg,Images/Speaker2.jpg,Images/Speaker3.jpg,Images/Speaker4.jpg,Audio/Speaker3_En/P3-12-En.wav,Speaker3,گوینده۳,,,,,,,,,,,,,,,,0,0,0,30,0,28,28,51,,,,,107.93890725000165,,,,,,,,,,,,,,,,,,,,,,,,,,,,,,,,,,,,,,,,,,,,,107.91843566700118,107.93890725000165,107.93890725000165,107.93890725000165,107.93890725000165,107.93468712566779,107.93890725000165,107.93890725000165,107.99318150000181,Incorrect! The correct answer is Speaker3. نادرست! پاسخ صحیح گوینده۳ است,0,1,1,0.05118399999992107,None,107.99734024999998,108.00962083400009,110.01598483400085,109.99438441700113,,,,,,,,,,,,,,,,,,,,,,,,,,,,,585383,001,2024-07-01_22h48.46.955,5-27,2024.1.4,None,2024-07-01 22h48.52.577944 +0900,
Images/Speaker1.jpg,Images/Speaker2.jpg,Images/Speaker3.jpg,Images/Speaker4.jpg,Audio/Speaker2_En/P2-12-En.wav,Speaker2,گوینده۲,,,,,,,,,,,,,,,,0,0,0,30,0,29,29,31,,,,,110.01598483400085,,,,,,,,,,,,,,,,,,,,,,,,,,,,,,,,,,,,,,,,,,,,,109.99456054199982,110.01598483400085,110.01598483400085,110.01598483400085,110.01598483400085,110.01077141666634,110.01598483400085,110.01598483400085,110.01656195900068,Incorrect! The correct answer is Speaker2. نادرست! پاسخ صحیح گوینده۲ است,0,1,1,2.0058922919997713,None,110.02046483400045,110.0298810839995,112.03806570899906,112.01605349999954,,,,,,,,,,,,,,,,,,,,,,,,,,,,,585383,001,2024-07-01_22h48.46.955,5-27,2024.1.4,None,2024-07-01 22h48.52.577944 +0900,
Images/Speaker1.jpg,Images/Speaker2.jpg,Images/Speaker3.jpg,Images/Speaker4.jpg,Audio/Speaker3_En/P3-8-En.wav,Speaker3,گوینده۳,,,,,,,,,,,,,,,,0,0,0,30,0,30,30,47,,,,,112.03806570899906,,,,,,,,,,,,,,,,,,,,,,,,,,,,,,,,,,,,,,,,,,,,,112.01622870899882,112.03806570899906,112.03806570899906,112.03806570899906,112.03806570899906,112.03242854166844,112.03806570899906,112.03806570899906,112.03864141699887,Incorrect! The correct answer is Speaker3. نادرست! پاسخ صحیح گوینده۳ است,0,1,1,1.867161207999743,None,112.04268529199908,112.052514084,,114.04328470900145,,,,,,,,,,,,,,,,,,,,,,,,,,,,,585383,001,2024-07-01_22h48.46.955,5-27,2024.1.4,None,2024-07-01 22h48.52.577944 +0900,
Images/Speaker1.jpg,Images/Speaker2.jpg,Images/Speaker3.jpg,Images/Speaker4.jpg,Audio/Speaker4_En/P4-6-En.wav,Speaker4,گوینده۴,,,,,,,,,,,,,,,,0,0,0,30,0,31,31,65,,,,,114.06401716699838,,,,,,,,,,,,,,,,,,,,,,,,,,,,,,,,,,,,,,,,,,,,,114.04352508399825,114.06401716699838,114.06401716699838,114.06401716699838,114.06401716699838,114.05990770866653,114.06401716699838,114.06401716699838,114.06460275000063,Incorrect! The correct answer is Speaker4. نادرست! پاسخ صحیح گوینده۴ است,0,1,1,1.9658101669992902,None,114.0683014999995,114.07868658400184,116.09106562500165,116.06912304200159,,,,,,,,,,,,,,,,,,,,,,,,,,,,,585383,001,2024-07-01_22h48.46.955,5-27,2024.1.4,None,2024-07-01 22h48.52.577944 +0900,
Images/Speaker1.jpg,Images/Speaker2.jpg,Images/Speaker3.jpg,Images/Speaker4.jpg,Audio/Speaker1_En/P1-17-En.wav,Speaker1,گوینده ۱,,,,,,,,,,,,,,,,0,0,0,30,0,32,32,16,,,,,116.09106562500165,,,,,,,,,,,,,,,,,,,,,,,,,,,,,,,,,,,,,,,,,,,,,116.06999424999958,116.09106562500165,116.09106562500165,116.09106562500165,116.09106562500165,116.08481287566634,116.09106562500165,116.09106562500165,116.11823662499955,Correct! صحیح است,1,1,1,0.017325791999610374,None,116.1224080840002,116.13263762499992,,118.1249474590004,,,,,,,,,,,,,,,,,,,,,,,,,,,,,585383,001,2024-07-01_22h48.46.955,5-27,2024.1.4,None,2024-07-01 22h48.52.577944 +0900,
Images/Speaker1.jpg,Images/Speaker2.jpg,Images/Speaker3.jpg,Images/Speaker4.jpg,Audio/Speaker3_En/P3-18-En.wav,Speaker3,گوینده۳,,,,,,,,,,,,,,,,0,0,0,30,0,33,33,57,,,,,118.14561620899985,,,,,,,,,,,,,,,,,,,,,,,,,,,,,,,,,,,,,,,,,,,,,118.12512891699953,118.14561620899985,118.14561620899985,118.14561620899985,118.14561620899985,118.14157641666704,118.14561620899985,118.14561620899985,118.25085945899991,Incorrect! The correct answer is Speaker3. نادرست! پاسخ صحیح گوینده۳ است,0,1,1,0.09570199999870965,None,118.25459991699972,118.26717462500164,,120.25937979200171,,,,,,,,,,,,,,,,,,,,,,,,,,,,,585383,001,2024-07-01_22h48.46.955,5-27,2024.1.4,None,2024-07-01 22h48.52.577944 +0900,
Images/Speaker1.jpg,Images/Speaker2.jpg,Images/Speaker3.jpg,Images/Speaker4.jpg,Audio/Speaker1_En/P1-16-En.wav,Speaker1,گوینده ۱,,,,,,,,,,,,,,,,0,0,0,30,0,34,34,15,,,,,120.28214870900047,,,,,,,,,,,,,,,,,,,,,,,,,,,,,,,,,,,,,,,,,,,,,120.2599860420014,120.28214870900047,120.28214870900047,120.28214870900047,120.28214870900047,120.27583654166689,120.28214870900047,120.28214870900047,120.33610150000095,Correct! صحیح است,1,1,1,0.052917375000106404,None,120.3399114169988,120.35065887499877,122.3575022920013,122.3359634590015,,,,,,,,,,,,,,,,,,,,,,,,,,,,,585383,001,2024-07-01_22h48.46.955,5-27,2024.1.4,None,2024-07-01 22h48.52.577944 +0900,
Images/Speaker1.jpg,Images/Speaker2.jpg,Images/Speaker3.jpg,Images/Speaker4.jpg,Audio/Speaker2_En/P2-14-En.wav,Speaker2,گوینده۲,,,,,,,,,,,,,,,,0,0,0,30,0,35,35,33,,,,,122.3575022920013,,,,,,,,,,,,,,,,,,,,,,,,,,,,,,,,,,,,,,,,,,,,,122.33615670899962,122.3575022920013,122.3575022920013,122.3575022920013,122.3575022920013,122.3524161666685,122.3575022920013,122.3575022920013,122.37023404199863,Incorrect! The correct answer is Speaker2. نادرست! پاسخ صحیح گوینده۲ است,0,1,1,0.01073716600149055,None,122.37401145900003,122.38690508400032,,124.37511958400137,,,,,,,,,,,,,,,,,,,,,,,,,,,,,585383,001,2024-07-01_22h48.46.955,5-27,2024.1.4,None,2024-07-01 22h48.52.577944 +0900,
Images/Speaker1.jpg,Images/Speaker2.jpg,Images/Speaker3.jpg,Images/Speaker4.jpg,Audio/Speaker2_En/P2-3-En.wav,Speaker2,گوینده۲,,,,,,,,,,,,,,,,0,0,0,30,0,36,36,22,,,,,124.39799175000007,,,,,,,,,,,,,,,,,,,,,,,,,,,,,,,,,,,,,,,,,,,,,124.37575670899969,124.39799175000007,124.39799175000007,124.39799175000007,124.39799175000007,124.39165245866776,124.39799175000007,124.39799175000007,124.55914770899835,Incorrect! The correct answer is Speaker2. نادرست! پاسخ صحیح گوینده۲ است,0,1,1,0.1557928330003051,None,124.56306979199871,124.57615174999955,,126.56752620900079,,,,,,,,,,,,,,,,,,,,,,,,,,,,,585383,001,2024-07-01_22h48.46.955,5-27,2024.1.4,None,2024-07-01 22h48.52.577944 +0900,
Images/Speaker1.jpg,Images/Speaker2.jpg,Images/Speaker3.jpg,Images/Speaker4.jpg,Audio/Speaker4_En/P4-16-En.wav,Speaker4,گوینده۴,,,,,,,,,,,,,,,,0,0,0,30,0,37,37,75,,,,,126.59456066699931,,,,,,,,,,,,,,,,,,,,,,,,,,,,,,,,,,,,,,,,,,,,,126.56805808400168,126.59456066699931,126.59456066699931,126.59456066699931,126.59456066699931,126.60066237533513,126.59456066699931,126.59456066699931,126.5951664589993,Incorrect! The correct answer is Speaker4. نادرست! پاسخ صحیح گوینده۴ است,0,1,1,2.178187292000075,None,126.59557462500015,126.60545412500142,128.61094504200082,128.58928599999854,,,,,,,,,,,,,,,,,,,,,,,,,,,,,585383,001,2024-07-01_22h48.46.955,5-27,2024.1.4,None,2024-07-01 22h48.52.577944 +0900,
Images/Speaker1.jpg,Images/Speaker2.jpg,Images/Speaker3.jpg,Images/Speaker4.jpg,Audio/Speaker3_En/P3-7-En.wav,Speaker3,گوینده۳,,,,,,,,,,,,,,,,0,0,0,30,0,38,38,46,,,,,128.61094504200082,,,,,,,,,,,,,,,,,,,,,,,,,,,,,,,,,,,,,,,,,,,,,128.58949149999899,128.61094504200082,128.61094504200082,128.61094504200082,128.61094504200082,128.60572508366775,128.61094504200082,128.61094504200082,128.73229645899846,Incorrect! The correct answer is Speaker3. نادرست! پاسخ صحیح گوینده۳ است,0,1,1,0.11670016600328381,None,128.73649008400025,128.74879870899895,130.76227274999837,130.73520895899856,,,,,,,,,,,,,,,,,,,,,,,,,,,,,585383,001,2024-07-01_22h48.46.955,5-27,2024.1.4,None,2024-07-01 22h48.52.577944 +0900,
Images/Speaker1.jpg,Images/Speaker2.jpg,Images/Speaker3.jpg,Images/Speaker4.jpg,Audio/Speaker1_En/P1-15-En.wav,Speaker1,گوینده ۱,,,,,,,,,,,,,,,,0,0,0,30,0,39,39,14,,,,,130.76227274999837,,,,,,,,,,,,,,,,,,,,,,,,,,,,,,,,,,,,,,,,,,,,,130.73593520899885,130.76227274999837,130.76227274999837,130.76227274999837,130.76227274999837,130.76758816733178,130.76227274999837,130.76227274999837,130.9241846670011,Correct! صحیح است,1,1,1,0.15822804199706297,None,130.92809549999947,130.93928466700163,132.94587495900123,132.92280604199914,,,,,,,,,,,,,,,,,,,,,,,,,,,,,585383,001,2024-07-01_22h48.46.955,5-27,2024.1.4,None,2024-07-01 22h48.52.577944 +0900,
Images/Speaker1.jpg,Images/Speaker2.jpg,Images/Speaker3.jpg,Images/Speaker4.jpg,Audio/Speaker4_En/P4-1-En.wav,Speaker4,گوینده۴,,,,,,,,,,,,,,,,0,0,0,30,0,40,40,60,,,,,132.94587495900123,,,,,,,,,,,,,,,,,,,,,,,,,,,,,,,,,,,,,,,,,,,,,132.92297183399933,132.94587495900123,132.94587495900123,132.94587495900123,132.94587495900123,132.95592679233283,132.94587495900123,132.94587495900123,132.9464367920009,Incorrect! The correct answer is Speaker4. نادرست! پاسخ صحیح گوینده۴ است,0,1,1,1.9402112499992654,None,132.94682095900134,132.95656570899882,134.96381970899893,134.9422175840009,,,,,,,,,,,,,,,,,,,,,,,,,,,,,585383,001,2024-07-01_22h48.46.955,5-27,2024.1.4,None,2024-07-01 22h48.52.577944 +0900,
Images/Speaker1.jpg,Images/Speaker2.jpg,Images/Speaker3.jpg,Images/Speaker4.jpg,Audio/Speaker2_En/P2-5-En.wav,Speaker2,گوینده۲,,,,,,,,,,,,,,,,0,0,0,30,0,41,41,24,,,,,134.96381970899893,,,,,,,,,,,,,,,,,,,,,,,,,,,,,,,,,,,,,,,,,,,,,134.9426720420015,134.96381970899893,134.96381970899893,134.96381970899893,134.96381970899893,134.9586353756679,134.96381970899893,134.96381970899893,134.96435208399998,Incorrect! The correct answer is Speaker2. نادرست! پاسخ صحیح گوینده۲ است,0,1,1,1.7980399579973891,None,134.96840695900028,134.97894587499832,,136.96932220899907,,,,,,,,,,,,,,,,,,,,,,,,,,,,,585383,001,2024-07-01_22h48.46.955,5-27,2024.1.4,None,2024-07-01 22h48.52.577944 +0900,
Images/Speaker1.jpg,Images/Speaker2.jpg,Images/Speaker3.jpg,Images/Speaker4.jpg,Audio/Speaker4_En/P4-5-En.wav,Speaker4,گوینده۴,,,,,,,,,,,,,,,,0,0,0,30,0,42,42,64,,,,,136.99522129199977,,,,,,,,,,,,,,,,,,,,,,,,,,,,,,,,,,,,,,,,,,,,,136.9700682920011,136.99522129199977,136.99522129199977,136.99522129199977,136.99522129199977,137.00247725033165,136.99522129199977,136.99522129199977,136.99580375000005,Incorrect! The correct answer is Speaker4. نادرست! پاسخ صحیح گوینده۴ است,0,1,1,1.9476275000015448,None,136.99622754200027,137.00588170899937,,139.00191416700181,,,,,,,,,,,,,,,,,,,,,,,,,,,,,585383,001,2024-07-01_22h48.46.955,5-27,2024.1.4,None,2024-07-01 22h48.52.577944 +0900,
Images/Speaker1.jpg,Images/Speaker2.jpg,Images/Speaker3.jpg,Images/Speaker4.jpg,Audio/Speaker4_En/P4-11-En.wav,Speaker4,گوینده۴,,,,,,,,,,,,,,,,0,0,0,30,0,43,43,70,,,,,139.02341549999983,,,,,,,,,,,,,,,,,,,,,,,,,,,,,,,,,,,,,,,,,,,,,139.00208741700044,139.02341549999983,139.02341549999983,139.02341549999983,139.02341549999983,139.0185489586659,139.02341549999983,139.02341549999983,139.06545716699839,Incorrect! The correct answer is Speaker4. نادرست! پاسخ صحیح گوینده۴ است,0,1,1,0.03471266700216802,None,139.0693864169989,139.08162741699925,141.08755725000083,141.06630558400138,,,,,,,,,,,,,,,,,,,,,,,,,,,,,585383,001,2024-07-01_22h48.46.955,5-27,2024.1.4,None,2024-07-01 22h48.52.577944 +0900,
Images/Speaker1.jpg,Images/Speaker2.jpg,Images/Speaker3.jpg,Images/Speaker4.jpg,Audio/Speaker3_En/P3-20-En.wav,Speaker3,گوینده۳,,,,,,,,,,,,,,,,0,0,0,30,0,44,44,59,,,,,141.08755725000083,,,,,,,,,,,,,,,,,,,,,,,,,,,,,,,,,,,,,,,,,,,,,141.0664883339996,141.08755725000083,141.08755725000083,141.08755725000083,141.08755725000083,141.0827310836651,141.08755725000083,141.08755725000083,141.08817216700118,Incorrect! The correct answer is Speaker3. نادرست! پاسخ صحیح گوینده۳ است,0,1,1,2.0292582500005665,None,141.09187499999825,141.1019156250004,143.1089428339983,143.0869132500011,,,,,,,,,,,,,,,,,,,,,,,,,,,,,585383,001,2024-07-01_22h48.46.955,5-27,2024.1.4,None,2024-07-01 22h48.52.577944 +0900,
Images/Speaker1.jpg,Images/Speaker2.jpg,Images/Speaker3.jpg,Images/Speaker4.jpg,Audio/Speaker1_En/P1-1-En.wav,Speaker1,گوینده ۱,,,,,,,,,,,,,,,,0,0,0,30,0,45,45,0,,,,,143.1089428339983,,,,,,,,,,,,,,,,,,,,,,,,,,,,,,,,,,,,,,,,,,,,,143.08710100000098,143.1089428339983,143.1089428339983,143.1089428339983,143.1089428339983,143.1033017916673,143.1089428339983,143.1089428339983,143.10949137499847,Correct! صحیح است,1,1,1,1.912431207998452,None,143.11375000000044,143.1216404170009,145.1273597920008,145.10687158400106,,,,,,,,,,,,,,,,,,,,,,,,,,,,,585383,001,2024-07-01_22h48.46.955,5-27,2024.1.4,None,2024-07-01 22h48.52.577944 +0900,
Images/Speaker1.jpg,Images/Speaker2.jpg,Images/Speaker3.jpg,Images/Speaker4.jpg,Audio/Speaker4_En/P4-20-En.wav,Speaker4,گوینده۴,,,,,,,,,,,,,,,,0,0,0,30,0,46,46,79,,,,,145.1273597920008,,,,,,,,,,,,,,,,,,,,,,,,,,,,,,,,,,,,,,,,,,,,,145.10705299999972,145.1273597920008,145.1273597920008,145.1273597920008,145.1273597920008,145.12325650066512,145.1273597920008,145.1273597920008,145.15959195899995,Incorrect! The correct answer is Speaker4. نادرست! پاسخ صحیح گوینده۴ است,0,1,1,0.024106500000925735,None,145.16376629200022,145.17659125000137,147.18265016700025,147.16100300000107,,,,,,,,,,,,,,,,,,,,,,,,,,,,,585383,001,2024-07-01_22h48.46.955,5-27,2024.1.4,None,2024-07-01 22h48.52.577944 +0900,
Images/Speaker1.jpg,Images/Speaker2.jpg,Images/Speaker3.jpg,Images/Speaker4.jpg,Audio/Speaker1_En/P1-19-En.wav,Speaker1,گوینده ۱,,,,,,,,,,,,,,,,0,0,0,30,0,47,47,18,,,,,147.18265016700025,,,,,,,,,,,,,,,,,,,,,,,,,,,,,,,,,,,,,,,,,,,,,147.16119912499926,147.18265016700025,147.18265016700025,147.18265016700025,147.18265016700025,147.17742379166546,147.18265016700025,147.18265016700025,147.18325275000097,Correct! صحیح است,1,1,1,1.9916032500004803,None,147.18720820900126,147.1953789170002,149.20564333400034,149.1846470419987,,,,,,,,,,,,,,,,,,,,,,,,,,,,,585383,001,2024-07-01_22h48.46.955,5-27,2024.1.4,None,2024-07-01 22h48.52.577944 +0900,
Images/Speaker1.jpg,Images/Speaker2.jpg,Images/Speaker3.jpg,Images/Speaker4.jpg,Audio/Speaker1_En/P1-8-En.wav,Speaker1,گوینده ۱,,,,,,,,,,,,,,,,0,0,0,30,0,48,48,7,,,,,149.20564333400034,,,,,,,,,,,,,,,,,,,,,,,,,,,,,,,,,,,,,,,,,,,,,149.1848174170009,149.20564333400034,149.20564333400034,149.20564333400034,149.20564333400034,149.2010771666685,149.20564333400034,149.20564333400034,149.2992837089987,Correct! صحیح است,1,1,1,0.08517770799880964,None,149.30349662500157,149.314590375001,,151.30639708400122,,,,,,,,,,,,,,,,,,,,,,,,,,,,,585383,001,2024-07-01_22h48.46.955,5-27,2024.1.4,None,2024-07-01 22h48.52.577944 +0900,
Images/Speaker1.jpg,Images/Speaker2.jpg,Images/Speaker3.jpg,Images/Speaker4.jpg,Audio/Speaker2_En/P2-8-En.wav,Speaker2,گوینده۲,,,,,,,,,,,,,,,,0,0,0,30,0,49,49,27,,,,,151.3280459589987,,,,,,,,,,,,,,,,,,,,,,,,,,,,,,,,,,,,,,,,,,,,,151.30658083399976,151.3280459589987,151.3280459589987,151.3280459589987,151.3280459589987,151.3230207506679,151.3280459589987,151.3280459589987,151.80484170899945,Incorrect! The correct answer is Speaker2. نادرست! پاسخ صحیح گوینده۲ است,0,1,1,0.47415375000127824,None,151.8088287089995,151.82114766700033,,153.809055583999,,,,,,,,,,,,,,,,,,,,,,,,,,,,,585383,001,2024-07-01_22h48.46.955,5-27,2024.1.4,None,2024-07-01 22h48.52.577944 +0900,
Images/Speaker1.jpg,Images/Speaker2.jpg,Images/Speaker3.jpg,Images/Speaker4.jpg,Audio/Speaker3_En/P3-11-En.wav,Speaker3,گوینده۳,,,,,,,,,,,,,,,,0,0,0,30,0,50,50,50,,,,,153.83023987499837,,,,,,,,,,,,,,,,,,,,,,,,,,,,,,,,,,,,,,,,,,,,,153.80924362500082,153.83023987499837,153.83023987499837,153.83023987499837,153.83023987499837,153.8256829586683,153.83023987499837,153.83023987499837,153.90113754200138,Incorrect! The correct answer is Speaker3. نادرست! پاسخ صحیح گوینده۳ است,0,1,1,0.060929749997740146,None,153.90508541700183,153.91764300000068,,155.9066579169994,,,,,,,,,,,,,,,,,,,,,,,,,,,,,585383,001,2024-07-01_22h48.46.955,5-27,2024.1.4,None,2024-07-01 22h48.52.577944 +0900,
Images/Speaker1.jpg,Images/Speaker2.jpg,Images/Speaker3.jpg,Images/Speaker4.jpg,Audio/Speaker1_En/P1-10-En.wav,Speaker1,گوینده ۱,,,,,,,,,,,,,,,,0,0,0,30,0,51,51,9,,,,,155.92827654199937,,,,,,,,,,,,,,,,,,,,,,,,,,,,,,,,,,,,,,,,,,,,,155.90681779200168,155.92827654199937,155.92827654199937,155.92827654199937,155.92827654199937,155.92328933366687,155.92827654199937,155.92827654199937,155.93460400000185,Correct! صحیح است,1,1,1,0.001547875002870569,None,155.93882695900174,155.95012354199935,,157.9420791670018,,,,,,,,,,,,,,,,,,,,,,,,,,,,,585383,001,2024-07-01_22h48.46.955,5-27,2024.1.4,None,2024-07-01 22h48.52.577944 +0900,
Images/Speaker1.jpg,Images/Speaker2.jpg,Images/Speaker3.jpg,Images/Speaker4.jpg,Audio/Speaker2_En/P2-7-En.wav,Speaker2,گوینده۲,,,,,,,,,,,,,,,,0,0,0,30,0,52,52,26,,,,,157.9658168749993,,,,,,,,,,,,,,,,,,,,,,,,,,,,,,,,,,,,,,,,,,,,,157.94278070899963,157.9658168749993,157.9658168749993,157.9658168749993,157.9658168749993,157.97522279233505,157.9658168749993,157.9658168749993,158.14630274999945,Incorrect! The correct answer is Speaker2. نادرست! پاسخ صحیح گوینده۲ است,0,1,1,0.16740562500126543,None,158.15078954199998,158.16383308399963,160.17426229199918,160.1491480420009,,,,,,,,,,,,,,,,,,,,,,,,,,,,,585383,001,2024-07-01_22h48.46.955,5-27,2024.1.4,None,2024-07-01 22h48.52.577944 +0900,
Images/Speaker1.jpg,Images/Speaker2.jpg,Images/Speaker3.jpg,Images/Speaker4.jpg,Audio/Speaker2_En/P2-4-En.wav,Speaker2,گوینده۲,,,,,,,,,,,,,,,,0,0,0,30,0,53,53,23,,,,,160.17426229199918,,,,,,,,,,,,,,,,,,,,,,,,,,,,,,,,,,,,,,,,,,,,,160.1493410840012,160.17426229199918,160.17426229199918,160.17426229199918,160.17426229199918,160.1656070836655,160.17426229199918,160.17426229199918,160.17491800000062,Incorrect! The correct answer is Speaker2. نادرست! پاسخ صحیح گوینده۲ است,0,1,1,2.1985635419987375,None,160.17915979199825,160.18926574999932,162.19471191699995,162.17317716699836,,,,,,,,,,,,,,,,,,,,,,,,,,,,,585383,001,2024-07-01_22h48.46.955,5-27,2024.1.4,None,2024-07-01 22h48.52.577944 +0900,
Images/Speaker1.jpg,Images/Speaker2.jpg,Images/Speaker3.jpg,Images/Speaker4.jpg,Audio/Speaker1_En/P1-18-En.wav,Speaker1,گوینده ۱,,,,,,,,,,,,,,,,0,0,0,30,0,54,54,17,,,,,162.19471191699995,,,,,,,,,,,,,,,,,,,,,,,,,,,,,,,,,,,,,,,,,,,,,162.17333895900083,162.19471191699995,162.19471191699995,162.19471191699995,162.19471191699995,162.1896162086671,162.19471191699995,162.19471191699995,162.3917192500012,Correct! صحیح است,1,1,1,0.19286875000034343,None,162.3954357090006,162.4065577500005,164.41585191700142,164.39237575000152,,,,,,,,,,,,,,,,,,,,,,,,,,,,,585383,001,2024-07-01_22h48.46.955,5-27,2024.1.4,None,2024-07-01 22h48.52.577944 +0900,
Images/Speaker1.jpg,Images/Speaker2.jpg,Images/Speaker3.jpg,Images/Speaker4.jpg,Audio/Speaker4_En/P4-9-En.wav,Speaker4,گوینده۴,,,,,,,,,,,,,,,,0,0,0,30,0,55,55,68,,,,,164.41585191700142,,,,,,,,,,,,,,,,,,,,,,,,,,,,,,,,,,,,,,,,,,,,,164.3925742499996,164.41585191700142,164.41585191700142,164.41585191700142,164.41585191700142,164.4083666256668,164.41585191700142,164.41585191700142,164.41643699999986,Incorrect! The correct answer is Speaker4. نادرست! پاسخ صحیح گوینده۴ است,0,1,1,2.1852904160004982,None,164.42038354200122,164.43069695899976,,166.4270155000013,,,,,,,,,,,,,,,,,,,,,,,,,,,,,585383,001,2024-07-01_22h48.46.955,5-27,2024.1.4,None,2024-07-01 22h48.52.577944 +0900,
Images/Speaker1.jpg,Images/Speaker2.jpg,Images/Speaker3.jpg,Images/Speaker4.jpg,Audio/Speaker4_En/P4-8-En.wav,Speaker4,گوینده۴,,,,,,,,,,,,,,,,0,0,0,30,0,56,56,67,,,,,166.4534128339983,,,,,,,,,,,,,,,,,,,,,,,,,,,,,,,,,,,,,,,,,,,,,166.42763487499906,166.4534128339983,166.4534128339983,166.4534128339983,166.4534128339983,166.4601590003336,166.4534128339983,166.4534128339983,166.63283391699952,Incorrect! The correct answer is Speaker4. نادرست! پاسخ صحیح گوینده۴ است,0,1,1,0.1749343340015912,None,166.63796224999896,166.65276233400073,168.65795112499836,168.6365419169997,,,,,,,,,,,,,,,,,,,,,,,,,,,,,585383,001,2024-07-01_22h48.46.955,5-27,2024.1.4,None,2024-07-01 22h48.52.577944 +0900,
Images/Speaker1.jpg,Images/Speaker2.jpg,Images/Speaker3.jpg,Images/Speaker4.jpg,Audio/Speaker1_En/P1-7-En.wav,Speaker1,گوینده ۱,,,,,,,,,,,,,,,,0,0,0,30,0,57,57,6,,,,,168.65795112499836,,,,,,,,,,,,,,,,,,,,,,,,,,,,,,,,,,,,,,,,,,,,,168.63671791700108,168.65795112499836,168.65795112499836,168.65795112499836,168.65795112499836,168.6530057506682,168.65795112499836,168.65795112499836,168.77408987500166,Correct! صحیح است,1,1,1,0.11016704199937521,None,168.77796179199868,168.78857741699903,170.80128825000065,170.7769888340008,,,,,,,,,,,,,,,,,,,,,,,,,,,,,585383,001,2024-07-01_22h48.46.955,5-27,2024.1.4,None,2024-07-01 22h48.52.577944 +0900,
Images/Speaker1.jpg,Images/Speaker2.jpg,Images/Speaker3.jpg,Images/Speaker4.jpg,Audio/Speaker1_En/P1-3-En.wav,Speaker1,گوینده ۱,,,,,,,,,,,,,,,,0,0,0,30,0,58,58,2,,,,,170.80128825000065,,,,,,,,,,,,,,,,,,,,,,,,,,,,,,,,,,,,,,,,,,,,,170.77772275000098,170.80128825000065,170.80128825000065,170.80128825000065,170.80128825000065,170.80918775033257,170.80128825000065,170.80128825000065,170.85066662499958,Correct! صحیح است,1,1,1,0.04839108399755787,None,170.85483462499906,170.86572587499904,172.87774945899946,172.85234170900003,,,,,,,,,,,,,,,,,,,,,,,,,,,,,585383,001,2024-07-01_22h48.46.955,5-27,2024.1.4,None,2024-07-01 22h48.52.577944 +0900,
Images/Speaker1.jpg,Images/Speaker2.jpg,Images/Speaker3.jpg,Images/Speaker4.jpg,Audio/Speaker1_En/P1-13-En.wav,Speaker1,گوینده ۱,,,,,,,,,,,,,,,,0,0,0,30,0,59,59,12,,,,,172.87774945899946,,,,,,,,,,,,,,,,,,,,,,,,,,,,,,,,,,,,,,,,,,,,,172.85280754199994,172.87774945899946,172.87774945899946,172.87774945899946,172.87774945899946,172.88534720833246,172.87774945899946,172.87774945899946,172.8783405840004,Correct! صحیح است,1,1,1,2.0012009169986413,None,172.87856158399882,172.88635633399826,174.8926045420012,174.8705661669992,,,,,,,,,,,,,,,,,,,,,,,,,,,,,585383,001,2024-07-01_22h48.46.955,5-27,2024.1.4,None,2024-07-01 22h48.52.577944 +0900,
Images/Speaker1.jpg,Images/Speaker2.jpg,Images/Speaker3.jpg,Images/Speaker4.jpg,Audio/Speaker4_En/P4-4-En.wav,Speaker4,گوینده۴,,,,,,,,,,,,,,,,0,0,0,30,0,60,60,63,,,,,174.8926045420012,,,,,,,,,,,,,,,,,,,,,,,,,,,,,,,,,,,,,,,,,,,,,174.87074066700006,174.8926045420012,174.8926045420012,174.8926045420012,174.8926045420012,174.88701595866613,174.8926045420012,174.8926045420012,174.8942559999996,Incorrect! The correct answer is Speaker4. نادرست! پاسخ صحیح گوینده۴ است,0,1,1,0.00033079099739552476,None,174.8982802089995,174.91103783400104,,176.89954729199962,,,,,,,,,,,,,,,,,,,,,,,,,,,,,585383,001,2024-07-01_22h48.46.955,5-27,2024.1.4,None,2024-07-01 22h48.52.577944 +0900,
Images/Speaker1.jpg,Images/Speaker2.jpg,Images/Speaker3.jpg,Images/Speaker4.jpg,Audio/Speaker2_En/P2-16-En.wav,Speaker2,گوینده۲,,,,,,,,,,,,,,,,0,0,0,30,0,61,61,35,,,,,176.92026791700118,,,,,,,,,,,,,,,,,,,,,,,,,,,,,,,,,,,,,,,,,,,,,176.8997002920005,176.92026791700118,176.92026791700118,176.92026791700118,176.92026791700118,176.91618170866812,176.92026791700118,176.92026791700118,176.9208194999992,Incorrect! The correct answer is Speaker2. نادرست! پاسخ صحیح گوینده۲ است,0,1,1,1.9645703749993118,None,176.9245224590013,176.9348444999996,,178.92724162499871,,,,,,,,,,,,,,,,,,,,,,,,,,,,,585383,001,2024-07-01_22h48.46.955,5-27,2024.1.4,None,2024-07-01 22h48.52.577944 +0900,
Images/Speaker1.jpg,Images/Speaker2.jpg,Images/Speaker3.jpg,Images/Speaker4.jpg,Audio/Speaker4_En/P4-14-En.wav,Speaker4,گوینده۴,,,,,,,,,,,,,,,,0,0,0,30,0,62,62,73,,,,,178.9525895000006,,,,,,,,,,,,,,,,,,,,,,,,,,,,,,,,,,,,,,,,,,,,,178.92776112499996,178.9525895000006,178.9525895000006,178.9525895000006,178.9525895000006,178.96043341733508,178.9525895000006,178.9525895000006,178.95333587500136,Incorrect! The correct answer is Speaker4. نادرست! پاسخ صحیح گوینده۴ است,0,1,1,1.8963158749975264,None,178.95358970899906,178.96306512500087,180.9769379999998,180.95310524999877,,,,,,,,,,,,,,,,,,,,,,,,,,,,,585383,001,2024-07-01_22h48.46.955,5-27,2024.1.4,None,2024-07-01 22h48.52.577944 +0900,
Images/Speaker1.jpg,Images/Speaker2.jpg,Images/Speaker3.jpg,Images/Speaker4.jpg,Audio/Speaker4_En/P4-12-En.wav,Speaker4,گوینده۴,,,,,,,,,,,,,,,,0,0,0,30,0,63,63,71,,,,,180.9769379999998,,,,,,,,,,,,,,,,,,,,,,,,,,,,,,,,,,,,,,,,,,,,,180.95330974999888,180.9769379999998,180.9769379999998,180.9769379999998,180.9769379999998,180.96903854166547,180.9769379999998,180.9769379999998,180.9775417919991,Incorrect! The correct answer is Speaker4. نادرست! پاسخ صحیح گوینده۴ است,0,1,1,1.996555375000753,None,180.9814631670015,180.99168162500064,182.99899291700058,182.9781117499988,,,,,,,,,,,,,,,,,,,,,,,,,,,,,585383,001,2024-07-01_22h48.46.955,5-27,2024.1.4,None,2024-07-01 22h48.52.577944 +0900,
Images/Speaker1.jpg,Images/Speaker2.jpg,Images/Speaker3.jpg,Images/Speaker4.jpg,Audio/Speaker2_En/P2-17-En.wav,Speaker2,گوینده۲,,,,,,,,,,,,,,,,0,0,0,30,0,64,64,36,,,,,182.99899291700058,,,,,,,,,,,,,,,,,,,,,,,,,,,,,,,,,,,,,,,,,,,,,182.978296917001,182.99899291700058,182.99899291700058,182.99899291700058,182.99899291700058,182.9944738336674,182.99899291700058,182.99899291700058,183.03659779200098,Incorrect! The correct answer is Speaker2. نادرست! پاسخ صحیح گوینده۲ است,0,1,1,0.028950374999112682,None,183.0405908339999,183.05266145900168,185.0590055419998,185.03770354199878,,,,,,,,,,,,,,,,,,,,,,,,,,,,,585383,001,2024-07-01_22h48.46.955,5-27,2024.1.4,None,2024-07-01 22h48.52.577944 +0900,
Images/Speaker1.jpg,Images/Speaker2.jpg,Images/Speaker3.jpg,Images/Speaker4.jpg,Audio/Speaker1_En/P1-20-En.wav,Speaker1,گوینده ۱,,,,,,,,,,,,,,,,0,0,0,30,0,65,65,19,,,,,185.0590055419998,,,,,,,,,,,,,,,,,,,,,,,,,,,,,,,,,,,,,,,,,,,,,185.03790141699938,185.0590055419998,185.0590055419998,185.0590055419998,185.0590055419998,185.0541215836677,185.0590055419998,185.0590055419998,185.07954337499905,Correct! صحیح است,1,1,1,0.017686084000160918,None,185.0833394170004,185.09404783400169,187.1006702500017,187.07854212500024,,,,,,,,,,,,,,,,,,,,,,,,,,,,,585383,001,2024-07-01_22h48.46.955,5-27,2024.1.4,None,2024-07-01 22h48.52.577944 +0900,
Images/Speaker1.jpg,Images/Speaker2.jpg,Images/Speaker3.jpg,Images/Speaker4.jpg,Audio/Speaker3_En/P3-4-En.wav,Speaker3,گوینده۳,,,,,,,,,,,,,,,,0,0,0,30,0,66,66,43,,,,,187.1006702500017,,,,,,,,,,,,,,,,,,,,,,,,,,,,,,,,,,,,,,,,,,,,,187.07870204199935,187.1006702500017,187.1006702500017,187.1006702500017,187.1006702500017,187.0949517506672,187.1006702500017,187.1006702500017,187.15465995900013,Incorrect! The correct answer is Speaker3. نادرست! پاسخ صحیح گوینده۳ است,0,1,1,0.05301941599827842,None,187.15834737499972,187.17097745900173,,189.15986504199827,,,,,,,,,,,,,,,,,,,,,,,,,,,,,585383,001,2024-07-01_22h48.46.955,5-27,2024.1.4,None,2024-07-01 22h48.52.577944 +0900,
Images/Speaker1.jpg,Images/Speaker2.jpg,Images/Speaker3.jpg,Images/Speaker4.jpg,Audio/Speaker3_En/P3-3-En.wav,Speaker3,گوینده۳,,,,,,,,,,,,,,,,0,0,0,30,0,67,67,42,,,,,189.1812302090002,,,,,,,,,,,,,,,,,,,,,,,,,,,,,,,,,,,,,,,,,,,,,189.16008137500103,189.1812302090002,189.1812302090002,189.1812302090002,189.1812302090002,189.17646887566687,189.1812302090002,189.1812302090002,189.35845837500165,Incorrect! The correct answer is Speaker3. نادرست! پاسخ صحیح گوینده۳ است,0,1,1,0.1729595420001715,None,189.36274716700063,189.37532783400093,191.3846056250004,191.36298262499986,,,,,,,,,,,,,,,,,,,,,,,,,,,,,585383,001,2024-07-01_22h48.46.955,5-27,2024.1.4,None,2024-07-01 22h48.52.577944 +0900,
Images/Speaker1.jpg,Images/Speaker2.jpg,Images/Speaker3.jpg,Images/Speaker4.jpg,Audio/Speaker3_En/P3-15-En.wav,Speaker3,گوینده۳,,,,,,,,,,,,,,,,0,0,0,30,0,68,68,54,,,,,191.3846056250004,,,,,,,,,,,,,,,,,,,,,,,,,,,,,,,,,,,,,,,,,,,,,191.36318112500157,191.3846056250004,191.3846056250004,191.3846056250004,191.3846056250004,191.37938179166693,191.3846056250004,191.3846056250004,191.38519004200134,Incorrect! The correct answer is Speaker3. نادرست! پاسخ صحیح گوینده۳ است,0,1,1,2.164193000000523,None,191.3892900840001,191.39917879199857,193.41433374999906,193.38940537500093,,,,,,,,,,,,,,,,,,,,,,,,,,,,,585383,001,2024-07-01_22h48.46.955,5-27,2024.1.4,None,2024-07-01 22h48.52.577944 +0900,
Images/Speaker1.jpg,Images/Speaker2.jpg,Images/Speaker3.jpg,Images/Speaker4.jpg,Audio/Speaker3_En/P3-2-En.wav,Speaker3,گوینده۳,,,,,,,,,,,,,,,,0,0,0,30,0,69,69,41,,,,,193.41433374999906,,,,,,,,,,,,,,,,,,,,,,,,,,,,,,,,,,,,,,,,,,,,,193.38997895899956,193.41433374999906,193.41433374999906,193.41433374999906,193.41433374999906,193.42183416733366,193.41433374999906,193.41433374999906,193.4234064170014,Incorrect! The correct answer is Speaker3. نادرست! پاسخ صحیح گوینده۳ است,0,1,1,0.0004044169982080348,None,193.427452584001,193.43678820900095,,195.43187154200132,,,,,,,,,,,,,,,,,,,,,,,,,,,,,585383,001,2024-07-01_22h48.46.955,5-27,2024.1.4,None,2024-07-01 22h48.52.577944 +0900,
Images/Speaker1.jpg,Images/Speaker2.jpg,Images/Speaker3.jpg,Images/Speaker4.jpg,Audio/Speaker2_En/P2-13-En.wav,Speaker2,گوینده۲,,,,,,,,,,,,,,,,0,0,0,30,0,70,70,32,,,,,195.45564020899837,,,,,,,,,,,,,,,,,,,,,,,,,,,,,,,,,,,,,,,,,,,,,195.43247462499858,195.45564020899837,195.45564020899837,195.45564020899837,195.45564020899837,195.46503641733267,195.45564020899837,195.45564020899837,195.4921851250001,Incorrect! The correct answer is Speaker2. نادرست! پاسخ صحیح گوینده۲ است,0,1,1,0.03443116699781967,None,195.49613941699863,195.50783095899897,197.51371233399914,197.49125183399883,,,,,,,,,,,,,,,,,,,,,,,,,,,,,585383,001,2024-07-01_22h48.46.955,5-27,2024.1.4,None,2024-07-01 22h48.52.577944 +0900,
Images/Speaker1.jpg,Images/Speaker2.jpg,Images/Speaker3.jpg,Images/Speaker4.jpg,Audio/Speaker4_En/P4-2-En.wav,Speaker4,گوینده۴,,,,,,,,,,,,,,,,0,0,0,30,0,71,71,61,,,,,197.51371233399914,,,,,,,,,,,,,,,,,,,,,,,,,,,,,,,,,,,,,,,,,,,,,197.4914463339992,197.51371233399914,197.51371233399914,197.51371233399914,197.51371233399914,197.50769500066625,197.51371233399914,197.51371233399914,197.51428025000132,Incorrect! The correct answer is Speaker4. نادرست! پاسخ صحیح گوینده۴ است,0,1,1,1.9629307089999202,None,197.5180722920013,197.52730629199868,199.53895891700085,199.51443912499963,,,,,,,,,,,,,,,,,,,,,,,,,,,,,585383,001,2024-07-01_22h48.46.955,5-27,2024.1.4,None,2024-07-01 22h48.52.577944 +0900,
Images/Speaker1.jpg,Images/Speaker2.jpg,Images/Speaker3.jpg,Images/Speaker4.jpg,Audio/Speaker2_En/P2-1-En.wav,Speaker2,گوینده۲,,,,,,,,,,,,,,,,0,0,0,30,0,72,72,20,,,,,199.53895891700085,,,,,,,,,,,,,,,,,,,,,,,,,,,,,,,,,,,,,,,,,,,,,199.51508212499903,199.53895891700085,199.53895891700085,199.53895891700085,199.53895891700085,199.546716417332,199.53895891700085,199.53895891700085,199.58818133399836,Incorrect! The correct answer is Speaker2. نادرست! پاسخ صحیح گوینده۲ است,0,1,1,0.04396325000197976,None,199.59216541700152,199.60414437500003,201.6150224999983,201.5911922919986,,,,,,,,,,,,,,,,,,,,,,,,,,,,,585383,001,2024-07-01_22h48.46.955,5-27,2024.1.4,None,2024-07-01 22h48.52.577944 +0900,
Images/Speaker1.jpg,Images/Speaker2.jpg,Images/Speaker3.jpg,Images/Speaker4.jpg,Audio/Speaker2_En/P2-20-En.wav,Speaker2,گوینده۲,,,,,,,,,,,,,,,,0,0,0,30,0,73,73,39,,,,,201.6150224999983,,,,,,,,,,,,,,,,,,,,,,,,,,,,,,,,,,,,,,,,,,,,,201.5922164170006,201.6150224999983,201.6150224999983,201.6150224999983,201.6150224999983,201.62362516733316,201.6150224999983,201.6150224999983,201.69795050000175,Incorrect! The correct answer is Speaker2. نادرست! پاسخ صحیح گوینده۲ است,0,1,1,0.07117058400035603,None,201.70188483400125,201.71432954199918,203.72165241699986,203.70045079199917,,,,,,,,,,,,,,,,,,,,,,,,,,,,,585383,001,2024-07-01_22h48.46.955,5-27,2024.1.4,None,2024-07-01 22h48.52.577944 +0900,
Images/Speaker1.jpg,Images/Speaker2.jpg,Images/Speaker3.jpg,Images/Speaker4.jpg,Audio/Speaker1_En/P1-4-En.wav,Speaker1,گوینده ۱,,,,,,,,,,,,,,,,0,0,0,30,0,74,74,13,,,,,203.72165241699986,,,,,,,,,,,,,,,,,,,,,,,,,,,,,,,,,,,,,,,,,,,,,203.70062491700082,203.72165241699986,203.72165241699986,203.72165241699986,203.72165241699986,203.71680950066755,203.72165241699986,203.72165241699986,203.75908812499983,Correct! صحیح است,1,1,1,0.036031999999977415,None,203.76280608399975,203.77361024999846,205.78178491699873,205.76029579199894,,,,,,,,,,,,,,,,,,,,,,,,,,,,,585383,001,2024-07-01_22h48.46.955,5-27,2024.1.4,None,2024-07-01 22h48.52.577944 +0900,
Images/Speaker1.jpg,Images/Speaker2.jpg,Images/Speaker3.jpg,Images/Speaker4.jpg,Audio/Speaker1_En/P1-4-En.wav,Speaker1,گوینده ۱,,,,,,,,,,,,,,,,0,0,0,30,0,75,75,3,,,,,205.78178491699873,,,,,,,,,,,,,,,,,,,,,,,,,,,,,,,,,,,,,,,,,,,,,205.76047554199977,205.78178491699873,205.78178491699873,205.78178491699873,205.78178491699873,205.7766479586683,205.78178491699873,205.78178491699873,205.9590661250004,Correct! صحیح است,1,1,1,0.17505316700044204,None,205.96312154200132,205.973614292001,,207.96340987499934,,,,,,,,,,,,,,,,,,,,,,,,,,,,,585383,001,2024-07-01_22h48.46.955,5-27,2024.1.4,None,2024-07-01 22h48.52.577944 +0900,
Images/Speaker1.jpg,Images/Speaker2.jpg,Images/Speaker3.jpg,Images/Speaker4.jpg,Audio/Speaker1_En/P1-2-En.wav,Speaker1,گوینده ۱,,,,,,,,,,,,,,,,0,0,0,30,0,76,76,1,,,,,207.98479062499973,,,,,,,,,,,,,,,,,,,,,,,,,,,,,,,,,,,,,,,,,,,,,207.96360770899992,207.98479062499973,207.98479062499973,207.98479062499973,207.98479062499973,207.9800393336666,207.98479062499973,207.98479062499973,208.1372040419992,Correct! صحیح است,1,1,1,0.1489100420003524,None,208.14125433400113,208.1525138750003,210.16138920899903,210.13930070900096,,,,,,,,,,,,,,,,,,,,,,,,,,,,,585383,001,2024-07-01_22h48.46.955,5-27,2024.1.4,None,2024-07-01 22h48.52.577944 +0900,
Images/Speaker1.jpg,Images/Speaker2.jpg,Images/Speaker3.jpg,Images/Speaker4.jpg,Audio/Speaker2_En/P2-9-En.wav,Speaker2,گوینده۲,,,,,,,,,,,,,,,,0,0,0,30,0,77,77,28,,,,,210.16138920899903,,,,,,,,,,,,,,,,,,,,,,,,,,,,,,,,,,,,,,,,,,,,,210.1398133750008,210.16138920899903,210.16138920899903,210.16138920899903,210.16138920899903,210.17170012533512,210.16138920899903,210.16138920899903,210.19469241700062,Incorrect! The correct answer is Speaker2. نادرست! پاسخ صحیح گوینده۲ است,0,1,1,0.025682125000457745,None,210.19878133399834,210.21123912500116,,212.20045233400015,,,,,,,,,,,,,,,,,,,,,,,,,,,,,585383,001,2024-07-01_22h48.46.955,5-27,2024.1.4,None,2024-07-01 22h48.52.577944 +0900,
Images/Speaker1.jpg,Images/Speaker2.jpg,Images/Speaker3.jpg,Images/Speaker4.jpg,Audio/Speaker3_En/P3-19-En.wav,Speaker3,گوینده۳,,,,,,,,,,,,,,,,0,0,0,30,0,78,78,58,,,,,212.22486879200005,,,,,,,,,,,,,,,,,,,,,,,,,,,,,,,,,,,,,,,,,,,,,212.20110037500126,212.22486879200005,212.22486879200005,212.22486879200005,212.22486879200005,212.2336149583321,212.22486879200005,212.22486879200005,212.4559545000011,Incorrect! The correct answer is Speaker3. نادرست! پاسخ صحیح گوینده۳ است,0,1,1,0.2256907080009114,None,212.46003924999968,212.47315266700025,214.48332704199856,214.45665954200012,,,,,,,,,,,,,,,,,,,,,,,,,,,,,585383,001,2024-07-01_22h48.46.955,5-27,2024.1.4,None,2024-07-01 22h48.52.577944 +0900,
Images/Speaker1.jpg,Images/Speaker2.jpg,Images/Speaker3.jpg,Images/Speaker4.jpg,Audio/Speaker3_En/P3-9-En.wav,Speaker3,گوینده۳,,,,,,,,,,,,,,,,0,0,0,30,0,79,79,48,,,,,214.48332704199856,,,,,,,,,,,,,,,,,,,,,,,,,,,,,,,,,,,,,,,,,,,,,214.45764687499832,214.48332704199856,214.48332704199856,214.48332704199856,214.48332704199856,214.48898625033377,214.48332704199856,214.48332704199856,217.37072979200093,Incorrect! The correct answer is Speaker3. نادرست! پاسخ صحیح گوینده۳ است,0,1,1,2.87940883400006,None,217.3748066670014,217.3894804590018,,219.37655200000154,,,,,,,,,,,,,,,,,,,,,,,,,,,,,585383,001,2024-07-01_22h48.46.955,5-27,2024.1.4,None,2024-07-01 22h48.52.577944 +0900,
Images/Speaker1.jpg,Images/Speaker2.jpg,Images/Speaker3.jpg,Images/Speaker4.jpg,Audio/Speaker2_En/P2-11-En.wav,Speaker2,گوینده۲,,,,,,,,,,,,,,,,0,0,0,30,,,,,,,,,,,,,,,,,,,,,,,,,,,,,,,,,,,,,,,,,,,,,,,,,,,,,,,,,,,,,,,,,,,,,,,,,219.37664858399876,0.0,False,219.3768961249989,,,,,,,,,,,,,,,,,,,,,,,,,585383,001,2024-07-01_22h48.46.955,5-27,2024.1.4,None,2024-07-01 22h48.52.577944 +0900,
Images/Speaker1.jpg,Images/Speaker2.jpg,Images/Speaker3.jpg,Images/Speaker4.jpg,Audio/Speaker4_En/P4-14-En.wav,Speaker4,گوینده۴,,,,,,,,,,,,,,,,0,1,1,57,0,0,0,73,,,,,219.42069858399918,,,,,,,,,,,,,,,,,,,,,,,,,,,,,,,,,,,,,,,,,,,,,219.39806358400165,219.42069858399918,219.42069858399918,219.42069858399918,219.42069858399918,219.42651520900182,219.42069858399918,219.42069858399918,226.79678262499874,Correct! صحیح است,1,1,4,7.371293874999537,None,226.7972278749985,226.8083664170008,228.81412787500085,228.7925388750009,,,,,,,,,,,,,,,,,,,,,,,,,,,,,585383,001,2024-07-01_22h48.46.955,5-27,2024.1.4,None,2024-07-01 22h48.52.577944 +0900,
Images/Speaker1.jpg,Images/Speaker2.jpg,Images/Speaker3.jpg,Images/Speaker4.jpg,Audio/Speaker3_En/P3-5-En.wav,Speaker3,گوینده۳,,,,,,,,,,,,,,,,0,1,1,57,0,1,1,44,,,,,228.81412787500085,,,,,,,,,,,,,,,,,,,,,,,,,,,,,,,,,,,,,,,,,,,,,228.79269900000145,228.81412787500085,228.81412787500085,228.81412787500085,228.81412787500085,228.80892362566763,228.81412787500085,228.81412787500085,230.29219775000092,Correct! صحیح است,1,1,3,1.4739641670021228,None,230.29738216699843,230.3107471250005,,232.29846883400023,,,,,,,,,,,,,,,,,,,,,,,,,,,,,585383,001,2024-07-01_22h48.46.955,5-27,2024.1.4,None,2024-07-01 22h48.52.577944 +0900,
Images/Speaker1.jpg,Images/Speaker2.jpg,Images/Speaker3.jpg,Images/Speaker4.jpg,Audio/Speaker3_En/P3-6-En.wav,Speaker3,گوینده۳,,,,,,,,,,,,,,,,0,1,1,57,0,2,2,45,,,,,232.32050824999897,,,,,,,,,,,,,,,,,,,,,,,,,,,,,,,,,,,,,,,,,,,,,232.29868320899914,232.32050824999897,232.32050824999897,232.32050824999897,232.32050824999897,232.31507616666593,232.32050824999897,232.32050824999897,233.45388758400077,Correct! صحیح است,1,1,3,1.1244950420004898,None,233.45801995900183,233.46760537500086,235.47808212499876,235.45348845899935,,,,,,,,,,,,,,,,,,,,,,,,,,,,,585383,001,2024-07-01_22h48.46.955,5-27,2024.1.4,None,2024-07-01 22h48.52.577944 +0900,
Images/Speaker1.jpg,Images/Speaker2.jpg,Images/Speaker3.jpg,Images/Speaker4.jpg,Audio/Speaker1_En/P1-2-En.wav,Speaker1,گوینده ۱,,,,,,,,,,,,,,,,0,1,1,57,0,3,3,1,,,,,235.47808212499876,,,,,,,,,,,,,,,,,,,,,,,,,,,,,,,,,,,,,,,,,,,,,235.45439320900186,235.47808212499876,235.47808212499876,235.47808212499876,235.47808212499876,235.48591816733511,235.47808212499876,235.47808212499876,236.26468575000035,Correct! صحیح است,1,1,1,0.7785877500027709,None,236.2686730839996,236.27792570900056,238.28338399999848,238.26126566699895,,,,,,,,,,,,,,,,,,,,,,,,,,,,,585383,001,2024-07-01_22h48.46.955,5-27,2024.1.4,None,2024-07-01 22h48.52.577944 +0900,
Images/Speaker1.jpg,Images/Speaker2.jpg,Images/Speaker3.jpg,Images/Speaker4.jpg,Audio/Speaker4_En/P4-19-En.wav,Speaker4,گوینده۴,,,,,,,,,,,,,,,,0,1,1,57,0,4,4,78,,,,,238.28338399999848,,,,,,,,,,,,,,,,,,,,,,,,,,,,,,,,,,,,,,,,,,,,,238.26148112499868,238.28338399999848,238.28338399999848,238.28338399999848,238.28338399999848,238.27772533366831,238.28338399999848,238.28338399999848,240.39041912500034,Correct! صحیح است,1,1,4,2.105977832998178,None,240.3945688749991,240.40604633399926,242.41486437500134,242.39103108400013,,,,,,,,,,,,,,,,,,,,,,,,,,,,,585383,001,2024-07-01_22h48.46.955,5-27,2024.1.4,None,2024-07-01 22h48.52.577944 +0900,
Images/Speaker1.jpg,Images/Speaker2.jpg,Images/Speaker3.jpg,Images/Speaker4.jpg,Audio/Speaker3_En/P3-1-En.wav,Speaker3,گوینده۳,,,,,,,,,,,,,,,,0,1,1,57,0,5,5,40,,,,,242.41486437500134,,,,,,,,,,,,,,,,,,,,,,,,,,,,,,,,,,,,,,,,,,,,,242.39187512499848,242.41486437500134,242.41486437500134,242.41486437500134,242.41486437500134,242.42346033333212,242.41486437500134,242.41486437500134,243.9214682919992,Correct! صحیح است,1,1,3,1.5016509999986738,None,243.92554445900169,243.9367588749992,245.9445050840004,245.92267512499893,,,,,,,,,,,,,,,,,,,,,,,,,,,,,585383,001,2024-07-01_22h48.46.955,5-27,2024.1.4,None,2024-07-01 22h48.52.577944 +0900,
Images/Speaker1.jpg,Images/Speaker2.jpg,Images/Speaker3.jpg,Images/Speaker4.jpg,Audio/Speaker4_En/P4-5-En.wav,Speaker4,گوینده۴,,,,,,,,,,,,,,,,0,1,1,57,0,6,6,64,,,,,245.9445050840004,,,,,,,,,,,,,,,,,,,,,,,,,,,,,,,,,,,,,,,,,,,,,245.92286375000185,245.9445050840004,245.9445050840004,245.9445050840004,245.9445050840004,245.939042541668,245.9445050840004,245.9445050840004,248.53597766700113,Correct! صحیح است,1,1,4,2.5887256669993803,None,248.5402575420012,248.55231529199955,,250.5405860840001,,,,,,,,,,,,,,,,,,,,,,,,,,,,,585383,001,2024-07-01_22h48.46.955,5-27,2024.1.4,None,2024-07-01 22h48.52.577944 +0900,
Images/Speaker1.jpg,Images/Speaker2.jpg,Images/Speaker3.jpg,Images/Speaker4.jpg,Audio/Speaker4_En/P4-15-En.wav,Speaker4,گوینده۴,,,,,,,,,,,,,,,,0,1,1,57,0,7,7,74,,,,,250.5649870419984,,,,,,,,,,,,,,,,,,,,,,,,,,,,,,,,,,,,,,,,,,,,,250.54119741699833,250.5649870419984,250.5649870419984,250.5649870419984,250.5649870419984,250.57373450033316,250.5649870419984,250.5649870419984,252.2042477089999,Correct! صحیح است,1,1,4,1.6360208330006571,None,252.20899695900152,252.22048633400118,254.22888112500004,254.20829445900017,,,,,,,,,,,,,,,,,,,,,,,,,,,,,585383,001,2024-07-01_22h48.46.955,5-27,2024.1.4,None,2024-07-01 22h48.52.577944 +0900,
Images/Speaker1.jpg,Images/Speaker2.jpg,Images/Speaker3.jpg,Images/Speaker4.jpg,Audio/Speaker1_En/P1-3-En.wav,Speaker1,گوینده ۱,,,,,,,,,,,,,,,,0,1,1,57,0,8,8,2,,,,,254.22888112500004,,,,,,,,,,,,,,,,,,,,,,,,,,,,,,,,,,,,,,,,,,,,,254.20844995899824,254.22888112500004,254.22888112500004,254.22888112500004,254.22888112500004,254.22469575066523,254.22888112500004,254.22888112500004,256.4807180839998,Correct! صحیح است,1,1,1,2.24738441700174,None,256.4846644999998,256.4962168339989,,258.4865979589995,,,,,,,,,,,,,,,,,,,,,,,,,,,,,585383,001,2024-07-01_22h48.46.955,5-27,2024.1.4,None,2024-07-01 22h48.52.577944 +0900,
Images/Speaker1.jpg,Images/Speaker2.jpg,Images/Speaker3.jpg,Images/Speaker4.jpg,Audio/Speaker2_En/P2-6-En.wav,Speaker2,گوینده۲,,,,,,,,,,,,,,,,0,1,1,57,0,9,9,25,,,,,258.5123727499995,,,,,,,,,,,,,,,,,,,,,,,,,,,,,,,,,,,,,,,,,,,,,258.487238624999,258.5123727499995,258.5123727499995,258.5123727499995,258.5123727499995,258.51978191733406,258.5123727499995,258.5123727499995,260.5224390000003,Correct! صحیح است,1,1,2,2.0089663340004336,None,260.52628079200076,260.5376139170003,262.546711084,262.52558316700015,,,,,,,,,,,,,,,,,,,,,,,,,,,,,585383,001,2024-07-01_22h48.46.955,5-27,2024.1.4,None,2024-07-01 22h48.52.577944 +0900,
Images/Speaker1.jpg,Images/Speaker2.jpg,Images/Speaker3.jpg,Images/Speaker4.jpg,Audio/Speaker1_En/P1-7-En.wav,Speaker1,گوینده ۱,,,,,,,,,,,,,,,,0,1,1,57,0,10,10,6,,,,,262.546711084,,,,,,,,,,,,,,,,,,,,,,,,,,,,,,,,,,,,,,,,,,,,,262.5257946249985,262.546711084,262.546711084,262.546711084,262.546711084,262.54197904166745,262.546711084,262.546711084,264.1524989589998,Correct! صحیح است,1,1,1,1.5947631659983017,None,264.1565813339985,264.16775670900097,,266.16137012499894,,,,,,,,,,,,,,,,,,,,,,,,,,,,,585383,001,2024-07-01_22h48.46.955,5-27,2024.1.4,None,2024-07-01 22h48.52.577944 +0900,
Images/Speaker1.jpg,Images/Speaker2.jpg,Images/Speaker3.jpg,Images/Speaker4.jpg,Audio/Speaker2_En/P2-2-En.wav,Speaker2,گوینده۲,,,,,,,,,,,,,,,,0,1,1,57,0,11,11,21,,,,,266.18854674999966,,,,,,,,,,,,,,,,,,,,,,,,,,,,,,,,,,,,,,,,,,,,,266.16210625000167,266.18854674999966,266.18854674999966,266.18854674999966,266.18854674999966,266.19455008333216,266.18854674999966,266.18854674999966,267.2993427500005,Correct! صحیح است,1,1,2,1.1067541669981438,None,267.30319529199915,267.3150883749986,269.32310379200135,269.30105212499984,,,,,,,,,,,,,,,,,,,,,,,,,,,,,585383,001,2024-07-01_22h48.46.955,5-27,2024.1.4,None,2024-07-01 22h48.52.577944 +0900,
Images/Speaker1.jpg,Images/Speaker2.jpg,Images/Speaker3.jpg,Images/Speaker4.jpg,Audio/Speaker1_En/P1-4-En.wav,Speaker1,گوینده ۱,,,,,,,,,,,,,,,,0,1,1,57,0,12,12,13,,,,,269.32310379200135,,,,,,,,,,,,,,,,,,,,,,,,,,,,,,,,,,,,,,,,,,,,,269.3012477919983,269.32310379200135,269.32310379200135,269.32310379200135,269.32310379200135,269.31742595866695,269.32310379200135,269.32310379200135,270.77969045899954,Correct! صحیح است,1,1,1,1.4541921249983716,None,270.78378529199836,270.79492683400167,272.8008184999999,272.77844087500125,,,,,,,,,,,,,,,,,,,,,,,,,,,,,585383,001,2024-07-01_22h48.46.955,5-27,2024.1.4,None,2024-07-01 22h48.52.577944 +0900,
Images/Speaker1.jpg,Images/Speaker2.jpg,Images/Speaker3.jpg,Images/Speaker4.jpg,Audio/Speaker3_En/P3-14-En.wav,Speaker3,گوینده۳,,,,,,,,,,,,,,,,0,1,1,57,0,13,13,53,,,,,272.8008184999999,,,,,,,,,,,,,,,,,,,,,,,,,,,,,,,,,,,,,,,,,,,,,272.7786458340015,272.8008184999999,272.8008184999999,272.8008184999999,272.8008184999999,272.7949077086671,272.8008184999999,272.8008184999999,274.92536016699887,Correct! صحیح است,1,1,3,2.113359708000644,None,274.9291092499989,274.9405139170012,,276.93458804200054,,,,,,,,,,,,,,,,,,,,,,,,,,,,,585383,001,2024-07-01_22h48.46.955,5-27,2024.1.4,None,2024-07-01 22h48.52.577944 +0900,
Images/Speaker1.jpg,Images/Speaker2.jpg,Images/Speaker3.jpg,Images/Speaker4.jpg,Audio/Speaker3_En/P3-2-En.wav,Speaker3,گوینده۳,,,,,,,,,,,,,,,,0,1,1,57,0,14,14,41,,,,,276.9603146670015,,,,,,,,,,,,,,,,,,,,,,,,,,,,,,,,,,,,,,,,,,,,,276.9352199999994,276.9603146670015,276.9603146670015,276.9603146670015,276.9603146670015,276.9677240003334,276.9603146670015,276.9603146670015,279.1002237920002,Correct! صحیح است,1,1,3,2.138045042000158,None,279.1044714999989,279.1159883340006,,281.1081908749984,,,,,,,,,,,,,,,,,,,,,,,,,,,,,585383,001,2024-07-01_22h48.46.955,5-27,2024.1.4,None,2024-07-01 22h48.52.577944 +0900,
Images/Speaker1.jpg,Images/Speaker2.jpg,Images/Speaker3.jpg,Images/Speaker4.jpg,Audio/Speaker4_En/P4-3-En.wav,Speaker4,گوینده۴,,,,,,,,,,,,,,,,0,1,1,57,0,15,15,62,,,,,281.13049300000057,,,,,,,,,,,,,,,,,,,,,,,,,,,,,,,,,,,,,,,,,,,,,281.10876795900185,281.13049300000057,281.13049300000057,281.13049300000057,281.13049300000057,281.1246624586677,281.13049300000057,281.13049300000057,283.4801191250008,Correct! صحیح است,1,1,4,2.3447470829996746,None,283.48385487500127,283.4952160840003,285.5030351669993,285.48185266699875,,,,,,,,,,,,,,,,,,,,,,,,,,,,,585383,001,2024-07-01_22h48.46.955,5-27,2024.1.4,None,2024-07-01 22h48.52.577944 +0900,
Images/Speaker1.jpg,Images/Speaker2.jpg,Images/Speaker3.jpg,Images/Speaker4.jpg,Audio/Speaker4_En/P4-16-En.wav,Speaker4,گوینده۴,,,,,,,,,,,,,,,,0,1,1,57,0,16,16,75,,,,,285.5030351669993,,,,,,,,,,,,,,,,,,,,,,,,,,,,,,,,,,,,,,,,,,,,,285.4820254590013,285.5030351669993,285.5030351669993,285.5030351669993,285.5030351669993,285.49824016666776,285.5030351669993,285.5030351669993,287.47825370899955,Correct! صحیح است,1,1,4,1.9624687079995056,None,287.4823051249987,287.4944745419998,289.50227279200044,289.481259917,,,,,,,,,,,,,,,,,,,,,,,,,,,,,585383,001,2024-07-01_22h48.46.955,5-27,2024.1.4,None,2024-07-01 22h48.52.577944 +0900,
Images/Speaker1.jpg,Images/Speaker2.jpg,Images/Speaker3.jpg,Images/Speaker4.jpg,Audio/Speaker1_En/P1-17-En.wav,Speaker1,گوینده ۱,,,,,,,,,,,,,,,,0,1,1,57,0,17,17,16,,,,,289.50227279200044,,,,,,,,,,,,,,,,,,,,,,,,,,,,,,,,,,,,,,,,,,,,,289.4814428339996,289.50227279200044,289.50227279200044,289.50227279200044,289.50227279200044,289.49768529166636,289.50227279200044,289.50227279200044,290.8726192089998,Correct! صحیح است,1,1,1,1.3680306669994025,None,290.87670141700073,290.88831329200184,292.89511729199876,292.87324716700095,,,,,,,,,,,,,,,,,,,,,,,,,,,,,585383,001,2024-07-01_22h48.46.955,5-27,2024.1.4,None,2024-07-01 22h48.52.577944 +0900,
Images/Speaker1.jpg,Images/Speaker2.jpg,Images/Speaker3.jpg,Images/Speaker4.jpg,Audio/Speaker3_En/P3-13-En.wav,Speaker3,گوینده۳,,,,,,,,,,,,,,,,0,1,1,57,0,18,18,52,,,,,292.89511729199876,,,,,,,,,,,,,,,,,,,,,,,,,,,,,,,,,,,,,,,,,,,,,292.8734466249989,292.89511729199876,292.89511729199876,292.89511729199876,292.89511729199876,292.88964991666603,292.89511729199876,292.89511729199876,295.3078729170011,Correct! صحیح است,1,1,3,2.4079069159997744,None,295.3117728750003,295.3233406250001,297.32790899999964,297.30623916699915,,,,,,,,,,,,,,,,,,,,,,,,,,,,,585383,001,2024-07-01_22h48.46.955,5-27,2024.1.4,None,2024-07-01 22h48.52.577944 +0900,
Images/Speaker1.jpg,Images/Speaker2.jpg,Images/Speaker3.jpg,Images/Speaker4.jpg,Audio/Speaker2_En/P2-7-En.wav,Speaker2,گوینده۲,,,,,,,,,,,,,,,,0,1,1,57,0,19,19,26,,,,,297.32790899999964,,,,,,,,,,,,,,,,,,,,,,,,,,,,,,,,,,,,,,,,,,,,,297.30643187500027,297.32790899999964,297.32790899999964,297.32790899999964,297.32790899999964,297.32263258366606,297.32790899999964,297.32790899999964,298.6093910000018,Correct! صحیح است,1,1,2,1.2712178330002644,None,298.6133034170016,298.62469466699986,,300.61651187499956,,,,,,,,,,,,,,,,,,,,,,,,,,,,,585383,001,2024-07-01_22h48.46.955,5-27,2024.1.4,None,2024-07-01 22h48.52.577944 +0900,
Images/Speaker1.jpg,Images/Speaker2.jpg,Images/Speaker3.jpg,Images/Speaker4.jpg,Audio/Speaker2_En/P2-3-En.wav,Speaker2,گوینده۲,,,,,,,,,,,,,,,,0,1,1,57,0,20,20,22,,,,,300.63742508400173,,,,,,,,,,,,,,,,,,,,,,,,,,,,,,,,,,,,,,,,,,,,,300.6166775419988,300.63742508400173,300.63742508400173,300.63742508400173,300.63742508400173,300.63314595866564,300.63742508400173,300.63742508400173,302.0019932920004,Correct! صحیح است,1,1,2,1.3624142499975278,None,302.0058281249985,302.0168955420013,304.02829012499933,304.00377854199905,,,,,,,,,,,,,,,,,,,,,,,,,,,,,585383,001,2024-07-01_22h48.46.955,5-27,2024.1.4,None,2024-07-01 22h48.52.577944 +0900,
Images/Speaker1.jpg,Images/Speaker2.jpg,Images/Speaker3.jpg,Images/Speaker4.jpg,Audio/Speaker1_En/P1-8-En.wav,Speaker1,گوینده ۱,,,,,,,,,,,,,,,,0,1,1,57,0,21,21,7,,,,,304.02829012499933,,,,,,,,,,,,,,,,,,,,,,,,,,,,,,,,,,,,,,,,,,,,,304.0048392919998,304.02829012499933,304.02829012499933,304.02829012499933,304.02829012499933,304.03614000033167,304.02829012499933,304.02829012499933,305.4985822089984,Correct! صحیح است,1,1,1,1.460901541999192,None,305.50267316700047,305.51233795900043,307.5235469170002,307.50094162499954,,,,,,,,,,,,,,,,,,,,,,,,,,,,,585383,001,2024-07-01_22h48.46.955,5-27,2024.1.4,None,2024-07-01 22h48.52.577944 +0900,
Images/Speaker1.jpg,Images/Speaker2.jpg,Images/Speaker3.jpg,Images/Speaker4.jpg,Audio/Speaker3_En/P3-16-En.wav,Speaker3,گوینده۳,,,,,,,,,,,,,,,,0,1,1,57,0,22,22,55,,,,,307.5235469170002,,,,,,,,,,,,,,,,,,,,,,,,,,,,,,,,,,,,,,,,,,,,,307.501153666999,307.5235469170002,307.5235469170002,307.5235469170002,307.5235469170002,307.5173828336667,307.5235469170002,307.5235469170002,309.8761532919998,Correct! صحیح است,1,1,3,2.3477371250010037,None,309.8801471250008,309.8930328339993,,311.8848178750013,,,,,,,,,,,,,,,,,,,,,,,,,,,,,585383,001,2024-07-01_22h48.46.955,5-27,2024.1.4,None,2024-07-01 22h48.52.577944 +0900,
Images/Speaker1.jpg,Images/Speaker2.jpg,Images/Speaker3.jpg,Images/Speaker4.jpg,Audio/Speaker2_En/P2-8-En.wav,Speaker2,گوینده۲,,,,,,,,,,,,,,,,0,1,1,57,0,23,23,27,,,,,311.90760879200025,,,,,,,,,,,,,,,,,,,,,,,,,,,,,,,,,,,,,,,,,,,,,311.88544162499966,311.90760879200025,311.90760879200025,311.90760879200025,311.90760879200025,311.90129658366664,311.90760879200025,311.90760879200025,313.17425766700035,Correct! صحیح است,1,1,2,1.2618405829998665,None,313.1783447919988,313.18992250000156,315.1992394170011,315.17607308399965,,,,,,,,,,,,,,,,,,,,,,,,,,,,,585383,001,2024-07-01_22h48.46.955,5-27,2024.1.4,None,2024-07-01 22h48.52.577944 +0900,
Images/Speaker1.jpg,Images/Speaker2.jpg,Images/Speaker3.jpg,Images/Speaker4.jpg,Audio/Speaker2_En/P2-15-En.wav,Speaker2,گوینده۲,,,,,,,,,,,,,,,,0,1,1,57,0,24,24,34,,,,,315.1992394170011,,,,,,,,,,,,,,,,,,,,,,,,,,,,,,,,,,,,,,,,,,,,,315.17658408400166,315.1992394170011,315.1992394170011,315.1992394170011,315.1992394170011,315.2084761673327,315.1992394170011,315.1992394170011,316.44177679199856,Correct! صحیح است,1,1,2,1.236178082999686,None,316.44587737500115,316.45687199999884,,318.4512887919991,,,,,,,,,,,,,,,,,,,,,,,,,,,,,585383,001,2024-07-01_22h48.46.955,5-27,2024.1.4,None,2024-07-01 22h48.52.577944 +0900,
Images/Speaker1.jpg,Images/Speaker2.jpg,Images/Speaker3.jpg,Images/Speaker4.jpg,Audio/Speaker3_En/P3-17-En.wav,Speaker3,گوینده۳,,,,,,,,,,,,,,,,0,1,1,57,0,25,25,56,,,,,318.4721503340006,,,,,,,,,,,,,,,,,,,,,,,,,,,,,,,,,,,,,,,,,,,,,318.4514807919986,318.4721503340006,318.4721503340006,318.4721503340006,318.4721503340006,318.4679095836657,318.4721503340006,318.4721503340006,320.451334166999,Correct! صحیح است,1,1,3,1.9683759580002516,None,320.4556013340007,320.46690537500035,322.47097116700024,322.4496656250012,,,,,,,,,,,,,,,,,,,,,,,,,,,,,585383,001,2024-07-01_22h48.46.955,5-27,2024.1.4,None,2024-07-01 22h48.52.577944 +0900,
Images/Speaker1.jpg,Images/Speaker2.jpg,Images/Speaker3.jpg,Images/Speaker4.jpg,Audio/Speaker4_En/P4-8-En.wav,Speaker4,گوینده۴,,,,,,,,,,,,,,,,0,1,1,57,0,26,26,67,,,,,322.47097116700024,,,,,,,,,,,,,,,,,,,,,,,,,,,,,,,,,,,,,,,,,,,,,322.4498612089992,322.47097116700024,322.47097116700024,322.47097116700024,322.47097116700024,322.46600891666844,322.47097116700024,322.47097116700024,324.4991238340008,Correct! صحیح است,1,1,4,2.022895291000168,None,324.5039696669992,324.5168873750008,,326.509865,,,,,,,,,,,,,,,,,,,,,,,,,,,,,585383,001,2024-07-01_22h48.46.955,5-27,2024.1.4,None,2024-07-01 22h48.52.577944 +0900,
Images/Speaker1.jpg,Images/Speaker2.jpg,Images/Speaker3.jpg,Images/Speaker4.jpg,Audio/Speaker1_En/P1-10-En.wav,Speaker1,گوینده ۱,,,,,,,,,,,,,,,,0,1,1,57,0,27,27,9,,,,,326.5312377090013,,,,,,,,,,,,,,,,,,,,,,,,,,,,,,,,,,,,,,,,,,,,,326.510023750001,326.5312377090013,326.5312377090013,326.5312377090013,326.5312377090013,326.52649475066596,326.5312377090013,326.5312377090013,328.15519737499926,Correct! صحیح است,1,1,1,1.622913042003347,None,328.15936475000126,328.1705252499996,330.1753329999992,330.1536088339999,,,,,,,,,,,,,,,,,,,,,,,,,,,,,585383,001,2024-07-01_22h48.46.955,5-27,2024.1.4,None,2024-07-01 22h48.52.577944 +0900,
Images/Speaker1.jpg,Images/Speaker2.jpg,Images/Speaker3.jpg,Images/Speaker4.jpg,Audio/Speaker1_En/P1-11-En.wav,Speaker1,گوینده ۱,,,,,,,,,,,,,,,,0,1,1,57,0,28,28,10,,,,,330.1753329999992,,,,,,,,,,,,,,,,,,,,,,,,,,,,,,,,,,,,,,,,,,,,,330.15379008400123,330.1753329999992,330.1753329999992,330.1753329999992,330.1753329999992,330.1700362506674,330.1753329999992,330.1753329999992,331.3455492920002,Correct! صحیح است,1,1,1,1.1610162920005678,None,331.3506819590002,331.3635815839989,,333.3574442499994,,,,,,,,,,,,,,,,,,,,,,,,,,,,,585383,001,2024-07-01_22h48.46.955,5-27,2024.1.4,None,2024-07-01 22h48.52.577944 +0900,
Images/Speaker1.jpg,Images/Speaker2.jpg,Images/Speaker3.jpg,Images/Speaker4.jpg,Audio/Speaker4_En/P4-12-En.wav,Speaker4,گوینده۴,,,,,,,,,,,,,,,,0,1,1,57,0,29,29,71,,,,,333.37930216699897,,,,,,,,,,,,,,,,,,,,,,,,,,,,,,,,,,,,,,,,,,,,,333.3576164590013,333.37930216699897,333.37930216699897,333.37930216699897,333.37930216699897,333.37407400066536,333.37930216699897,333.37930216699897,334.9913164589998,Correct! صحیح است,1,1,4,1.6025372500007506,None,334.9953970839997,335.0044815000001,337.010175667001,336.98913479199837,,,,,,,,,,,,,,,,,,,,,,,,,,,,,585383,001,2024-07-01_22h48.46.955,5-27,2024.1.4,None,2024-07-01 22h48.52.577944 +0900,
Images/Speaker1.jpg,Images/Speaker2.jpg,Images/Speaker3.jpg,Images/Speaker4.jpg,Audio/Speaker3_En/P3-20-En.wav,Speaker3,گوینده۳,,,,,,,,,,,,,,,,0,1,1,57,0,30,30,59,,,,,337.010175667001,,,,,,,,,,,,,,,,,,,,,,,,,,,,,,,,,,,,,,,,,,,,,336.9893216249984,337.010175667001,337.010175667001,337.010175667001,337.010175667001,337.005585750667,337.010175667001,337.010175667001,338.54992841700005,Correct! صحیح است,1,1,3,1.5363744999995106,None,338.55382470900076,338.5652842499985,340.57514541699857,340.5531281250005,,,,,,,,,,,,,,,,,,,,,,,,,,,,,585383,001,2024-07-01_22h48.46.955,5-27,2024.1.4,None,2024-07-01 22h48.52.577944 +0900,
Images/Speaker1.jpg,Images/Speaker2.jpg,Images/Speaker3.jpg,Images/Speaker4.jpg,Audio/Speaker4_En/P4-20-En.wav,Speaker4,گوینده۴,,,,,,,,,,,,,,,,0,1,1,57,0,31,31,79,,,,,340.57514541699857,,,,,,,,,,,,,,,,,,,,,,,,,,,,,,,,,,,,,,,,,,,,,340.55411362499945,340.57514541699857,340.57514541699857,340.57514541699857,340.57514541699857,340.56894729166766,340.57514541699857,340.57514541699857,342.704467167001,Correct! صحیح است,1,1,4,2.1219579999997222,None,342.704733999999,342.7162854999988,,344.70787858399854,,,,,,,,,,,,,,,,,,,,,,,,,,,,,585383,001,2024-07-01_22h48.46.955,5-27,2024.1.4,None,2024-07-01 22h48.52.577944 +0900,
Images/Speaker1.jpg,Images/Speaker2.jpg,Images/Speaker3.jpg,Images/Speaker4.jpg,Audio/Speaker1_En/P1-20-En.wav,Speaker1,گوینده ۱,,,,,,,,,,,,,,,,0,1,1,57,0,32,32,19,,,,,344.7293165839983,,,,,,,,,,,,,,,,,,,,,,,,,,,,,,,,,,,,,,,,,,,,,344.70806399999856,344.7293165839983,344.7293165839983,344.7293165839983,344.7293165839983,344.7245068336672,344.7293165839983,344.7293165839983,346.0747996249993,Correct! صحیح است,1,1,1,1.3443419169998378,None,346.0784731669992,346.08987070900184,,348.0846237090009,,,,,,,,,,,,,,,,,,,,,,,,,,,,,585383,001,2024-07-01_22h48.46.955,5-27,2024.1.4,None,2024-07-01 22h48.52.577944 +0900,
Images/Speaker1.jpg,Images/Speaker2.jpg,Images/Speaker3.jpg,Images/Speaker4.jpg,Audio/Speaker4_En/P4-10-En.wav,Speaker4,گوینده۴,,,,,,,,,,,,,,,,0,1,1,57,0,33,33,69,,,,,348.1087555839986,,,,,,,,,,,,,,,,,,,,,,,,,,,,,,,,,,,,,,,,,,,,,348.0853010419996,348.1087555839986,348.1087555839986,348.1087555839986,348.1087555839986,348.11774533333346,348.1087555839986,348.1087555839986,349.55484254199837,Correct! صحیح است,1,1,4,1.4372012080020795,None,349.5588585000005,349.567334542,,351.5605958339984,,,,,,,,,,,,,,,,,,,,,,,,,,,,,585383,001,2024-07-01_22h48.46.955,5-27,2024.1.4,None,2024-07-01 22h48.52.577944 +0900,
Images/Speaker1.jpg,Images/Speaker2.jpg,Images/Speaker3.jpg,Images/Speaker4.jpg,Audio/Speaker4_En/P4-9-En.wav,Speaker4,گوینده۴,,,,,,,,,,,,,,,,0,1,1,57,0,34,34,68,,,,,351.58692399999927,,,,,,,,,,,,,,,,,,,,,,,,,,,,,,,,,,,,,,,,,,,,,351.5613887090003,351.58692399999927,351.58692399999927,351.58692399999927,351.58692399999927,351.593764292335,351.58692399999927,351.58692399999927,352.9492951249995,Correct! صحیح است,1,1,4,1.3602359579999757,None,352.95320612499927,352.9645342090007,354.96948387500015,354.9482296669994,,,,,,,,,,,,,,,,,,,,,,,,,,,,,585383,001,2024-07-01_22h48.46.955,5-27,2024.1.4,None,2024-07-01 22h48.52.577944 +0900,
Images/Speaker1.jpg,Images/Speaker2.jpg,Images/Speaker3.jpg,Images/Speaker4.jpg,Audio/Speaker4_En/P4-7-En.wav,Speaker4,گوینده۴,,,,,,,,,,,,,,,,0,1,1,57,0,35,35,66,,,,,354.96948387500015,,,,,,,,,,,,,,,,,,,,,,,,,,,,,,,,,,,,,,,,,,,,,354.94841445899874,354.96948387500015,354.96948387500015,354.96948387500015,354.96948387500015,354.96456425066594,354.96948387500015,354.96948387500015,356.5919915420018,Correct! صحیح است,1,1,4,1.6125332080009684,None,356.59608887500144,356.6053067089997,358.6124866249993,358.5915918749997,,,,,,,,,,,,,,,,,,,,,,,,,,,,,585383,001,2024-07-01_22h48.46.955,5-27,2024.1.4,None,2024-07-01 22h48.52.577944 +0900,
Images/Speaker1.jpg,Images/Speaker2.jpg,Images/Speaker3.jpg,Images/Speaker4.jpg,Audio/Speaker2_En/P2-17-En.wav,Speaker2,گوینده۲,,,,,,,,,,,,,,,,0,1,1,57,0,36,36,36,,,,,358.6124866249993,,,,,,,,,,,,,,,,,,,,,,,,,,,,,,,,,,,,,,,,,,,,,358.5917610840006,358.6124866249993,358.6124866249993,358.6124866249993,358.6124866249993,358.60794800066674,358.6124866249993,358.6124866249993,360.09812358400086,Correct! صحیح است,1,1,2,1.4843912920005096,None,360.1024557499986,360.11431158399864,362.12071966700023,362.0992105840014,,,,,,,,,,,,,,,,,,,,,,,,,,,,,585383,001,2024-07-01_22h48.46.955,5-27,2024.1.4,None,2024-07-01 22h48.52.577944 +0900,
Images/Speaker1.jpg,Images/Speaker2.jpg,Images/Speaker3.jpg,Images/Speaker4.jpg,Audio/Speaker3_En/P3-10-En.wav,Speaker3,گوینده۳,,,,,,,,,,,,,,,,0,1,1,57,0,37,37,49,,,,,362.12071966700023,,,,,,,,,,,,,,,,,,,,,,,,,,,,,,,,,,,,,,,,,,,,,362.0994258339997,362.12071966700023,362.12071966700023,362.12071966700023,362.12071966700023,362.1155029586664,362.12071966700023,362.12071966700023,364.39674766700045,Correct! صحیح است,1,1,3,2.2711264999998093,None,364.40049091699984,364.41188920900095,366.4196433340003,366.39822720899974,,,,,,,,,,,,,,,,,,,,,,,,,,,,,585383,001,2024-07-01_22h48.46.955,5-27,2024.1.4,None,2024-07-01 22h48.52.577944 +0900,
Images/Speaker1.jpg,Images/Speaker2.jpg,Images/Speaker3.jpg,Images/Speaker4.jpg,Audio/Speaker2_En/P2-14-En.wav,Speaker2,گوینده۲,,,,,,,,,,,,,,,,0,1,1,57,0,38,38,33,,,,,366.4196433340003,,,,,,,,,,,,,,,,,,,,,,,,,,,,,,,,,,,,,,,,,,,,,366.3984160840009,366.4196433340003,366.4196433340003,366.4196433340003,366.4196433340003,366.41468150066817,366.4196433340003,366.4196433340003,369.9456985420002,Correct! صحیح است,1,1,2,3.515913791001367,None,369.9499072920007,369.95893345900186,,371.95155279200117,,,,,,,,,,,,,,,,,,,,,,,,,,,,,585383,001,2024-07-01_22h48.46.955,5-27,2024.1.4,None,2024-07-01 22h48.52.577944 +0900,
Images/Speaker1.jpg,Images/Speaker2.jpg,Images/Speaker3.jpg,Images/Speaker4.jpg,Audio/Speaker4_En/P4-17-En.wav,Speaker4,گوینده۴,,,,,,,,,,,,,,,,0,1,1,57,0,39,39,76,,,,,371.9786256670013,,,,,,,,,,,,,,,,,,,,,,,,,,,,,,,,,,,,,,,,,,,,,371.9523011249985,371.9786256670013,371.9786256670013,371.9786256670013,371.9786256670013,371.9846785833329,371.9786256670013,371.9786256670013,374.6868345420007,Correct! صحیح است,1,1,4,2.6982406669994816,None,374.6911687920001,374.7005145000003,376.70932125000036,376.68441687499944,,,,,,,,,,,,,,,,,,,,,,,,,,,,,585383,001,2024-07-01_22h48.46.955,5-27,2024.1.4,None,2024-07-01 22h48.52.577944 +0900,
Images/Speaker1.jpg,Images/Speaker2.jpg,Images/Speaker3.jpg,Images/Speaker4.jpg,Audio/Speaker1_En/P1-6-En.wav,Speaker1,گوینده ۱,,,,,,,,,,,,,,,,0,1,1,57,0,40,40,5,,,,,376.70932125000036,,,,,,,,,,,,,,,,,,,,,,,,,,,,,,,,,,,,,,,,,,,,,376.68535424999936,376.70932125000036,376.70932125000036,376.70932125000036,376.70932125000036,376.71673295833216,376.70932125000036,376.70932125000036,378.36058716700063,Correct! صحیح است,1,1,1,1.648434124999767,None,378.36560233400087,378.37863941699834,,380.36637029199846,,,,,,,,,,,,,,,,,,,,,,,,,,,,,585383,001,2024-07-01_22h48.46.955,5-27,2024.1.4,None,2024-07-01 22h48.52.577944 +0900,
Images/Speaker1.jpg,Images/Speaker2.jpg,Images/Speaker3.jpg,Images/Speaker4.jpg,Audio/Speaker3_En/P3-18-En.wav,Speaker3,گوینده۳,,,,,,,,,,,,,,,,0,1,1,57,0,41,41,57,,,,,380.38748820899855,,,,,,,,,,,,,,,,,,,,,,,,,,,,,,,,,,,,,,,,,,,,,380.36654883400115,380.38748820899855,380.38748820899855,380.38748820899855,380.38748820899855,380.38297070866633,380.38748820899855,380.38748820899855,382.93192320899834,Correct! صحیح است,1,1,3,2.542996583000786,None,382.93214133400033,382.9437827090005,384.9473030420013,384.92655208400174,,,,,,,,,,,,,,,,,,,,,,,,,,,,,585383,001,2024-07-01_22h48.46.955,5-27,2024.1.4,None,2024-07-01 22h48.52.577944 +0900,
Images/Speaker1.jpg,Images/Speaker2.jpg,Images/Speaker3.jpg,Images/Speaker4.jpg,Audio/Speaker1_En/P1-13-En.wav,Speaker1,گوینده ۱,,,,,,,,,,,,,,,,0,1,1,57,0,42,42,12,,,,,384.9473030420013,,,,,,,,,,,,,,,,,,,,,,,,,,,,,,,,,,,,,,,,,,,,,384.9267305840003,384.9473030420013,384.9473030420013,384.9473030420013,384.9473030420013,384.94293170866536,384.9473030420013,384.9473030420013,386.4552645420008,Correct! صحیح است,1,1,1,1.506880667002406,None,386.4605828749991,386.4725447089986,,388.4610935419987,,,,,,,,,,,,,,,,,,,,,,,,,,,,,585383,001,2024-07-01_22h48.46.955,5-27,2024.1.4,None,2024-07-01 22h48.52.577944 +0900,
Images/Speaker1.jpg,Images/Speaker2.jpg,Images/Speaker3.jpg,Images/Speaker4.jpg,Audio/Speaker3_En/P3-4-En.wav,Speaker3,گوینده۳,,,,,,,,,,,,,,,,0,1,1,57,0,43,43,43,,,,,388.48510149999856,,,,,,,,,,,,,,,,,,,,,,,,,,,,,,,,,,,,,,,,,,,,,388.4616354589998,388.48510149999856,388.48510149999856,388.48510149999856,388.48510149999856,388.4942861253335,388.48510149999856,388.48510149999856,390.7667560000009,Correct! صحیح است,1,1,3,2.278912499998114,None,390.77093737500036,390.7824359590013,392.7883806669997,392.7655929169996,,,,,,,,,,,,,,,,,,,,,,,,,,,,,585383,001,2024-07-01_22h48.46.955,5-27,2024.1.4,None,2024-07-01 22h48.52.577944 +0900,
Images/Speaker1.jpg,Images/Speaker2.jpg,Images/Speaker3.jpg,Images/Speaker4.jpg,Audio/Speaker4_En/P4-1-En.wav,Speaker4,گوینده۴,,,,,,,,,,,,,,,,0,1,1,57,0,44,44,60,,,,,392.7883806669997,,,,,,,,,,,,,,,,,,,,,,,,,,,,,,,,,,,,,,,,,,,,,392.76580308399934,392.7883806669997,392.7883806669997,392.7883806669997,392.7883806669997,392.78201245866535,392.7883806669997,392.7883806669997,394.7018979589993,Correct! صحیح است,1,1,4,1.9111972499995318,None,394.7056882500001,394.7171194170005,396.72870966700066,396.70419108400165,,,,,,,,,,,,,,,,,,,,,,,,,,,,,585383,001,2024-07-01_22h48.46.955,5-27,2024.1.4,None,2024-07-01 22h48.52.577944 +0900,
Images/Speaker1.jpg,Images/Speaker2.jpg,Images/Speaker3.jpg,Images/Speaker4.jpg,Audio/Speaker1_En/P1-16-En.wav,Speaker1,گوینده ۱,,,,,,,,,,,,,,,,0,1,1,57,0,45,45,15,,,,,396.72870966700066,,,,,,,,,,,,,,,,,,,,,,,,,,,,,,,,,,,,,,,,,,,,,396.70509700000184,396.72870966700066,396.72870966700066,396.72870966700066,396.72870966700066,396.7365626253345,396.72870966700066,396.72870966700066,398.1504394170006,Correct! صحیح است,1,1,1,1.4136191670004337,None,398.1546984589986,398.165721166999,,400.15816554200137,,,,,,,,,,,,,,,,,,,,,,,,,,,,,585383,001,2024-07-01_22h48.46.955,5-27,2024.1.4,None,2024-07-01 22h48.52.577944 +0900,
Images/Speaker1.jpg,Images/Speaker2.jpg,Images/Speaker3.jpg,Images/Speaker4.jpg,Audio/Speaker2_En/P2-18-En.wav,Speaker2,گوینده۲,,,,,,,,,,,,,,,,0,1,1,57,0,46,46,37,,,,,400.178914084001,,,,,,,,,,,,,,,,,,,,,,,,,,,,,,,,,,,,,,,,,,,,,400.1583482499991,400.178914084001,400.178914084001,400.178914084001,400.178914084001,400.1747947916667,400.178914084001,400.178914084001,401.3753487089998,Correct! صحیح است,1,1,2,1.1947820000023057,None,401.37911650000024,401.39105883400043,403.4017668339984,403.3769847500007,,,,,,,,,,,,,,,,,,,,,,,,,,,,,585383,001,2024-07-01_22h48.46.955,5-27,2024.1.4,None,2024-07-01 22h48.52.577944 +0900,
Images/Speaker1.jpg,Images/Speaker2.jpg,Images/Speaker3.jpg,Images/Speaker4.jpg,Audio/Speaker2_En/P2-1-En.wav,Speaker2,گوینده۲,,,,,,,,,,,,,,,,0,1,1,57,0,47,47,20,,,,,403.4017668339984,,,,,,,,,,,,,,,,,,,,,,,,,,,,,,,,,,,,,,,,,,,,,403.37757129199963,403.4017668339984,403.4017668339984,403.4017668339984,403.4017668339984,403.4091917503324,403.4017668339984,403.4017668339984,404.9756446249994,Correct! صحیح است,1,1,2,1.5618663339992054,None,404.97974887500095,404.99100974999965,,406.98351033400104,,,,,,,,,,,,,,,,,,,,,,,,,,,,,585383,001,2024-07-01_22h48.46.955,5-27,2024.1.4,None,2024-07-01 22h48.52.577944 +0900,
Images/Speaker1.jpg,Images/Speaker2.jpg,Images/Speaker3.jpg,Images/Speaker4.jpg,Audio/Speaker2_En/P2-5-En.wav,Speaker2,گوینده۲,,,,,,,,,,,,,,,,0,1,1,57,0,48,48,24,,,,,407.0042710000016,,,,,,,,,,,,,,,,,,,,,,,,,,,,,,,,,,,,,,,,,,,,,406.98367874999894,407.0042710000016,407.0042710000016,407.0042710000016,407.0042710000016,407.0001417506685,407.0042710000016,407.0042710000016,408.2695447920014,Correct! صحیح است,1,1,2,1.2604355420007778,None,408.2738718750006,408.2855520839985,410.29194800000187,410.27030808400013,,,,,,,,,,,,,,,,,,,,,,,,,,,,,585383,001,2024-07-01_22h48.46.955,5-27,2024.1.4,None,2024-07-01 22h48.52.577944 +0900,
Images/Speaker1.jpg,Images/Speaker2.jpg,Images/Speaker3.jpg,Images/Speaker4.jpg,Audio/Speaker2_En/P2-9-En.wav,Speaker2,گوینده۲,,,,,,,,,,,,,,,,0,1,1,57,0,49,49,28,,,,,410.29194800000187,,,,,,,,,,,,,,,,,,,,,,,,,,,,,,,,,,,,,,,,,,,,,410.2704835420009,410.29194800000187,410.29194800000187,410.29194800000187,410.29194800000187,410.2867549586665,410.29194800000187,410.29194800000187,411.984912584001,Correct! صحیح است,1,1,2,1.6919097089994466,None,411.99013870899944,412.00312608400054,,413.9917412089999,,,,,,,,,,,,,,,,,,,,,,,,,,,,,585383,001,2024-07-01_22h48.46.955,5-27,2024.1.4,None,2024-07-01 22h48.52.577944 +0900,
Images/Speaker1.jpg,Images/Speaker2.jpg,Images/Speaker3.jpg,Images/Speaker4.jpg,Audio/Speaker4_En/P4-6-En.wav,Speaker4,گوینده۴,,,,,,,,,,,,,,,,0,1,1,57,0,50,50,65,,,,,414.01704362500095,,,,,,,,,,,,,,,,,,,,,,,,,,,,,,,,,,,,,,,,,,,,,413.99237766700026,414.01704362500095,414.01704362500095,414.01704362500095,414.01704362500095,414.02488112533365,414.01704362500095,414.01704362500095,416.2109046250007,Correct! صحیح است,1,1,4,2.1852055829986057,None,416.2148055840007,416.2276560419996,418.2336120840009,418.2120705419984,,,,,,,,,,,,,,,,,,,,,,,,,,,,,585383,001,2024-07-01_22h48.46.955,5-27,2024.1.4,None,2024-07-01 22h48.52.577944 +0900,
Images/Speaker1.jpg,Images/Speaker2.jpg,Images/Speaker3.jpg,Images/Speaker4.jpg,Audio/Speaker1_En/P1-9-En.wav,Speaker1,گوینده ۱,,,,,,,,,,,,,,,,0,1,1,57,0,51,51,8,,,,,418.2336120840009,,,,,,,,,,,,,,,,,,,,,,,,,,,,,,,,,,,,,,,,,,,,,418.2122495000003,418.2336120840009,418.2336120840009,418.2336120840009,418.2336120840009,418.22850925066837,418.2336120840009,418.2336120840009,419.7605799999983,Correct! صحیح است,1,1,1,1.5242882910024491,None,419.76449833399965,419.77664191700023,,421.7691517919993,,,,,,,,,,,,,,,,,,,,,,,,,,,,,585383,001,2024-07-01_22h48.46.955,5-27,2024.1.4,None,2024-07-01 22h48.52.577944 +0900,
Images/Speaker1.jpg,Images/Speaker2.jpg,Images/Speaker3.jpg,Images/Speaker4.jpg,Audio/Speaker4_En/P4-13-En.wav,Speaker4,گوینده۴,,,,,,,,,,,,,,,,0,1,1,57,0,52,52,72,,,,,421.7903426670018,,,,,,,,,,,,,,,,,,,,,,,,,,,,,,,,,,,,,,,,,,,,,421.76932337499966,421.7903426670018,421.7903426670018,421.7903426670018,421.7903426670018,421.7857740836664,421.7903426670018,421.7903426670018,423.7469128750017,Correct! صحیح است,1,1,4,1.9540948330031824,None,423.7509341670011,423.7623411249988,425.7714495420005,425.74916670899984,,,,,,,,,,,,,,,,,,,,,,,,,,,,,585383,001,2024-07-01_22h48.46.955,5-27,2024.1.4,None,2024-07-01 22h48.52.577944 +0900,
Images/Speaker1.jpg,Images/Speaker2.jpg,Images/Speaker3.jpg,Images/Speaker4.jpg,Audio/Speaker4_En/P4-4-En.wav,Speaker4,گوینده۴,,,,,,,,,,,,,,,,0,1,1,57,0,53,53,63,,,,,425.7714495420005,,,,,,,,,,,,,,,,,,,,,,,,,,,,,,,,,,,,,,,,,,,,,425.7493657090017,425.7714495420005,425.7714495420005,425.7714495420005,425.7714495420005,425.7655173336682,425.7714495420005,425.7714495420005,427.40481912500036,Correct! صحیح است,1,1,4,1.6314261249972333,None,427.4086133749988,427.4200317089999,429.42664112499915,429.404045416999,,,,,,,,,,,,,,,,,,,,,,,,,,,,,585383,001,2024-07-01_22h48.46.955,5-27,2024.1.4,None,2024-07-01 22h48.52.577944 +0900,
Images/Speaker1.jpg,Images/Speaker2.jpg,Images/Speaker3.jpg,Images/Speaker4.jpg,Audio/Speaker3_En/P3-3-En.wav,Speaker3,گوینده۳,,,,,,,,,,,,,,,,0,1,1,57,0,54,54,42,,,,,429.42664112499915,,,,,,,,,,,,,,,,,,,,,,,,,,,,,,,,,,,,,,,,,,,,,429.40423195900075,429.42664112499915,429.42664112499915,429.42664112499915,429.42664112499915,429.4204868336676,429.42664112499915,429.42664112499915,431.9662361670016,Correct! صحیح است,1,1,3,2.52932229200087,None,431.97015112499867,431.98118712499854,433.9905260839987,433.9697065420005,,,,,,,,,,,,,,,,,,,,,,,,,,,,,585383,001,2024-07-01_22h48.46.955,5-27,2024.1.4,None,2024-07-01 22h48.52.577944 +0900,
Images/Speaker1.jpg,Images/Speaker2.jpg,Images/Speaker3.jpg,Images/Speaker4.jpg,Audio/Speaker1_En/P1-19-En.wav,Speaker1,گوینده ۱,,,,,,,,,,,,,,,,0,1,1,57,0,55,55,18,,,,,433.9905260839987,,,,,,,,,,,,,,,,,,,,,,,,,,,,,,,,,,,,,,,,,,,,,433.9698762500011,433.9905260839987,433.9905260839987,433.9905260839987,433.9905260839987,433.98612370866636,433.9905260839987,433.9905260839987,435.21691587500027,Correct! صحیح است,1,1,1,1.2190466659994854,None,435.22083779199966,435.2322024589994,437.23728170899994,437.2160409169992,,,,,,,,,,,,,,,,,,,,,,,,,,,,,585383,001,2024-07-01_22h48.46.955,5-27,2024.1.4,None,2024-07-01 22h48.52.577944 +0900,
Images/Speaker1.jpg,Images/Speaker2.jpg,Images/Speaker3.jpg,Images/Speaker4.jpg,Audio/Speaker2_En/P2-16-En.wav,Speaker2,گوینده۲,,,,,,,,,,,,,,,,0,1,1,57,0,56,56,35,,,,,437.23728170899994,,,,,,,,,,,,,,,,,,,,,,,,,,,,,,,,,,,,,,,,,,,,,437.2162204589986,437.23728170899994,437.23728170899994,437.23728170899994,437.23728170899994,437.23247400066634,437.23728170899994,437.23728170899994,438.66334016700057,Correct! صحیح است,1,1,2,1.4249711250013206,None,438.66704212499826,438.67901595900184,440.6854160420007,440.6643614169989,,,,,,,,,,,,,,,,,,,,,,,,,,,,,585383,001,2024-07-01_22h48.46.955,5-27,2024.1.4,None,2024-07-01 22h48.52.577944 +0900,
Images/Speaker1.jpg,Images/Speaker2.jpg,Images/Speaker3.jpg,Images/Speaker4.jpg,Audio/Speaker1_En/P1-18-En.wav,Speaker1,گوینده ۱,,,,,,,,,,,,,,,,0,1,1,57,0,57,57,17,,,,,440.6854160420007,,,,,,,,,,,,,,,,,,,,,,,,,,,,,,,,,,,,,,,,,,,,,440.66455387500173,440.6854160420007,440.6854160420007,440.6854160420007,440.6854160420007,440.6808044586653,440.6854160420007,440.6854160420007,442.03986024999904,Correct! صحیح است,1,1,1,1.353346291998605,None,442.0449506670011,442.058217875001,,444.05113633400106,,,,,,,,,,,,,,,,,,,,,,,,,,,,,585383,001,2024-07-01_22h48.46.955,5-27,2024.1.4,None,2024-07-01 22h48.52.577944 +0900,
Images/Speaker1.jpg,Images/Speaker2.jpg,Images/Speaker3.jpg,Images/Speaker4.jpg,Audio/Speaker3_En/P3-15-En.wav,Speaker3,گوینده۳,,,,,,,,,,,,,,,,0,1,1,57,0,58,58,54,,,,,444.0752867500014,,,,,,,,,,,,,,,,,,,,,,,,,,,,,,,,,,,,,,,,,,,,,444.0518179999999,444.0752867500014,444.0752867500014,444.0752867500014,444.0752867500014,444.0842749173321,444.0752867500014,444.0752867500014,445.58417066699985,Correct! صحیح است,1,1,3,1.5015940000012051,None,445.5880730839999,445.5992358750009,447.60696620900126,447.58311645900176,,,,,,,,,,,,,,,,,,,,,,,,,,,,,585383,001,2024-07-01_22h48.46.955,5-27,2024.1.4,None,2024-07-01 22h48.52.577944 +0900,
Images/Speaker1.jpg,Images/Speaker2.jpg,Images/Speaker3.jpg,Images/Speaker4.jpg,Audio/Speaker3_En/P3-11-En.wav,Speaker3,گوینده۳,,,,,,,,,,,,,,,,0,1,1,57,0,59,59,50,,,,,447.60696620900126,,,,,,,,,,,,,,,,,,,,,,,,,,,,,,,,,,,,,,,,,,,,,447.58397045899983,447.60696620900126,447.60696620900126,447.60696620900126,447.60696620900126,447.61565545833264,447.60696620900126,447.60696620900126,448.8841452090019,Correct! صحیح است,1,1,3,1.2699619170016376,None,448.88808354199864,448.8994368749991,,450.89077329200154,,,,,,,,,,,,,,,,,,,,,,,,,,,,,585383,001,2024-07-01_22h48.46.955,5-27,2024.1.4,None,2024-07-01 22h48.52.577944 +0900,
Images/Speaker1.jpg,Images/Speaker2.jpg,Images/Speaker3.jpg,Images/Speaker4.jpg,Audio/Speaker3_En/P3-8-En.wav,Speaker3,گوینده۳,,,,,,,,,,,,,,,,0,1,1,57,0,60,60,47,,,,,450.91128154200123,,,,,,,,,,,,,,,,,,,,,,,,,,,,,,,,,,,,,,,,,,,,,450.89093958399826,450.91128154200123,450.91128154200123,450.91128154200123,450.91128154200123,450.9074016256675,450.91128154200123,450.91128154200123,452.14317929200115,Correct! صحیح است,1,1,3,1.2219426250012475,None,452.1471529590017,452.1595487500017,454.17172199999914,454.14685954200104,,,,,,,,,,,,,,,,,,,,,,,,,,,,,585383,001,2024-07-01_22h48.46.955,5-27,2024.1.4,None,2024-07-01 22h48.52.577944 +0900,
Images/Speaker1.jpg,Images/Speaker2.jpg,Images/Speaker3.jpg,Images/Speaker4.jpg,Audio/Speaker2_En/P2-4-En.wav,Speaker2,گوینده۲,,,,,,,,,,,,,,,,0,1,1,57,0,61,61,23,,,,,454.17172199999914,,,,,,,,,,,,,,,,,,,,,,,,,,,,,,,,,,,,,,,,,,,,,454.1478222090009,454.17172199999914,454.17172199999914,454.17172199999914,454.17172199999914,454.1791290423321,454.17172199999914,454.17172199999914,455.3331076249997,Correct! صحیح است,1,1,2,1.1494602919992758,None,455.337208334,455.3467945420016,457.3606336670018,457.3366385840018,,,,,,,,,,,,,,,,,,,,,,,,,,,,,585383,001,2024-07-01_22h48.46.955,5-27,2024.1.4,None,2024-07-01 22h48.52.577944 +0900,
Images/Speaker1.jpg,Images/Speaker2.jpg,Images/Speaker3.jpg,Images/Speaker4.jpg,Audio/Speaker1_En/P1-12-En.wav,Speaker1,گوینده ۱,,,,,,,,,,,,,,,,0,1,1,57,0,62,62,11,,,,,457.3606336670018,,,,,,,,,,,,,,,,,,,,,,,,,,,,,,,,,,,,,,,,,,,,,457.33750433399837,457.3606336670018,457.3606336670018,457.3606336670018,457.3606336670018,457.3690147923339,457.3606336670018,457.3606336670018,458.6025248750011,Correct! صحیح است,1,1,1,1.2397533340008522,None,458.6062499590007,458.61858824999945,460.62430437500007,460.602106792001,,,,,,,,,,,,,,,,,,,,,,,,,,,,,585383,001,2024-07-01_22h48.46.955,5-27,2024.1.4,None,2024-07-01 22h48.52.577944 +0900,
Images/Speaker1.jpg,Images/Speaker2.jpg,Images/Speaker3.jpg,Images/Speaker4.jpg,Audio/Speaker2_En/P2-12-En.wav,Speaker2,گوینده۲,,,,,,,,,,,,,,,,0,1,1,57,0,63,63,31,,,,,460.62430437500007,,,,,,,,,,,,,,,,,,,,,,,,,,,,,,,,,,,,,,,,,,,,,460.60228800000186,460.62430437500007,460.62430437500007,460.62430437500007,460.62430437500007,460.6184144166657,460.62430437500007,460.62430437500007,462.21398533400134,Correct! صحیح است,1,1,2,1.5844117080014257,None,462.21816458399917,462.22964912500174,,464.21846862500024,,,,,,,,,,,,,,,,,,,,,,,,,,,,,585383,001,2024-07-01_22h48.46.955,5-27,2024.1.4,None,2024-07-01 22h48.52.577944 +0900,
Images/Speaker1.jpg,Images/Speaker2.jpg,Images/Speaker3.jpg,Images/Speaker4.jpg,Audio/Speaker4_En/P4-18-En.wav,Speaker4,گوینده۴,,,,,,,,,,,,,,,,0,1,1,57,0,64,64,77,,,,,464.24236404199837,,,,,,,,,,,,,,,,,,,,,,,,,,,,,,,,,,,,,,,,,,,,,464.21897479199833,464.24236404199837,464.24236404199837,464.24236404199837,464.24236404199837,464.25165683333444,464.24236404199837,464.24236404199837,465.7929710419994,Correct! صحیح است,1,1,4,1.54843320800137,None,465.7972418339996,465.8086074169987,467.81299833400044,467.7915460840013,,,,,,,,,,,,,,,,,,,,,,,,,,,,,585383,001,2024-07-01_22h48.46.955,5-27,2024.1.4,None,2024-07-01 22h48.52.577944 +0900,
Images/Speaker1.jpg,Images/Speaker2.jpg,Images/Speaker3.jpg,Images/Speaker4.jpg,Audio/Speaker3_En/P3-9-En.wav,Speaker3,گوینده۳,,,,,,,,,,,,,,,,0,1,1,57,0,65,65,48,,,,,467.81299833400044,,,,,,,,,,,,,,,,,,,,,,,,,,,,,,,,,,,,,,,,,,,,,467.7917144999992,467.81299833400044,467.81299833400044,467.81299833400044,467.81299833400044,467.80795533366495,467.81299833400044,467.81299833400044,469.57255666700075,Correct! صحیح است,1,1,3,1.7560687089971907,None,469.576309125001,469.58742404200166,471.5954001249993,471.5728699169995,,,,,,,,,,,,,,,,,,,,,,,,,,,,,585383,001,2024-07-01_22h48.46.955,5-27,2024.1.4,None,2024-07-01 22h48.52.577944 +0900,
