SpeakerImage1,SpeakerImage2,SpeakerImage3,SpeakerImage4,TrainingSound,EnglishCorrectAnswer,PersianCorrectAnswer,repeated_TrainingLoopGroup1.thisRepN,repeated_TrainingLoopGroup1.thisTrialN,repeated_TrainingLoopGroup1.thisN,repeated_TrainingLoopGroup1.thisIndex,TrainingLoopGroup1.thisRepN,TrainingLoopGroup1.thisTrialN,TrainingLoopGroup1.thisN,TrainingLoopGroup1.thisIndex,thisRow.t,notes,trial.started,trial.stopped,GroupSelection.started,GroupInstructions.started,key_resp.started,GroupSelection.stopped,key_resp.keys,key_resp.rt,key_resp.duration,Introduction.started,text_2.started,image.started,sound_7.started,text_4.started,text_2.stopped,sound_8.started,image.stopped,text_4.stopped,image_7.started,sound_9.started,text_5.started,sound_10.started,image_7.stopped,text_5.stopped,image_8.started,sound_11.started,text_6.started,sound_12.started,image_8.stopped,text_6.stopped,image_9.started,sound_13.started,text_7.started,sound_14.started,image_9.stopped,text_7.stopped,Introduction.stopped,InitializeExperiment.started,InitializeExperiment.stopped,CheckAccuracy1.started,accuracy_group1,proceed_to_test_group1,CheckAccuracy1.stopped,participant,session,date,expName,psychopyVersion,frameRate,expStart,
,,,,,,,,,,,,,,,,,0.01001666700176429,0.010364666999521432,,,,,,,,,,,,,,,,,,,,,,,,,,,,,,,,,,,,,,,,,,592451,001,2024-07-02_10h14.53.673,5-29,2024.1.4,None,2024-07-02 10h14.58.692550 +0900,
,,,,,,,,,,,,,,,,,,,0.010386834001110401,0.014877792000334011,0.014877792000334011,0.9950904590004939,3,0.9398445839979104,None,,,,,,,,,,,,,,,,,,,,,,,,,,,,,,,,,,,592451,001,2024-07-02_10h14.53.673,5-29,2024.1.4,None,2024-07-02 10h14.58.692550 +0900,
,,,,,,,,,,,,,,,,,,,,,,,,,,0.9951260839989118,1.0432877089988324,5.989408792000177,5.996058291668548,5.989408792000177,6.038930999999138,10.994194333667354,15.980309250000573,15.980309250000573,15.992199584001355,15.99697591666724,15.992199584001355,20.995963333665955,25.9885506669998,25.9885506669998,25.99637358399923,26.005217333666465,25.99637358399923,30.996802791665928,35.99292004200106,35.99292004200106,35.99292004200106,36.00262162566675,35.99292004200106,41.001752541666306,56.83783895899978,56.83783895899978,45.98517245900075,,,,,,,592451,001,2024-07-02_10h14.53.673,5-29,2024.1.4,None,2024-07-02 10h14.58.692550 +0900,
,,,,,,,,,,,,,,,,,,,,,,,,,,,,,,,,,,,,,,,,,,,,,,,,,,,,,,45.98525029200027,45.98570495899912,,,,,592451,001,2024-07-02_10h14.53.673,5-29,2024.1.4,None,2024-07-02 10h14.58.692550 +0900,
Images/Speaker1.jpg,Images/Speaker2.jpg,Images/Speaker3.jpg,Images/Speaker4.jpg,Audio/Speaker3_Per/P3-11-Per.wav,Speaker3,گوینده۳,0,0,0,50,,,,,56.83783895899978,,,,,,,,,,,,,,,,,,,,,,,,,,,,,,,,,,,,,,,,,46.040707250002015,0.0,False,46.041058625000005,592451,001,2024-07-02_10h14.53.673,5-29,2024.1.4,None,2024-07-02 10h14.58.692550 +0900,
Images/Speaker1.jpg,Images/Speaker2.jpg,Images/Speaker3.jpg,Images/Speaker4.jpg,Audio/Speaker3_Per/P3-6-Per.wav,Speaker3,گوینده۳,0,1,1,45,,,,,56.83783895899978,,,,,,,,,,,,,,,,,,,,,,,,,,,,,,,,,,,,,,,,,46.05955983400054,0.0,False,46.059793000000354,592451,001,2024-07-02_10h14.53.673,5-29,2024.1.4,None,2024-07-02 10h14.58.692550 +0900,
Images/Speaker1.jpg,Images/Speaker2.jpg,Images/Speaker3.jpg,Images/Speaker4.jpg,Audio/Speaker3_Per/P3-10-Per.wav,Speaker3,گوینده۳,0,2,2,49,,,,,56.83783895899978,,,,,,,,,,,,,,,,,,,,,,,,,,,,,,,,,,,,,,,,,46.077528624999104,0.0,False,46.07782616700206,592451,001,2024-07-02_10h14.53.673,5-29,2024.1.4,None,2024-07-02 10h14.58.692550 +0900,
Images/Speaker1.jpg,Images/Speaker2.jpg,Images/Speaker3.jpg,Images/Speaker4.jpg,Audio/Speaker4_Per/P4-3-Per.wav,Speaker4,گوینده۴,0,3,3,62,,,,,56.83783895899978,,,,,,,,,,,,,,,,,,,,,,,,,,,,,,,,,,,,,,,,,46.094934749999084,0.0,False,46.09511287500209,592451,001,2024-07-02_10h14.53.673,5-29,2024.1.4,None,2024-07-02 10h14.58.692550 +0900,
Images/Speaker1.jpg,Images/Speaker2.jpg,Images/Speaker3.jpg,Images/Speaker4.jpg,Audio/Speaker1_Per/P1-12-Per.wav,Speaker1,گوینده ۱,0,4,4,11,,,,,56.83783895899978,,,,,,,,,,,,,,,,,,,,,,,,,,,,,,,,,,,,,,,,,46.11160787500194,0.0,False,46.1118031670012,592451,001,2024-07-02_10h14.53.673,5-29,2024.1.4,None,2024-07-02 10h14.58.692550 +0900,
Images/Speaker1.jpg,Images/Speaker2.jpg,Images/Speaker3.jpg,Images/Speaker4.jpg,Audio/Speaker4_Per/P4-20-Per.wav,Speaker4,گوینده۴,0,5,5,79,,,,,56.83783895899978,,,,,,,,,,,,,,,,,,,,,,,,,,,,,,,,,,,,,,,,,46.12790470899927,0.0,False,46.128165250000166,592451,001,2024-07-02_10h14.53.673,5-29,2024.1.4,None,2024-07-02 10h14.58.692550 +0900,
Images/Speaker1.jpg,Images/Speaker2.jpg,Images/Speaker3.jpg,Images/Speaker4.jpg,Audio/Speaker1_Per/P1-1-Per.wav,Speaker1,گوینده ۱,0,6,6,0,,,,,56.83783895899978,,,,,,,,,,,,,,,,,,,,,,,,,,,,,,,,,,,,,,,,,46.144324749999214,0.0,False,46.14451479199852,592451,001,2024-07-02_10h14.53.673,5-29,2024.1.4,None,2024-07-02 10h14.58.692550 +0900,
Images/Speaker1.jpg,Images/Speaker2.jpg,Images/Speaker3.jpg,Images/Speaker4.jpg,Audio/Speaker2_Per/P2-20-Per.wav,Speaker2,گوینده۲,0,7,7,39,,,,,56.83783895899978,,,,,,,,,,,,,,,,,,,,,,,,,,,,,,,,,,,,,,,,,46.16099454199866,0.0,False,46.16117391700027,592451,001,2024-07-02_10h14.53.673,5-29,2024.1.4,None,2024-07-02 10h14.58.692550 +0900,
Images/Speaker1.jpg,Images/Speaker2.jpg,Images/Speaker3.jpg,Images/Speaker4.jpg,Audio/Speaker3_Per/P3-9-Per.wav,Speaker3,گوینده۳,0,8,8,48,,,,,56.83783895899978,,,,,,,,,,,,,,,,,,,,,,,,,,,,,,,,,,,,,,,,,46.17732099999921,0.0,False,46.17747808399872,592451,001,2024-07-02_10h14.53.673,5-29,2024.1.4,None,2024-07-02 10h14.58.692550 +0900,
Images/Speaker1.jpg,Images/Speaker2.jpg,Images/Speaker3.jpg,Images/Speaker4.jpg,Audio/Speaker1_Per/P1-4-Per.wav,Speaker1,گوینده ۱,0,9,9,13,,,,,56.83783895899978,,,,,,,,,,,,,,,,,,,,,,,,,,,,,,,,,,,,,,,,,46.19340383400049,0.0,False,46.19357300000047,592451,001,2024-07-02_10h14.53.673,5-29,2024.1.4,None,2024-07-02 10h14.58.692550 +0900,
Images/Speaker1.jpg,Images/Speaker2.jpg,Images/Speaker3.jpg,Images/Speaker4.jpg,Audio/Speaker2_Per/P2-9-Per.wav,Speaker2,گوینده۲,0,10,10,28,,,,,56.83783895899978,,,,,,,,,,,,,,,,,,,,,,,,,,,,,,,,,,,,,,,,,46.209566542001994,0.0,False,46.209727000001294,592451,001,2024-07-02_10h14.53.673,5-29,2024.1.4,None,2024-07-02 10h14.58.692550 +0900,
Images/Speaker1.jpg,Images/Speaker2.jpg,Images/Speaker3.jpg,Images/Speaker4.jpg,Audio/Speaker1_Per/P1-6-Per.wav,Speaker1,گوینده ۱,0,11,11,5,,,,,56.83783895899978,,,,,,,,,,,,,,,,,,,,,,,,,,,,,,,,,,,,,,,,,46.22642149999956,0.0,False,46.226626333998865,592451,001,2024-07-02_10h14.53.673,5-29,2024.1.4,None,2024-07-02 10h14.58.692550 +0900,
Images/Speaker1.jpg,Images/Speaker2.jpg,Images/Speaker3.jpg,Images/Speaker4.jpg,Audio/Speaker4_Per/P4-5-Per.wav,Speaker4,گوینده۴,0,12,12,64,,,,,56.83783895899978,,,,,,,,,,,,,,,,,,,,,,,,,,,,,,,,,,,,,,,,,46.24237595900195,0.0,False,46.242607584001234,592451,001,2024-07-02_10h14.53.673,5-29,2024.1.4,None,2024-07-02 10h14.58.692550 +0900,
Images/Speaker1.jpg,Images/Speaker2.jpg,Images/Speaker3.jpg,Images/Speaker4.jpg,Audio/Speaker3_Per/P3-18-Per.wav,Speaker3,گوینده۳,0,13,13,57,,,,,56.83783895899978,,,,,,,,,,,,,,,,,,,,,,,,,,,,,,,,,,,,,,,,,46.25866179199875,0.0,False,46.25881658399885,592451,001,2024-07-02_10h14.53.673,5-29,2024.1.4,None,2024-07-02 10h14.58.692550 +0900,
Images/Speaker1.jpg,Images/Speaker2.jpg,Images/Speaker3.jpg,Images/Speaker4.jpg,Audio/Speaker3_Per/P3-8-Per.wav,Speaker3,گوینده۳,0,14,14,47,,,,,56.83783895899978,,,,,,,,,,,,,,,,,,,,,,,,,,,,,,,,,,,,,,,,,46.27500729199892,0.0,False,46.27517425000042,592451,001,2024-07-02_10h14.53.673,5-29,2024.1.4,None,2024-07-02 10h14.58.692550 +0900,
Images/Speaker1.jpg,Images/Speaker2.jpg,Images/Speaker3.jpg,Images/Speaker4.jpg,Audio/Speaker1_Per/P1-8-Per.wav,Speaker1,گوینده ۱,0,15,15,7,,,,,56.83783895899978,,,,,,,,,,,,,,,,,,,,,,,,,,,,,,,,,,,,,,,,,46.292024541999126,0.0,False,46.2922513750018,592451,001,2024-07-02_10h14.53.673,5-29,2024.1.4,None,2024-07-02 10h14.58.692550 +0900,
Images/Speaker1.jpg,Images/Speaker2.jpg,Images/Speaker3.jpg,Images/Speaker4.jpg,Audio/Speaker2_Per/P2-16-Per.wav,Speaker2,گوینده۲,0,16,16,35,,,,,56.83783895899978,,,,,,,,,,,,,,,,,,,,,,,,,,,,,,,,,,,,,,,,,46.30850629199995,0.0,False,46.30869425000128,592451,001,2024-07-02_10h14.53.673,5-29,2024.1.4,None,2024-07-02 10h14.58.692550 +0900,
Images/Speaker1.jpg,Images/Speaker2.jpg,Images/Speaker3.jpg,Images/Speaker4.jpg,Audio/Speaker2_Per/P2-14-Per.wav,Speaker2,گوینده۲,0,17,17,33,,,,,56.83783895899978,,,,,,,,,,,,,,,,,,,,,,,,,,,,,,,,,,,,,,,,,46.32467920899944,0.0,False,46.324928250000085,592451,001,2024-07-02_10h14.53.673,5-29,2024.1.4,None,2024-07-02 10h14.58.692550 +0900,
Images/Speaker1.jpg,Images/Speaker2.jpg,Images/Speaker3.jpg,Images/Speaker4.jpg,Audio/Speaker3_Per/P3-13-Per.wav,Speaker3,گوینده۳,0,18,18,52,,,,,56.83783895899978,,,,,,,,,,,,,,,,,,,,,,,,,,,,,,,,,,,,,,,,,46.341143375000684,0.0,False,46.34134258400081,592451,001,2024-07-02_10h14.53.673,5-29,2024.1.4,None,2024-07-02 10h14.58.692550 +0900,
Images/Speaker1.jpg,Images/Speaker2.jpg,Images/Speaker3.jpg,Images/Speaker4.jpg,Audio/Speaker4_Per/P4-6-Per.wav,Speaker4,گوینده۴,0,19,19,65,,,,,56.83783895899978,,,,,,,,,,,,,,,,,,,,,,,,,,,,,,,,,,,,,,,,,46.3579959589988,0.0,False,46.35815775000083,592451,001,2024-07-02_10h14.53.673,5-29,2024.1.4,None,2024-07-02 10h14.58.692550 +0900,
Images/Speaker1.jpg,Images/Speaker2.jpg,Images/Speaker3.jpg,Images/Speaker4.jpg,Audio/Speaker3_Per/P3-7-Per.wav,Speaker3,گوینده۳,0,20,20,46,,,,,56.83783895899978,,,,,,,,,,,,,,,,,,,,,,,,,,,,,,,,,,,,,,,,,46.37423937499989,0.0,False,46.37443300000086,592451,001,2024-07-02_10h14.53.673,5-29,2024.1.4,None,2024-07-02 10h14.58.692550 +0900,
Images/Speaker1.jpg,Images/Speaker2.jpg,Images/Speaker3.jpg,Images/Speaker4.jpg,Audio/Speaker4_Per/P4-9-Per.wav,Speaker4,گوینده۴,0,21,21,68,,,,,56.83783895899978,,,,,,,,,,,,,,,,,,,,,,,,,,,,,,,,,,,,,,,,,46.390439667000464,0.0,False,46.390612292001606,592451,001,2024-07-02_10h14.53.673,5-29,2024.1.4,None,2024-07-02 10h14.58.692550 +0900,
Images/Speaker1.jpg,Images/Speaker2.jpg,Images/Speaker3.jpg,Images/Speaker4.jpg,Audio/Speaker3_Per/P3-1-Per.wav,Speaker3,گوینده۳,0,22,22,40,,,,,56.83783895899978,,,,,,,,,,,,,,,,,,,,,,,,,,,,,,,,,,,,,,,,,46.40655345900086,0.0,False,46.40678854200087,592451,001,2024-07-02_10h14.53.673,5-29,2024.1.4,None,2024-07-02 10h14.58.692550 +0900,
Images/Speaker1.jpg,Images/Speaker2.jpg,Images/Speaker3.jpg,Images/Speaker4.jpg,Audio/Speaker2_Per/P2-12-Per.wav,Speaker2,گوینده۲,0,23,23,31,,,,,56.83783895899978,,,,,,,,,,,,,,,,,,,,,,,,,,,,,,,,,,,,,,,,,46.42337587500151,0.0,False,46.42354279199935,592451,001,2024-07-02_10h14.53.673,5-29,2024.1.4,None,2024-07-02 10h14.58.692550 +0900,
Images/Speaker1.jpg,Images/Speaker2.jpg,Images/Speaker3.jpg,Images/Speaker4.jpg,Audio/Speaker2_Per/P2-13-Per.wav,Speaker2,گوینده۲,0,24,24,32,,,,,56.83783895899978,,,,,,,,,,,,,,,,,,,,,,,,,,,,,,,,,,,,,,,,,46.439514334000705,0.0,False,46.43969016700066,592451,001,2024-07-02_10h14.53.673,5-29,2024.1.4,None,2024-07-02 10h14.58.692550 +0900,
Images/Speaker1.jpg,Images/Speaker2.jpg,Images/Speaker3.jpg,Images/Speaker4.jpg,Audio/Speaker1_Per/P1-7-Per.wav,Speaker1,گوینده ۱,0,25,25,6,,,,,56.83783895899978,,,,,,,,,,,,,,,,,,,,,,,,,,,,,,,,,,,,,,,,,46.456230959000095,0.0,False,46.456421124999906,592451,001,2024-07-02_10h14.53.673,5-29,2024.1.4,None,2024-07-02 10h14.58.692550 +0900,
Images/Speaker1.jpg,Images/Speaker2.jpg,Images/Speaker3.jpg,Images/Speaker4.jpg,Audio/Speaker3_Per/P3-15-Per.wav,Speaker3,گوینده۳,0,26,26,54,,,,,56.83783895899978,,,,,,,,,,,,,,,,,,,,,,,,,,,,,,,,,,,,,,,,,46.472378334001405,0.0,False,46.472551375001785,592451,001,2024-07-02_10h14.53.673,5-29,2024.1.4,None,2024-07-02 10h14.58.692550 +0900,
Images/Speaker1.jpg,Images/Speaker2.jpg,Images/Speaker3.jpg,Images/Speaker4.jpg,Audio/Speaker2_Per/P2-18-Per.wav,Speaker2,گوینده۲,0,27,27,37,,,,,56.83783895899978,,,,,,,,,,,,,,,,,,,,,,,,,,,,,,,,,,,,,,,,,46.48911562500143,0.0,False,46.489302750000206,592451,001,2024-07-02_10h14.53.673,5-29,2024.1.4,None,2024-07-02 10h14.58.692550 +0900,
Images/Speaker1.jpg,Images/Speaker2.jpg,Images/Speaker3.jpg,Images/Speaker4.jpg,Audio/Speaker4_Per/P4-18-Per.wav,Speaker4,گوینده۴,0,28,28,77,,,,,56.83783895899978,,,,,,,,,,,,,,,,,,,,,,,,,,,,,,,,,,,,,,,,,46.505257708999125,0.0,False,46.50542908400166,592451,001,2024-07-02_10h14.53.673,5-29,2024.1.4,None,2024-07-02 10h14.58.692550 +0900,
Images/Speaker1.jpg,Images/Speaker2.jpg,Images/Speaker3.jpg,Images/Speaker4.jpg,Audio/Speaker4_Per/P4-16-Per.wav,Speaker4,گوینده۴,0,29,29,75,,,,,56.83783895899978,,,,,,,,,,,,,,,,,,,,,,,,,,,,,,,,,,,,,,,,,46.52142183400065,0.0,False,46.52161650000198,592451,001,2024-07-02_10h14.53.673,5-29,2024.1.4,None,2024-07-02 10h14.58.692550 +0900,
Images/Speaker1.jpg,Images/Speaker2.jpg,Images/Speaker3.jpg,Images/Speaker4.jpg,Audio/Speaker1_Per/P1-4-Per.wav,Speaker1,گوینده ۱,0,30,30,3,,,,,56.83783895899978,,,,,,,,,,,,,,,,,,,,,,,,,,,,,,,,,,,,,,,,,46.537533834001806,0.0,False,46.53772491700147,592451,001,2024-07-02_10h14.53.673,5-29,2024.1.4,None,2024-07-02 10h14.58.692550 +0900,
Images/Speaker1.jpg,Images/Speaker2.jpg,Images/Speaker3.jpg,Images/Speaker4.jpg,Audio/Speaker1_Per/P1-11-Per.wav,Speaker1,گوینده ۱,0,31,31,10,,,,,56.83783895899978,,,,,,,,,,,,,,,,,,,,,,,,,,,,,,,,,,,,,,,,,46.55428575000042,0.0,False,46.55446020900126,592451,001,2024-07-02_10h14.53.673,5-29,2024.1.4,None,2024-07-02 10h14.58.692550 +0900,
Images/Speaker1.jpg,Images/Speaker2.jpg,Images/Speaker3.jpg,Images/Speaker4.jpg,Audio/Speaker1_Per/P1-9-Per.wav,Speaker1,گوینده ۱,0,32,32,8,,,,,56.83783895899978,,,,,,,,,,,,,,,,,,,,,,,,,,,,,,,,,,,,,,,,,46.57028358400203,0.0,False,46.5704281670005,592451,001,2024-07-02_10h14.53.673,5-29,2024.1.4,None,2024-07-02 10h14.58.692550 +0900,
Images/Speaker1.jpg,Images/Speaker2.jpg,Images/Speaker3.jpg,Images/Speaker4.jpg,Audio/Speaker4_Per/P4-1-Per.wav,Speaker4,گوینده۴,0,33,33,60,,,,,56.83783895899978,,,,,,,,,,,,,,,,,,,,,,,,,,,,,,,,,,,,,,,,,46.58669404200191,0.0,False,46.58687895899857,592451,001,2024-07-02_10h14.53.673,5-29,2024.1.4,None,2024-07-02 10h14.58.692550 +0900,
Images/Speaker1.jpg,Images/Speaker2.jpg,Images/Speaker3.jpg,Images/Speaker4.jpg,Audio/Speaker4_Per/P4-10-Per.wav,Speaker4,گوینده۴,0,34,34,69,,,,,56.83783895899978,,,,,,,,,,,,,,,,,,,,,,,,,,,,,,,,,,,,,,,,,46.60313991699877,0.0,False,46.60334283400152,592451,001,2024-07-02_10h14.53.673,5-29,2024.1.4,None,2024-07-02 10h14.58.692550 +0900,
Images/Speaker1.jpg,Images/Speaker2.jpg,Images/Speaker3.jpg,Images/Speaker4.jpg,Audio/Speaker3_Per/P3-12-Per.wav,Speaker3,گوینده۳,0,35,35,51,,,,,56.83783895899978,,,,,,,,,,,,,,,,,,,,,,,,,,,,,,,,,,,,,,,,,46.62011791700206,0.0,False,46.62035295900205,592451,001,2024-07-02_10h14.53.673,5-29,2024.1.4,None,2024-07-02 10h14.58.692550 +0900,
Images/Speaker1.jpg,Images/Speaker2.jpg,Images/Speaker3.jpg,Images/Speaker4.jpg,Audio/Speaker1_Per/P1-18-Per.wav,Speaker1,گوینده ۱,0,36,36,17,,,,,56.83783895899978,,,,,,,,,,,,,,,,,,,,,,,,,,,,,,,,,,,,,,,,,46.636846624998725,0.0,False,46.63703083400105,592451,001,2024-07-02_10h14.53.673,5-29,2024.1.4,None,2024-07-02 10h14.58.692550 +0900,
Images/Speaker1.jpg,Images/Speaker2.jpg,Images/Speaker3.jpg,Images/Speaker4.jpg,Audio/Speaker3_Per/P3-2-Per.wav,Speaker3,گوینده۳,0,37,37,41,,,,,56.83783895899978,,,,,,,,,,,,,,,,,,,,,,,,,,,,,,,,,,,,,,,,,46.653359874999296,0.0,False,46.65356570899894,592451,001,2024-07-02_10h14.53.673,5-29,2024.1.4,None,2024-07-02 10h14.58.692550 +0900,
Images/Speaker1.jpg,Images/Speaker2.jpg,Images/Speaker3.jpg,Images/Speaker4.jpg,Audio/Speaker4_Per/P4-4-Per.wav,Speaker4,گوینده۴,0,38,38,63,,,,,56.83783895899978,,,,,,,,,,,,,,,,,,,,,,,,,,,,,,,,,,,,,,,,,46.66982674999963,0.0,False,46.670000209000136,592451,001,2024-07-02_10h14.53.673,5-29,2024.1.4,None,2024-07-02 10h14.58.692550 +0900,
Images/Speaker1.jpg,Images/Speaker2.jpg,Images/Speaker3.jpg,Images/Speaker4.jpg,Audio/Speaker4_Per/P4-2-Per.wav,Speaker4,گوینده۴,0,39,39,61,,,,,56.83783895899978,,,,,,,,,,,,,,,,,,,,,,,,,,,,,,,,,,,,,,,,,46.68695462500182,0.0,False,46.68716979199962,592451,001,2024-07-02_10h14.53.673,5-29,2024.1.4,None,2024-07-02 10h14.58.692550 +0900,
Images/Speaker1.jpg,Images/Speaker2.jpg,Images/Speaker3.jpg,Images/Speaker4.jpg,Audio/Speaker2_Per/P2-7-Per.wav,Speaker2,گوینده۲,0,40,40,26,,,,,56.83783895899978,,,,,,,,,,,,,,,,,,,,,,,,,,,,,,,,,,,,,,,,,46.70342766700196,0.0,False,46.70367900000201,592451,001,2024-07-02_10h14.53.673,5-29,2024.1.4,None,2024-07-02 10h14.58.692550 +0900,
Images/Speaker1.jpg,Images/Speaker2.jpg,Images/Speaker3.jpg,Images/Speaker4.jpg,Audio/Speaker1_Per/P1-3-Per.wav,Speaker1,گوینده ۱,0,41,41,2,,,,,56.83783895899978,,,,,,,,,,,,,,,,,,,,,,,,,,,,,,,,,,,,,,,,,46.7197246249998,0.0,False,46.71990483400077,592451,001,2024-07-02_10h14.53.673,5-29,2024.1.4,None,2024-07-02 10h14.58.692550 +0900,
Images/Speaker1.jpg,Images/Speaker2.jpg,Images/Speaker3.jpg,Images/Speaker4.jpg,Audio/Speaker3_Per/P3-20-Per.wav,Speaker3,گوینده۳,0,42,42,59,,,,,56.83783895899978,,,,,,,,,,,,,,,,,,,,,,,,,,,,,,,,,,,,,,,,,46.73630391700135,0.0,False,46.736565084000176,592451,001,2024-07-02_10h14.53.673,5-29,2024.1.4,None,2024-07-02 10h14.58.692550 +0900,
Images/Speaker1.jpg,Images/Speaker2.jpg,Images/Speaker3.jpg,Images/Speaker4.jpg,Audio/Speaker1_Per/P1-10-Per.wav,Speaker1,گوینده ۱,0,43,43,9,,,,,56.83783895899978,,,,,,,,,,,,,,,,,,,,,,,,,,,,,,,,,,,,,,,,,46.75348158400084,0.0,False,46.753688291999424,592451,001,2024-07-02_10h14.53.673,5-29,2024.1.4,None,2024-07-02 10h14.58.692550 +0900,
Images/Speaker1.jpg,Images/Speaker2.jpg,Images/Speaker3.jpg,Images/Speaker4.jpg,Audio/Speaker2_Per/P2-8-Per.wav,Speaker2,گوینده۲,0,44,44,27,,,,,56.83783895899978,,,,,,,,,,,,,,,,,,,,,,,,,,,,,,,,,,,,,,,,,46.77008495900009,0.0,False,46.77027808400089,592451,001,2024-07-02_10h14.53.673,5-29,2024.1.4,None,2024-07-02 10h14.58.692550 +0900,
Images/Speaker1.jpg,Images/Speaker2.jpg,Images/Speaker3.jpg,Images/Speaker4.jpg,Audio/Speaker3_Per/P3-16-Per.wav,Speaker3,گوینده۳,0,45,45,55,,,,,56.83783895899978,,,,,,,,,,,,,,,,,,,,,,,,,,,,,,,,,,,,,,,,,46.78661920900049,0.0,False,46.78679466700123,592451,001,2024-07-02_10h14.53.673,5-29,2024.1.4,None,2024-07-02 10h14.58.692550 +0900,
Images/Speaker1.jpg,Images/Speaker2.jpg,Images/Speaker3.jpg,Images/Speaker4.jpg,Audio/Speaker1_Per/P1-19-Per.wav,Speaker1,گوینده ۱,0,46,46,18,,,,,56.83783895899978,,,,,,,,,,,,,,,,,,,,,,,,,,,,,,,,,,,,,,,,,46.803063084000314,0.0,False,46.80329849999907,592451,001,2024-07-02_10h14.53.673,5-29,2024.1.4,None,2024-07-02 10h14.58.692550 +0900,
Images/Speaker1.jpg,Images/Speaker2.jpg,Images/Speaker3.jpg,Images/Speaker4.jpg,Audio/Speaker3_Per/P3-19-Per.wav,Speaker3,گوینده۳,0,47,47,58,,,,,56.83783895899978,,,,,,,,,,,,,,,,,,,,,,,,,,,,,,,,,,,,,,,,,46.82013370899949,0.0,False,46.82034883400047,592451,001,2024-07-02_10h14.53.673,5-29,2024.1.4,None,2024-07-02 10h14.58.692550 +0900,
Images/Speaker1.jpg,Images/Speaker2.jpg,Images/Speaker3.jpg,Images/Speaker4.jpg,Audio/Speaker2_Per/P2-11-Per.wav,Speaker2,گوینده۲,0,48,48,30,,,,,56.83783895899978,,,,,,,,,,,,,,,,,,,,,,,,,,,,,,,,,,,,,,,,,46.83658250000008,0.0,False,46.83677974999955,592451,001,2024-07-02_10h14.53.673,5-29,2024.1.4,None,2024-07-02 10h14.58.692550 +0900,
Images/Speaker1.jpg,Images/Speaker2.jpg,Images/Speaker3.jpg,Images/Speaker4.jpg,Audio/Speaker2_Per/P2-6-Per.wav,Speaker2,گوینده۲,0,49,49,25,,,,,56.83783895899978,,,,,,,,,,,,,,,,,,,,,,,,,,,,,,,,,,,,,,,,,46.853097209001135,0.0,False,46.85332329200173,592451,001,2024-07-02_10h14.53.673,5-29,2024.1.4,None,2024-07-02 10h14.58.692550 +0900,
Images/Speaker1.jpg,Images/Speaker2.jpg,Images/Speaker3.jpg,Images/Speaker4.jpg,Audio/Speaker2_Per/P2-1-Per.wav,Speaker2,گوینده۲,0,50,50,20,,,,,56.83783895899978,,,,,,,,,,,,,,,,,,,,,,,,,,,,,,,,,,,,,,,,,46.869467208998685,0.0,False,46.86965224999949,592451,001,2024-07-02_10h14.53.673,5-29,2024.1.4,None,2024-07-02 10h14.58.692550 +0900,
Images/Speaker1.jpg,Images/Speaker2.jpg,Images/Speaker3.jpg,Images/Speaker4.jpg,Audio/Speaker4_Per/P4-17-Per.wav,Speaker4,گوینده۴,0,51,51,76,,,,,56.83783895899978,,,,,,,,,,,,,,,,,,,,,,,,,,,,,,,,,,,,,,,,,46.88648283400107,0.0,False,46.88669574999949,592451,001,2024-07-02_10h14.53.673,5-29,2024.1.4,None,2024-07-02 10h14.58.692550 +0900,
Images/Speaker1.jpg,Images/Speaker2.jpg,Images/Speaker3.jpg,Images/Speaker4.jpg,Audio/Speaker1_Per/P1-13-Per.wav,Speaker1,گوینده ۱,0,52,52,12,,,,,56.83783895899978,,,,,,,,,,,,,,,,,,,,,,,,,,,,,,,,,,,,,,,,,46.90316774999883,0.0,False,46.903360459000396,592451,001,2024-07-02_10h14.53.673,5-29,2024.1.4,None,2024-07-02 10h14.58.692550 +0900,
Images/Speaker1.jpg,Images/Speaker2.jpg,Images/Speaker3.jpg,Images/Speaker4.jpg,Audio/Speaker2_Per/P2-4-Per.wav,Speaker2,گوینده۲,0,53,53,23,,,,,56.83783895899978,,,,,,,,,,,,,,,,,,,,,,,,,,,,,,,,,,,,,,,,,46.91933670900107,0.0,False,46.91951500000141,592451,001,2024-07-02_10h14.53.673,5-29,2024.1.4,None,2024-07-02 10h14.58.692550 +0900,
Images/Speaker1.jpg,Images/Speaker2.jpg,Images/Speaker3.jpg,Images/Speaker4.jpg,Audio/Speaker3_Per/P3-5-Per.wav,Speaker3,گوینده۳,0,54,54,44,,,,,56.83783895899978,,,,,,,,,,,,,,,,,,,,,,,,,,,,,,,,,,,,,,,,,46.935485624999274,0.0,False,46.93566975000067,592451,001,2024-07-02_10h14.53.673,5-29,2024.1.4,None,2024-07-02 10h14.58.692550 +0900,
Images/Speaker1.jpg,Images/Speaker2.jpg,Images/Speaker3.jpg,Images/Speaker4.jpg,Audio/Speaker4_Per/P4-7-Per.wav,Speaker4,گوینده۴,0,55,55,66,,,,,56.83783895899978,,,,,,,,,,,,,,,,,,,,,,,,,,,,,,,,,,,,,,,,,46.95228454199969,0.0,False,46.9525214589994,592451,001,2024-07-02_10h14.53.673,5-29,2024.1.4,None,2024-07-02 10h14.58.692550 +0900,
Images/Speaker1.jpg,Images/Speaker2.jpg,Images/Speaker3.jpg,Images/Speaker4.jpg,Audio/Speaker1_Per/P1-16-Per.wav,Speaker1,گوینده ۱,0,56,56,15,,,,,56.83783895899978,,,,,,,,,,,,,,,,,,,,,,,,,,,,,,,,,,,,,,,,,46.968583917001524,0.0,False,46.96874412499892,592451,001,2024-07-02_10h14.53.673,5-29,2024.1.4,None,2024-07-02 10h14.58.692550 +0900,
Images/Speaker1.jpg,Images/Speaker2.jpg,Images/Speaker3.jpg,Images/Speaker4.jpg,Audio/Speaker2_Per/P2-19-Per.wav,Speaker2,گوینده۲,0,57,57,38,,,,,56.83783895899978,,,,,,,,,,,,,,,,,,,,,,,,,,,,,,,,,,,,,,,,,46.984665542000585,0.0,False,46.98490537500038,592451,001,2024-07-02_10h14.53.673,5-29,2024.1.4,None,2024-07-02 10h14.58.692550 +0900,
Images/Speaker1.jpg,Images/Speaker2.jpg,Images/Speaker3.jpg,Images/Speaker4.jpg,Audio/Speaker4_Per/P4-13-Per.wav,Speaker4,گوینده۴,0,58,58,72,,,,,56.83783895899978,,,,,,,,,,,,,,,,,,,,,,,,,,,,,,,,,,,,,,,,,47.00110945900087,0.0,False,47.00129337500039,592451,001,2024-07-02_10h14.53.673,5-29,2024.1.4,None,2024-07-02 10h14.58.692550 +0900,
Images/Speaker1.jpg,Images/Speaker2.jpg,Images/Speaker3.jpg,Images/Speaker4.jpg,Audio/Speaker2_Per/P2-3-Per.wav,Speaker2,گوینده۲,0,59,59,22,,,,,56.83783895899978,,,,,,,,,,,,,,,,,,,,,,,,,,,,,,,,,,,,,,,,,47.01804791700124,0.0,False,47.018241208999825,592451,001,2024-07-02_10h14.53.673,5-29,2024.1.4,None,2024-07-02 10h14.58.692550 +0900,
Images/Speaker1.jpg,Images/Speaker2.jpg,Images/Speaker3.jpg,Images/Speaker4.jpg,Audio/Speaker2_Per/P2-5-Per.wav,Speaker2,گوینده۲,0,60,60,24,,,,,56.83783895899978,,,,,,,,,,,,,,,,,,,,,,,,,,,,,,,,,,,,,,,,,47.03423245900194,0.0,False,47.03439958400122,592451,001,2024-07-02_10h14.53.673,5-29,2024.1.4,None,2024-07-02 10h14.58.692550 +0900,
Images/Speaker1.jpg,Images/Speaker2.jpg,Images/Speaker3.jpg,Images/Speaker4.jpg,Audio/Speaker2_Per/P2-15-Per.wav,Speaker2,گوینده۲,0,61,61,34,,,,,56.83783895899978,,,,,,,,,,,,,,,,,,,,,,,,,,,,,,,,,,,,,,,,,47.05038516700006,0.0,False,47.05057979200137,592451,001,2024-07-02_10h14.53.673,5-29,2024.1.4,None,2024-07-02 10h14.58.692550 +0900,
Images/Speaker1.jpg,Images/Speaker2.jpg,Images/Speaker3.jpg,Images/Speaker4.jpg,Audio/Speaker1_Per/P1-5-Per.wav,Speaker1,گوینده ۱,0,62,62,4,,,,,56.83783895899978,,,,,,,,,,,,,,,,,,,,,,,,,,,,,,,,,,,,,,,,,47.06677000000127,0.0,False,47.06697841699861,592451,001,2024-07-02_10h14.53.673,5-29,2024.1.4,None,2024-07-02 10h14.58.692550 +0900,
Images/Speaker1.jpg,Images/Speaker2.jpg,Images/Speaker3.jpg,Images/Speaker4.jpg,Audio/Speaker3_Per/P3-17-Per.wav,Speaker3,گوینده۳,0,63,63,56,,,,,56.83783895899978,,,,,,,,,,,,,,,,,,,,,,,,,,,,,,,,,,,,,,,,,47.08364758400057,0.0,False,47.083819916999346,592451,001,2024-07-02_10h14.53.673,5-29,2024.1.4,None,2024-07-02 10h14.58.692550 +0900,
Images/Speaker1.jpg,Images/Speaker2.jpg,Images/Speaker3.jpg,Images/Speaker4.jpg,Audio/Speaker1_Per/P1-15-Per.wav,Speaker1,گوینده ۱,0,64,64,14,,,,,56.83783895899978,,,,,,,,,,,,,,,,,,,,,,,,,,,,,,,,,,,,,,,,,47.0997955419989,0.0,False,47.100002209001104,592451,001,2024-07-02_10h14.53.673,5-29,2024.1.4,None,2024-07-02 10h14.58.692550 +0900,
Images/Speaker1.jpg,Images/Speaker2.jpg,Images/Speaker3.jpg,Images/Speaker4.jpg,Audio/Speaker3_Per/P3-4-Per.wav,Speaker3,گوینده۳,0,65,65,43,,,,,56.83783895899978,,,,,,,,,,,,,,,,,,,,,,,,,,,,,,,,,,,,,,,,,47.11593508399892,0.0,False,47.11616150000191,592451,001,2024-07-02_10h14.53.673,5-29,2024.1.4,None,2024-07-02 10h14.58.692550 +0900,
Images/Speaker1.jpg,Images/Speaker2.jpg,Images/Speaker3.jpg,Images/Speaker4.jpg,Audio/Speaker4_Per/P4-14-Per.wav,Speaker4,گوینده۴,0,66,66,73,,,,,56.83783895899978,,,,,,,,,,,,,,,,,,,,,,,,,,,,,,,,,,,,,,,,,47.13203129199974,0.0,False,47.132248083999,592451,001,2024-07-02_10h14.53.673,5-29,2024.1.4,None,2024-07-02 10h14.58.692550 +0900,
Images/Speaker1.jpg,Images/Speaker2.jpg,Images/Speaker3.jpg,Images/Speaker4.jpg,Audio/Speaker1_Per/P1-17-Per.wav,Speaker1,گوینده ۱,0,67,67,16,,,,,56.83783895899978,,,,,,,,,,,,,,,,,,,,,,,,,,,,,,,,,,,,,,,,,47.14882433399907,0.0,False,47.14899512500051,592451,001,2024-07-02_10h14.53.673,5-29,2024.1.4,None,2024-07-02 10h14.58.692550 +0900,
Images/Speaker1.jpg,Images/Speaker2.jpg,Images/Speaker3.jpg,Images/Speaker4.jpg,Audio/Speaker4_Per/P4-19-Per.wav,Speaker4,گوینده۴,0,68,68,78,,,,,56.83783895899978,,,,,,,,,,,,,,,,,,,,,,,,,,,,,,,,,,,,,,,,,47.16491091699936,0.0,False,47.16508774999966,592451,001,2024-07-02_10h14.53.673,5-29,2024.1.4,None,2024-07-02 10h14.58.692550 +0900,
Images/Speaker1.jpg,Images/Speaker2.jpg,Images/Speaker3.jpg,Images/Speaker4.jpg,Audio/Speaker3_Per/P3-14-Per.wav,Speaker3,گوینده۳,0,69,69,53,,,,,56.83783895899978,,,,,,,,,,,,,,,,,,,,,,,,,,,,,,,,,,,,,,,,,47.181029833998764,0.0,False,47.18124841700046,592451,001,2024-07-02_10h14.53.673,5-29,2024.1.4,None,2024-07-02 10h14.58.692550 +0900,
Images/Speaker1.jpg,Images/Speaker2.jpg,Images/Speaker3.jpg,Images/Speaker4.jpg,Audio/Speaker1_Per/P1-2-Per.wav,Speaker1,گوینده ۱,0,70,70,1,,,,,56.83783895899978,,,,,,,,,,,,,,,,,,,,,,,,,,,,,,,,,,,,,,,,,47.1971321250021,0.0,False,47.197303042001295,592451,001,2024-07-02_10h14.53.673,5-29,2024.1.4,None,2024-07-02 10h14.58.692550 +0900,
Images/Speaker1.jpg,Images/Speaker2.jpg,Images/Speaker3.jpg,Images/Speaker4.jpg,Audio/Speaker4_Per/P4-11-Per.wav,Speaker4,گوینده۴,0,71,71,70,,,,,56.83783895899978,,,,,,,,,,,,,,,,,,,,,,,,,,,,,,,,,,,,,,,,,47.21384775000115,0.0,False,47.21402070900149,592451,001,2024-07-02_10h14.53.673,5-29,2024.1.4,None,2024-07-02 10h14.58.692550 +0900,
Images/Speaker1.jpg,Images/Speaker2.jpg,Images/Speaker3.jpg,Images/Speaker4.jpg,Audio/Speaker4_Per/P4-15-Per.wav,Speaker4,گوینده۴,0,72,72,74,,,,,56.83783895899978,,,,,,,,,,,,,,,,,,,,,,,,,,,,,,,,,,,,,,,,,47.23014529200009,0.0,False,47.2303583339999,592451,001,2024-07-02_10h14.53.673,5-29,2024.1.4,None,2024-07-02 10h14.58.692550 +0900,
Images/Speaker1.jpg,Images/Speaker2.jpg,Images/Speaker3.jpg,Images/Speaker4.jpg,Audio/Speaker2_Per/P2-17-Per.wav,Speaker2,گوینده۲,0,73,73,36,,,,,56.83783895899978,,,,,,,,,,,,,,,,,,,,,,,,,,,,,,,,,,,,,,,,,47.24615454200102,0.0,False,47.246393124998576,592451,001,2024-07-02_10h14.53.673,5-29,2024.1.4,None,2024-07-02 10h14.58.692550 +0900,
Images/Speaker1.jpg,Images/Speaker2.jpg,Images/Speaker3.jpg,Images/Speaker4.jpg,Audio/Speaker2_Per/P2-10-Per.wav,Speaker2,گوینده۲,0,74,74,29,,,,,56.83783895899978,,,,,,,,,,,,,,,,,,,,,,,,,,,,,,,,,,,,,,,,,47.26243812499888,0.0,False,47.262617249998584,592451,001,2024-07-02_10h14.53.673,5-29,2024.1.4,None,2024-07-02 10h14.58.692550 +0900,
Images/Speaker1.jpg,Images/Speaker2.jpg,Images/Speaker3.jpg,Images/Speaker4.jpg,Audio/Speaker3_Per/P3-3-Per.wav,Speaker3,گوینده۳,0,75,75,42,,,,,56.83783895899978,,,,,,,,,,,,,,,,,,,,,,,,,,,,,,,,,,,,,,,,,47.27912025000114,0.0,False,47.279306249998626,592451,001,2024-07-02_10h14.53.673,5-29,2024.1.4,None,2024-07-02 10h14.58.692550 +0900,
Images/Speaker1.jpg,Images/Speaker2.jpg,Images/Speaker3.jpg,Images/Speaker4.jpg,Audio/Speaker1_Per/P1-20-Per.wav,Speaker1,گوینده ۱,0,76,76,19,,,,,56.83783895899978,,,,,,,,,,,,,,,,,,,,,,,,,,,,,,,,,,,,,,,,,47.295265000000654,0.0,False,47.29543475000173,592451,001,2024-07-02_10h14.53.673,5-29,2024.1.4,None,2024-07-02 10h14.58.692550 +0900,
Images/Speaker1.jpg,Images/Speaker2.jpg,Images/Speaker3.jpg,Images/Speaker4.jpg,Audio/Speaker2_Per/P2-2-Per.wav,Speaker2,گوینده۲,0,77,77,21,,,,,56.83783895899978,,,,,,,,,,,,,,,,,,,,,,,,,,,,,,,,,,,,,,,,,47.31138500000088,0.0,False,47.31156437499885,592451,001,2024-07-02_10h14.53.673,5-29,2024.1.4,None,2024-07-02 10h14.58.692550 +0900,
Images/Speaker1.jpg,Images/Speaker2.jpg,Images/Speaker3.jpg,Images/Speaker4.jpg,Audio/Speaker4_Per/P4-12-Per.wav,Speaker4,گوینده۴,0,78,78,71,,,,,56.83783895899978,,,,,,,,,,,,,,,,,,,,,,,,,,,,,,,,,,,,,,,,,47.327478458999394,0.0,False,47.32764075000159,592451,001,2024-07-02_10h14.53.673,5-29,2024.1.4,None,2024-07-02 10h14.58.692550 +0900,
Images/Speaker1.jpg,Images/Speaker2.jpg,Images/Speaker3.jpg,Images/Speaker4.jpg,Audio/Speaker4_Per/P4-8-Per.wav,Speaker4,گوینده۴,0,79,79,67,,,,,56.83783895899978,,,,,,,,,,,,,,,,,,,,,,,,,,,,,,,,,,,,,,,,,47.344183459001215,0.0,False,47.344376208999165,592451,001,2024-07-02_10h14.53.673,5-29,2024.1.4,None,2024-07-02 10h14.58.692550 +0900,
Images/Speaker1.jpg,Images/Speaker2.jpg,Images/Speaker3.jpg,Images/Speaker4.jpg,Audio/Speaker2_Per/P2-19-Per.wav,Speaker2,گوینده۲,1,0,80,38,,,,,56.83783895899978,,,,,,,,,,,,,,,,,,,,,,,,,,,,,,,,,,,,,,,,,47.36024133400133,0.0,False,47.36041074999957,592451,001,2024-07-02_10h14.53.673,5-29,2024.1.4,None,2024-07-02 10h14.58.692550 +0900,
Images/Speaker1.jpg,Images/Speaker2.jpg,Images/Speaker3.jpg,Images/Speaker4.jpg,Audio/Speaker2_Per/P2-16-Per.wav,Speaker2,گوینده۲,1,1,81,35,,,,,56.83783895899978,,,,,,,,,,,,,,,,,,,,,,,,,,,,,,,,,,,,,,,,,47.37633233399902,0.0,False,47.37656158400205,592451,001,2024-07-02_10h14.53.673,5-29,2024.1.4,None,2024-07-02 10h14.58.692550 +0900,
Images/Speaker1.jpg,Images/Speaker2.jpg,Images/Speaker3.jpg,Images/Speaker4.jpg,Audio/Speaker4_Per/P4-9-Per.wav,Speaker4,گوینده۴,1,2,82,68,,,,,56.83783895899978,,,,,,,,,,,,,,,,,,,,,,,,,,,,,,,,,,,,,,,,,47.39248700000098,0.0,False,47.39271487500082,592451,001,2024-07-02_10h14.53.673,5-29,2024.1.4,None,2024-07-02 10h14.58.692550 +0900,
Images/Speaker1.jpg,Images/Speaker2.jpg,Images/Speaker3.jpg,Images/Speaker4.jpg,Audio/Speaker3_Per/P3-3-Per.wav,Speaker3,گوینده۳,1,3,83,42,,,,,56.83783895899978,,,,,,,,,,,,,,,,,,,,,,,,,,,,,,,,,,,,,,,,,47.40924266699949,0.0,False,47.40941187499993,592451,001,2024-07-02_10h14.53.673,5-29,2024.1.4,None,2024-07-02 10h14.58.692550 +0900,
Images/Speaker1.jpg,Images/Speaker2.jpg,Images/Speaker3.jpg,Images/Speaker4.jpg,Audio/Speaker2_Per/P2-3-Per.wav,Speaker2,گوینده۲,1,4,84,22,,,,,56.83783895899978,,,,,,,,,,,,,,,,,,,,,,,,,,,,,,,,,,,,,,,,,47.42528925000079,0.0,False,47.42544795900176,592451,001,2024-07-02_10h14.53.673,5-29,2024.1.4,None,2024-07-02 10h14.58.692550 +0900,
Images/Speaker1.jpg,Images/Speaker2.jpg,Images/Speaker3.jpg,Images/Speaker4.jpg,Audio/Speaker1_Per/P1-17-Per.wav,Speaker1,گوینده ۱,1,5,85,16,,,,,56.83783895899978,,,,,,,,,,,,,,,,,,,,,,,,,,,,,,,,,,,,,,,,,47.44156504200146,0.0,False,47.441736000000674,592451,001,2024-07-02_10h14.53.673,5-29,2024.1.4,None,2024-07-02 10h14.58.692550 +0900,
Images/Speaker1.jpg,Images/Speaker2.jpg,Images/Speaker3.jpg,Images/Speaker4.jpg,Audio/Speaker1_Per/P1-4-Per.wav,Speaker1,گوینده ۱,1,6,86,13,,,,,56.83783895899978,,,,,,,,,,,,,,,,,,,,,,,,,,,,,,,,,,,,,,,,,47.45748620900122,0.0,False,47.45764429200062,592451,001,2024-07-02_10h14.53.673,5-29,2024.1.4,None,2024-07-02 10h14.58.692550 +0900,
Images/Speaker1.jpg,Images/Speaker2.jpg,Images/Speaker3.jpg,Images/Speaker4.jpg,Audio/Speaker1_Per/P1-13-Per.wav,Speaker1,گوینده ۱,1,7,87,12,,,,,56.83783895899978,,,,,,,,,,,,,,,,,,,,,,,,,,,,,,,,,,,,,,,,,47.47418529200149,0.0,False,47.47438479199991,592451,001,2024-07-02_10h14.53.673,5-29,2024.1.4,None,2024-07-02 10h14.58.692550 +0900,
Images/Speaker1.jpg,Images/Speaker2.jpg,Images/Speaker3.jpg,Images/Speaker4.jpg,Audio/Speaker3_Per/P3-1-Per.wav,Speaker3,گوینده۳,1,8,88,40,,,,,56.83783895899978,,,,,,,,,,,,,,,,,,,,,,,,,,,,,,,,,,,,,,,,,47.49022979200163,0.0,False,47.49039204200017,592451,001,2024-07-02_10h14.53.673,5-29,2024.1.4,None,2024-07-02 10h14.58.692550 +0900,
Images/Speaker1.jpg,Images/Speaker2.jpg,Images/Speaker3.jpg,Images/Speaker4.jpg,Audio/Speaker4_Per/P4-14-Per.wav,Speaker4,گوینده۴,1,9,89,73,,,,,56.83783895899978,,,,,,,,,,,,,,,,,,,,,,,,,,,,,,,,,,,,,,,,,47.506233459000214,0.0,False,47.5064432500003,592451,001,2024-07-02_10h14.53.673,5-29,2024.1.4,None,2024-07-02 10h14.58.692550 +0900,
Images/Speaker1.jpg,Images/Speaker2.jpg,Images/Speaker3.jpg,Images/Speaker4.jpg,Audio/Speaker2_Per/P2-2-Per.wav,Speaker2,گوینده۲,1,10,90,21,,,,,56.83783895899978,,,,,,,,,,,,,,,,,,,,,,,,,,,,,,,,,,,,,,,,,47.52229791699938,0.0,False,47.52247683400128,592451,001,2024-07-02_10h14.53.673,5-29,2024.1.4,None,2024-07-02 10h14.58.692550 +0900,
Images/Speaker1.jpg,Images/Speaker2.jpg,Images/Speaker3.jpg,Images/Speaker4.jpg,Audio/Speaker3_Per/P3-19-Per.wav,Speaker3,گوینده۳,1,11,91,58,,,,,56.83783895899978,,,,,,,,,,,,,,,,,,,,,,,,,,,,,,,,,,,,,,,,,47.53897370900086,0.0,False,47.53914491700198,592451,001,2024-07-02_10h14.53.673,5-29,2024.1.4,None,2024-07-02 10h14.58.692550 +0900,
Images/Speaker1.jpg,Images/Speaker2.jpg,Images/Speaker3.jpg,Images/Speaker4.jpg,Audio/Speaker4_Per/P4-16-Per.wav,Speaker4,گوینده۴,1,12,92,75,,,,,56.83783895899978,,,,,,,,,,,,,,,,,,,,,,,,,,,,,,,,,,,,,,,,,47.55508924999958,0.0,False,47.55527224999969,592451,001,2024-07-02_10h14.53.673,5-29,2024.1.4,None,2024-07-02 10h14.58.692550 +0900,
Images/Speaker1.jpg,Images/Speaker2.jpg,Images/Speaker3.jpg,Images/Speaker4.jpg,Audio/Speaker2_Per/P2-1-Per.wav,Speaker2,گوینده۲,1,13,93,20,,,,,56.83783895899978,,,,,,,,,,,,,,,,,,,,,,,,,,,,,,,,,,,,,,,,,47.57115704199896,0.0,False,47.57133116700061,592451,001,2024-07-02_10h14.53.673,5-29,2024.1.4,None,2024-07-02 10h14.58.692550 +0900,
Images/Speaker1.jpg,Images/Speaker2.jpg,Images/Speaker3.jpg,Images/Speaker4.jpg,Audio/Speaker3_Per/P3-14-Per.wav,Speaker3,گوینده۳,1,14,94,53,,,,,56.83783895899978,,,,,,,,,,,,,,,,,,,,,,,,,,,,,,,,,,,,,,,,,47.5870977500017,0.0,False,47.58730429199932,592451,001,2024-07-02_10h14.53.673,5-29,2024.1.4,None,2024-07-02 10h14.58.692550 +0900,
Images/Speaker1.jpg,Images/Speaker2.jpg,Images/Speaker3.jpg,Images/Speaker4.jpg,Audio/Speaker3_Per/P3-16-Per.wav,Speaker3,گوینده۳,1,15,95,55,,,,,56.83783895899978,,,,,,,,,,,,,,,,,,,,,,,,,,,,,,,,,,,,,,,,,47.60379329200077,0.0,False,47.60397300000113,592451,001,2024-07-02_10h14.53.673,5-29,2024.1.4,None,2024-07-02 10h14.58.692550 +0900,
Images/Speaker1.jpg,Images/Speaker2.jpg,Images/Speaker3.jpg,Images/Speaker4.jpg,Audio/Speaker3_Per/P3-20-Per.wav,Speaker3,گوینده۳,1,16,96,59,,,,,56.83783895899978,,,,,,,,,,,,,,,,,,,,,,,,,,,,,,,,,,,,,,,,,47.61988266700064,0.0,False,47.620061124998756,592451,001,2024-07-02_10h14.53.673,5-29,2024.1.4,None,2024-07-02 10h14.58.692550 +0900,
Images/Speaker1.jpg,Images/Speaker2.jpg,Images/Speaker3.jpg,Images/Speaker4.jpg,Audio/Speaker3_Per/P3-12-Per.wav,Speaker3,گوینده۳,1,17,97,51,,,,,56.83783895899978,,,,,,,,,,,,,,,,,,,,,,,,,,,,,,,,,,,,,,,,,47.63595070900192,0.0,False,47.63616220900076,592451,001,2024-07-02_10h14.53.673,5-29,2024.1.4,None,2024-07-02 10h14.58.692550 +0900,
Images/Speaker1.jpg,Images/Speaker2.jpg,Images/Speaker3.jpg,Images/Speaker4.jpg,Audio/Speaker3_Per/P3-10-Per.wav,Speaker3,گوینده۳,1,18,98,49,,,,,56.83783895899978,,,,,,,,,,,,,,,,,,,,,,,,,,,,,,,,,,,,,,,,,47.6520334170018,0.0,False,47.652204917001654,592451,001,2024-07-02_10h14.53.673,5-29,2024.1.4,None,2024-07-02 10h14.58.692550 +0900,
Images/Speaker1.jpg,Images/Speaker2.jpg,Images/Speaker3.jpg,Images/Speaker4.jpg,Audio/Speaker4_Per/P4-4-Per.wav,Speaker4,گوینده۴,1,19,99,63,,,,,56.83783895899978,,,,,,,,,,,,,,,,,,,,,,,,,,,,,,,,,,,,,,,,,47.66867683400051,0.0,False,47.66884358400057,592451,001,2024-07-02_10h14.53.673,5-29,2024.1.4,None,2024-07-02 10h14.58.692550 +0900,
Images/Speaker1.jpg,Images/Speaker2.jpg,Images/Speaker3.jpg,Images/Speaker4.jpg,Audio/Speaker4_Per/P4-3-Per.wav,Speaker4,گوینده۴,1,20,100,62,,,,,56.83783895899978,,,,,,,,,,,,,,,,,,,,,,,,,,,,,,,,,,,,,,,,,47.684768792001705,0.0,False,47.684965584001475,592451,001,2024-07-02_10h14.53.673,5-29,2024.1.4,None,2024-07-02 10h14.58.692550 +0900,
Images/Speaker1.jpg,Images/Speaker2.jpg,Images/Speaker3.jpg,Images/Speaker4.jpg,Audio/Speaker1_Per/P1-18-Per.wav,Speaker1,گوینده ۱,1,21,101,17,,,,,56.83783895899978,,,,,,,,,,,,,,,,,,,,,,,,,,,,,,,,,,,,,,,,,47.70087129199965,0.0,False,47.70105216700176,592451,001,2024-07-02_10h14.53.673,5-29,2024.1.4,None,2024-07-02 10h14.58.692550 +0900,
Images/Speaker1.jpg,Images/Speaker2.jpg,Images/Speaker3.jpg,Images/Speaker4.jpg,Audio/Speaker1_Per/P1-4-Per.wav,Speaker1,گوینده ۱,1,22,102,3,,,,,56.83783895899978,,,,,,,,,,,,,,,,,,,,,,,,,,,,,,,,,,,,,,,,,47.7169368750001,0.0,False,47.717117291998875,592451,001,2024-07-02_10h14.53.673,5-29,2024.1.4,None,2024-07-02 10h14.58.692550 +0900,
Images/Speaker1.jpg,Images/Speaker2.jpg,Images/Speaker3.jpg,Images/Speaker4.jpg,Audio/Speaker4_Per/P4-1-Per.wav,Speaker4,گوینده۴,1,23,103,60,,,,,56.83783895899978,,,,,,,,,,,,,,,,,,,,,,,,,,,,,,,,,,,,,,,,,47.73363975000029,0.0,False,47.733805167001265,592451,001,2024-07-02_10h14.53.673,5-29,2024.1.4,None,2024-07-02 10h14.58.692550 +0900,
Images/Speaker1.jpg,Images/Speaker2.jpg,Images/Speaker3.jpg,Images/Speaker4.jpg,Audio/Speaker4_Per/P4-10-Per.wav,Speaker4,گوینده۴,1,24,104,69,,,,,56.83783895899978,,,,,,,,,,,,,,,,,,,,,,,,,,,,,,,,,,,,,,,,,47.74965620900184,0.0,False,47.74986070900195,592451,001,2024-07-02_10h14.53.673,5-29,2024.1.4,None,2024-07-02 10h14.58.692550 +0900,
Images/Speaker1.jpg,Images/Speaker2.jpg,Images/Speaker3.jpg,Images/Speaker4.jpg,Audio/Speaker4_Per/P4-20-Per.wav,Speaker4,گوینده۴,1,25,105,79,,,,,56.83783895899978,,,,,,,,,,,,,,,,,,,,,,,,,,,,,,,,,,,,,,,,,47.76573762499902,0.0,False,47.76594466700044,592451,001,2024-07-02_10h14.53.673,5-29,2024.1.4,None,2024-07-02 10h14.58.692550 +0900,
Images/Speaker1.jpg,Images/Speaker2.jpg,Images/Speaker3.jpg,Images/Speaker4.jpg,Audio/Speaker2_Per/P2-10-Per.wav,Speaker2,گوینده۲,1,26,106,29,,,,,56.83783895899978,,,,,,,,,,,,,,,,,,,,,,,,,,,,,,,,,,,,,,,,,47.78177587499886,0.0,False,47.7820112920017,592451,001,2024-07-02_10h14.53.673,5-29,2024.1.4,None,2024-07-02 10h14.58.692550 +0900,
Images/Speaker1.jpg,Images/Speaker2.jpg,Images/Speaker3.jpg,Images/Speaker4.jpg,Audio/Speaker3_Per/P3-4-Per.wav,Speaker3,گوینده۳,1,27,107,43,,,,,56.83783895899978,,,,,,,,,,,,,,,,,,,,,,,,,,,,,,,,,,,,,,,,,47.79863012500209,0.0,False,47.79879699999947,592451,001,2024-07-02_10h14.53.673,5-29,2024.1.4,None,2024-07-02 10h14.58.692550 +0900,
Images/Speaker1.jpg,Images/Speaker2.jpg,Images/Speaker3.jpg,Images/Speaker4.jpg,Audio/Speaker1_Per/P1-2-Per.wav,Speaker1,گوینده ۱,1,28,108,1,,,,,56.83783895899978,,,,,,,,,,,,,,,,,,,,,,,,,,,,,,,,,,,,,,,,,47.8144767920021,0.0,False,47.81462845900023,592451,001,2024-07-02_10h14.53.673,5-29,2024.1.4,None,2024-07-02 10h14.58.692550 +0900,
Images/Speaker1.jpg,Images/Speaker2.jpg,Images/Speaker3.jpg,Images/Speaker4.jpg,Audio/Speaker4_Per/P4-18-Per.wav,Speaker4,گوینده۴,1,29,109,77,,,,,56.83783895899978,,,,,,,,,,,,,,,,,,,,,,,,,,,,,,,,,,,,,,,,,47.830412416999025,0.0,False,47.83061749999979,592451,001,2024-07-02_10h14.53.673,5-29,2024.1.4,None,2024-07-02 10h14.58.692550 +0900,
Images/Speaker1.jpg,Images/Speaker2.jpg,Images/Speaker3.jpg,Images/Speaker4.jpg,Audio/Speaker1_Per/P1-19-Per.wav,Speaker1,گوینده ۱,1,30,110,18,,,,,56.83783895899978,,,,,,,,,,,,,,,,,,,,,,,,,,,,,,,,,,,,,,,,,47.84657283400156,0.0,False,47.84675387500101,592451,001,2024-07-02_10h14.53.673,5-29,2024.1.4,None,2024-07-02 10h14.58.692550 +0900,
Images/Speaker1.jpg,Images/Speaker2.jpg,Images/Speaker3.jpg,Images/Speaker4.jpg,Audio/Speaker4_Per/P4-5-Per.wav,Speaker4,گوینده۴,1,31,111,64,,,,,56.83783895899978,,,,,,,,,,,,,,,,,,,,,,,,,,,,,,,,,,,,,,,,,47.86333429200022,0.0,False,47.86350274999859,592451,001,2024-07-02_10h14.53.673,5-29,2024.1.4,None,2024-07-02 10h14.58.692550 +0900,
Images/Speaker1.jpg,Images/Speaker2.jpg,Images/Speaker3.jpg,Images/Speaker4.jpg,Audio/Speaker3_Per/P3-17-Per.wav,Speaker3,گوینده۳,1,32,112,56,,,,,56.83783895899978,,,,,,,,,,,,,,,,,,,,,,,,,,,,,,,,,,,,,,,,,47.87945475000015,0.0,False,47.87963858399962,592451,001,2024-07-02_10h14.53.673,5-29,2024.1.4,None,2024-07-02 10h14.58.692550 +0900,
Images/Speaker1.jpg,Images/Speaker2.jpg,Images/Speaker3.jpg,Images/Speaker4.jpg,Audio/Speaker1_Per/P1-11-Per.wav,Speaker1,گوینده ۱,1,33,113,10,,,,,56.83783895899978,,,,,,,,,,,,,,,,,,,,,,,,,,,,,,,,,,,,,,,,,47.895563459002005,0.0,False,47.895801624999876,592451,001,2024-07-02_10h14.53.673,5-29,2024.1.4,None,2024-07-02 10h14.58.692550 +0900,
Images/Speaker1.jpg,Images/Speaker2.jpg,Images/Speaker3.jpg,Images/Speaker4.jpg,Audio/Speaker1_Per/P1-6-Per.wav,Speaker1,گوینده ۱,1,34,114,5,,,,,56.83783895899978,,,,,,,,,,,,,,,,,,,,,,,,,,,,,,,,,,,,,,,,,47.91189941700213,0.0,False,47.912093709001056,592451,001,2024-07-02_10h14.53.673,5-29,2024.1.4,None,2024-07-02 10h14.58.692550 +0900,
Images/Speaker1.jpg,Images/Speaker2.jpg,Images/Speaker3.jpg,Images/Speaker4.jpg,Audio/Speaker3_Per/P3-18-Per.wav,Speaker3,گوینده۳,1,35,115,57,,,,,56.83783895899978,,,,,,,,,,,,,,,,,,,,,,,,,,,,,,,,,,,,,,,,,47.92866200000208,0.0,False,47.928855124999245,592451,001,2024-07-02_10h14.53.673,5-29,2024.1.4,None,2024-07-02 10h14.58.692550 +0900,
Images/Speaker1.jpg,Images/Speaker2.jpg,Images/Speaker3.jpg,Images/Speaker4.jpg,Audio/Speaker4_Per/P4-7-Per.wav,Speaker4,گوینده۴,1,36,116,66,,,,,56.83783895899978,,,,,,,,,,,,,,,,,,,,,,,,,,,,,,,,,,,,,,,,,47.94479275000049,0.0,False,47.94502133399874,592451,001,2024-07-02_10h14.53.673,5-29,2024.1.4,None,2024-07-02 10h14.58.692550 +0900,
Images/Speaker1.jpg,Images/Speaker2.jpg,Images/Speaker3.jpg,Images/Speaker4.jpg,Audio/Speaker2_Per/P2-14-Per.wav,Speaker2,گوینده۲,1,37,117,33,,,,,56.83783895899978,,,,,,,,,,,,,,,,,,,,,,,,,,,,,,,,,,,,,,,,,47.9612449999986,0.0,False,47.96140758399997,592451,001,2024-07-02_10h14.53.673,5-29,2024.1.4,None,2024-07-02 10h14.58.692550 +0900,
Images/Speaker1.jpg,Images/Speaker2.jpg,Images/Speaker3.jpg,Images/Speaker4.jpg,Audio/Speaker1_Per/P1-1-Per.wav,Speaker1,گوینده ۱,1,38,118,0,,,,,56.83783895899978,,,,,,,,,,,,,,,,,,,,,,,,,,,,,,,,,,,,,,,,,47.97732958399865,0.0,False,47.97751458399944,592451,001,2024-07-02_10h14.53.673,5-29,2024.1.4,None,2024-07-02 10h14.58.692550 +0900,
Images/Speaker1.jpg,Images/Speaker2.jpg,Images/Speaker3.jpg,Images/Speaker4.jpg,Audio/Speaker2_Per/P2-8-Per.wav,Speaker2,گوینده۲,1,39,119,27,,,,,56.83783895899978,,,,,,,,,,,,,,,,,,,,,,,,,,,,,,,,,,,,,,,,,47.99405683399891,0.0,False,47.994240750002064,592451,001,2024-07-02_10h14.53.673,5-29,2024.1.4,None,2024-07-02 10h14.58.692550 +0900,
Images/Speaker1.jpg,Images/Speaker2.jpg,Images/Speaker3.jpg,Images/Speaker4.jpg,Audio/Speaker2_Per/P2-15-Per.wav,Speaker2,گوینده۲,1,40,120,34,,,,,56.83783895899978,,,,,,,,,,,,,,,,,,,,,,,,,,,,,,,,,,,,,,,,,48.01016279200121,0.0,False,48.01034283400077,592451,001,2024-07-02_10h14.53.673,5-29,2024.1.4,None,2024-07-02 10h14.58.692550 +0900,
Images/Speaker1.jpg,Images/Speaker2.jpg,Images/Speaker3.jpg,Images/Speaker4.jpg,Audio/Speaker1_Per/P1-3-Per.wav,Speaker1,گوینده ۱,1,41,121,2,,,,,56.83783895899978,,,,,,,,,,,,,,,,,,,,,,,,,,,,,,,,,,,,,,,,,48.02621304200147,0.0,False,48.026388083999336,592451,001,2024-07-02_10h14.53.673,5-29,2024.1.4,None,2024-07-02 10h14.58.692550 +0900,
Images/Speaker1.jpg,Images/Speaker2.jpg,Images/Speaker3.jpg,Images/Speaker4.jpg,Audio/Speaker4_Per/P4-2-Per.wav,Speaker4,گوینده۴,1,42,122,61,,,,,56.83783895899978,,,,,,,,,,,,,,,,,,,,,,,,,,,,,,,,,,,,,,,,,48.042365792000055,0.0,False,48.042542833998596,592451,001,2024-07-02_10h14.53.673,5-29,2024.1.4,None,2024-07-02 10h14.58.692550 +0900,
Images/Speaker1.jpg,Images/Speaker2.jpg,Images/Speaker3.jpg,Images/Speaker4.jpg,Audio/Speaker3_Per/P3-7-Per.wav,Speaker3,گوینده۳,1,43,123,46,,,,,56.83783895899978,,,,,,,,,,,,,,,,,,,,,,,,,,,,,,,,,,,,,,,,,48.05905191700003,0.0,False,48.0592237919991,592451,001,2024-07-02_10h14.53.673,5-29,2024.1.4,None,2024-07-02 10h14.58.692550 +0900,
Images/Speaker1.jpg,Images/Speaker2.jpg,Images/Speaker3.jpg,Images/Speaker4.jpg,Audio/Speaker1_Per/P1-7-Per.wav,Speaker1,گوینده ۱,1,44,124,6,,,,,56.83783895899978,,,,,,,,,,,,,,,,,,,,,,,,,,,,,,,,,,,,,,,,,48.07519250000041,0.0,False,48.075361958999565,592451,001,2024-07-02_10h14.53.673,5-29,2024.1.4,None,2024-07-02 10h14.58.692550 +0900,
Images/Speaker1.jpg,Images/Speaker2.jpg,Images/Speaker3.jpg,Images/Speaker4.jpg,Audio/Speaker2_Per/P2-17-Per.wav,Speaker2,گوینده۲,1,45,125,36,,,,,56.83783895899978,,,,,,,,,,,,,,,,,,,,,,,,,,,,,,,,,,,,,,,,,48.09123462500065,0.0,False,48.091454875000636,592451,001,2024-07-02_10h14.53.673,5-29,2024.1.4,None,2024-07-02 10h14.58.692550 +0900,
Images/Speaker1.jpg,Images/Speaker2.jpg,Images/Speaker3.jpg,Images/Speaker4.jpg,Audio/Speaker3_Per/P3-8-Per.wav,Speaker3,گوینده۳,1,46,126,47,,,,,56.83783895899978,,,,,,,,,,,,,,,,,,,,,,,,,,,,,,,,,,,,,,,,,48.10734824999963,0.0,False,48.10750562500107,592451,001,2024-07-02_10h14.53.673,5-29,2024.1.4,None,2024-07-02 10h14.58.692550 +0900,
Images/Speaker1.jpg,Images/Speaker2.jpg,Images/Speaker3.jpg,Images/Speaker4.jpg,Audio/Speaker3_Per/P3-9-Per.wav,Speaker3,گوینده۳,1,47,127,48,,,,,56.83783895899978,,,,,,,,,,,,,,,,,,,,,,,,,,,,,,,,,,,,,,,,,48.123982042001444,0.0,False,48.1241438750003,592451,001,2024-07-02_10h14.53.673,5-29,2024.1.4,None,2024-07-02 10h14.58.692550 +0900,
Images/Speaker1.jpg,Images/Speaker2.jpg,Images/Speaker3.jpg,Images/Speaker4.jpg,Audio/Speaker3_Per/P3-15-Per.wav,Speaker3,گوینده۳,1,48,128,54,,,,,56.83783895899978,,,,,,,,,,,,,,,,,,,,,,,,,,,,,,,,,,,,,,,,,48.140343375001976,0.0,False,48.140512624999246,592451,001,2024-07-02_10h14.53.673,5-29,2024.1.4,None,2024-07-02 10h14.58.692550 +0900,
Images/Speaker1.jpg,Images/Speaker2.jpg,Images/Speaker3.jpg,Images/Speaker4.jpg,Audio/Speaker2_Per/P2-11-Per.wav,Speaker2,گوینده۲,1,49,129,30,,,,,56.83783895899978,,,,,,,,,,,,,,,,,,,,,,,,,,,,,,,,,,,,,,,,,48.15639374999955,0.0,False,48.15653408399885,592451,001,2024-07-02_10h14.53.673,5-29,2024.1.4,None,2024-07-02 10h14.58.692550 +0900,
Images/Speaker1.jpg,Images/Speaker2.jpg,Images/Speaker3.jpg,Images/Speaker4.jpg,Audio/Speaker4_Per/P4-11-Per.wav,Speaker4,گوینده۴,1,50,130,70,,,,,56.83783895899978,,,,,,,,,,,,,,,,,,,,,,,,,,,,,,,,,,,,,,,,,48.17236112500177,0.0,False,48.172528375002,592451,001,2024-07-02_10h14.53.673,5-29,2024.1.4,None,2024-07-02 10h14.58.692550 +0900,
Images/Speaker1.jpg,Images/Speaker2.jpg,Images/Speaker3.jpg,Images/Speaker4.jpg,Audio/Speaker2_Per/P2-20-Per.wav,Speaker2,گوینده۲,1,51,131,39,,,,,56.83783895899978,,,,,,,,,,,,,,,,,,,,,,,,,,,,,,,,,,,,,,,,,48.18895029200212,0.0,False,48.1891077500004,592451,001,2024-07-02_10h14.53.673,5-29,2024.1.4,None,2024-07-02 10h14.58.692550 +0900,
Images/Speaker1.jpg,Images/Speaker2.jpg,Images/Speaker3.jpg,Images/Speaker4.jpg,Audio/Speaker4_Per/P4-13-Per.wav,Speaker4,گوینده۴,1,52,132,72,,,,,56.83783895899978,,,,,,,,,,,,,,,,,,,,,,,,,,,,,,,,,,,,,,,,,48.20494049999979,0.0,False,48.205107208999834,592451,001,2024-07-02_10h14.53.673,5-29,2024.1.4,None,2024-07-02 10h14.58.692550 +0900,
Images/Speaker1.jpg,Images/Speaker2.jpg,Images/Speaker3.jpg,Images/Speaker4.jpg,Audio/Speaker4_Per/P4-6-Per.wav,Speaker4,گوینده۴,1,53,133,65,,,,,56.83783895899978,,,,,,,,,,,,,,,,,,,,,,,,,,,,,,,,,,,,,,,,,48.221050084001035,0.0,False,48.22124079200148,592451,001,2024-07-02_10h14.53.673,5-29,2024.1.4,None,2024-07-02 10h14.58.692550 +0900,
Images/Speaker1.jpg,Images/Speaker2.jpg,Images/Speaker3.jpg,Images/Speaker4.jpg,Audio/Speaker3_Per/P3-5-Per.wav,Speaker3,گوینده۳,1,54,134,44,,,,,56.83783895899978,,,,,,,,,,,,,,,,,,,,,,,,,,,,,,,,,,,,,,,,,48.237146916999336,0.0,False,48.23732433400073,592451,001,2024-07-02_10h14.53.673,5-29,2024.1.4,None,2024-07-02 10h14.58.692550 +0900,
Images/Speaker1.jpg,Images/Speaker2.jpg,Images/Speaker3.jpg,Images/Speaker4.jpg,Audio/Speaker4_Per/P4-19-Per.wav,Speaker4,گوینده۴,1,55,135,78,,,,,56.83783895899978,,,,,,,,,,,,,,,,,,,,,,,,,,,,,,,,,,,,,,,,,48.25389366699892,0.0,False,48.254048499999044,592451,001,2024-07-02_10h14.53.673,5-29,2024.1.4,None,2024-07-02 10h14.58.692550 +0900,
Images/Speaker1.jpg,Images/Speaker2.jpg,Images/Speaker3.jpg,Images/Speaker4.jpg,Audio/Speaker3_Per/P3-13-Per.wav,Speaker3,گوینده۳,1,56,136,52,,,,,56.83783895899978,,,,,,,,,,,,,,,,,,,,,,,,,,,,,,,,,,,,,,,,,48.26991683400047,0.0,False,48.27008929200019,592451,001,2024-07-02_10h14.53.673,5-29,2024.1.4,None,2024-07-02 10h14.58.692550 +0900,
Images/Speaker1.jpg,Images/Speaker2.jpg,Images/Speaker3.jpg,Images/Speaker4.jpg,Audio/Speaker2_Per/P2-7-Per.wav,Speaker2,گوینده۲,1,57,137,26,,,,,56.83783895899978,,,,,,,,,,,,,,,,,,,,,,,,,,,,,,,,,,,,,,,,,48.285916166998504,0.0,False,48.28614466699946,592451,001,2024-07-02_10h14.53.673,5-29,2024.1.4,None,2024-07-02 10h14.58.692550 +0900,
Images/Speaker1.jpg,Images/Speaker2.jpg,Images/Speaker3.jpg,Images/Speaker4.jpg,Audio/Speaker4_Per/P4-12-Per.wav,Speaker4,گوینده۴,1,58,138,71,,,,,56.83783895899978,,,,,,,,,,,,,,,,,,,,,,,,,,,,,,,,,,,,,,,,,48.30210716700094,0.0,False,48.302261584001826,592451,001,2024-07-02_10h14.53.673,5-29,2024.1.4,None,2024-07-02 10h14.58.692550 +0900,
Images/Speaker1.jpg,Images/Speaker2.jpg,Images/Speaker3.jpg,Images/Speaker4.jpg,Audio/Speaker4_Per/P4-17-Per.wav,Speaker4,گوینده۴,1,59,139,76,,,,,56.83783895899978,,,,,,,,,,,,,,,,,,,,,,,,,,,,,,,,,,,,,,,,,48.318679791998875,0.0,False,48.31888137500209,592451,001,2024-07-02_10h14.53.673,5-29,2024.1.4,None,2024-07-02 10h14.58.692550 +0900,
Images/Speaker1.jpg,Images/Speaker2.jpg,Images/Speaker3.jpg,Images/Speaker4.jpg,Audio/Speaker1_Per/P1-16-Per.wav,Speaker1,گوینده ۱,1,60,140,15,,,,,56.83783895899978,,,,,,,,,,,,,,,,,,,,,,,,,,,,,,,,,,,,,,,,,48.33491162499922,0.0,False,48.33507399999871,592451,001,2024-07-02_10h14.53.673,5-29,2024.1.4,None,2024-07-02 10h14.58.692550 +0900,
Images/Speaker1.jpg,Images/Speaker2.jpg,Images/Speaker3.jpg,Images/Speaker4.jpg,Audio/Speaker3_Per/P3-11-Per.wav,Speaker3,گوینده۳,1,61,141,50,,,,,56.83783895899978,,,,,,,,,,,,,,,,,,,,,,,,,,,,,,,,,,,,,,,,,48.35088149999865,0.0,False,48.351034292001714,592451,001,2024-07-02_10h14.53.673,5-29,2024.1.4,None,2024-07-02 10h14.58.692550 +0900,
Images/Speaker1.jpg,Images/Speaker2.jpg,Images/Speaker3.jpg,Images/Speaker4.jpg,Audio/Speaker1_Per/P1-9-Per.wav,Speaker1,گوینده ۱,1,62,142,8,,,,,56.83783895899978,,,,,,,,,,,,,,,,,,,,,,,,,,,,,,,,,,,,,,,,,48.36709445900124,0.0,False,48.36726387499948,592451,001,2024-07-02_10h14.53.673,5-29,2024.1.4,None,2024-07-02 10h14.58.692550 +0900,
Images/Speaker1.jpg,Images/Speaker2.jpg,Images/Speaker3.jpg,Images/Speaker4.jpg,Audio/Speaker2_Per/P2-5-Per.wav,Speaker2,گوینده۲,1,63,143,24,,,,,56.83783895899978,,,,,,,,,,,,,,,,,,,,,,,,,,,,,,,,,,,,,,,,,48.38373204199888,0.0,False,48.38389591699888,592451,001,2024-07-02_10h14.53.673,5-29,2024.1.4,None,2024-07-02 10h14.58.692550 +0900,
Images/Speaker1.jpg,Images/Speaker2.jpg,Images/Speaker3.jpg,Images/Speaker4.jpg,Audio/Speaker2_Per/P2-4-Per.wav,Speaker2,گوینده۲,1,64,144,23,,,,,56.83783895899978,,,,,,,,,,,,,,,,,,,,,,,,,,,,,,,,,,,,,,,,,48.399761833999946,0.0,False,48.40001266699983,592451,001,2024-07-02_10h14.53.673,5-29,2024.1.4,None,2024-07-02 10h14.58.692550 +0900,
Images/Speaker1.jpg,Images/Speaker2.jpg,Images/Speaker3.jpg,Images/Speaker4.jpg,Audio/Speaker1_Per/P1-5-Per.wav,Speaker1,گوینده ۱,1,65,145,4,,,,,56.83783895899978,,,,,,,,,,,,,,,,,,,,,,,,,,,,,,,,,,,,,,,,,48.415865375001886,0.0,False,48.416058625000005,592451,001,2024-07-02_10h14.53.673,5-29,2024.1.4,None,2024-07-02 10h14.58.692550 +0900,
Images/Speaker1.jpg,Images/Speaker2.jpg,Images/Speaker3.jpg,Images/Speaker4.jpg,Audio/Speaker2_Per/P2-13-Per.wav,Speaker2,گوینده۲,1,66,146,32,,,,,56.83783895899978,,,,,,,,,,,,,,,,,,,,,,,,,,,,,,,,,,,,,,,,,48.43196220900063,0.0,False,48.43215354199856,592451,001,2024-07-02_10h14.53.673,5-29,2024.1.4,None,2024-07-02 10h14.58.692550 +0900,
Images/Speaker1.jpg,Images/Speaker2.jpg,Images/Speaker3.jpg,Images/Speaker4.jpg,Audio/Speaker3_Per/P3-2-Per.wav,Speaker3,گوینده۳,1,67,147,41,,,,,56.83783895899978,,,,,,,,,,,,,,,,,,,,,,,,,,,,,,,,,,,,,,,,,48.44872254200163,0.0,False,48.44889308400161,592451,001,2024-07-02_10h14.53.673,5-29,2024.1.4,None,2024-07-02 10h14.58.692550 +0900,
Images/Speaker1.jpg,Images/Speaker2.jpg,Images/Speaker3.jpg,Images/Speaker4.jpg,Audio/Speaker2_Per/P2-9-Per.wav,Speaker2,گوینده۲,1,68,148,28,,,,,56.83783895899978,,,,,,,,,,,,,,,,,,,,,,,,,,,,,,,,,,,,,,,,,48.46476587500001,0.0,False,48.464942250000604,592451,001,2024-07-02_10h14.53.673,5-29,2024.1.4,None,2024-07-02 10h14.58.692550 +0900,
Images/Speaker1.jpg,Images/Speaker2.jpg,Images/Speaker3.jpg,Images/Speaker4.jpg,Audio/Speaker2_Per/P2-12-Per.wav,Speaker2,گوینده۲,1,69,149,31,,,,,56.83783895899978,,,,,,,,,,,,,,,,,,,,,,,,,,,,,,,,,,,,,,,,,48.48077654200097,0.0,False,48.480939125001896,592451,001,2024-07-02_10h14.53.673,5-29,2024.1.4,None,2024-07-02 10h14.58.692550 +0900,
Images/Speaker1.jpg,Images/Speaker2.jpg,Images/Speaker3.jpg,Images/Speaker4.jpg,Audio/Speaker2_Per/P2-18-Per.wav,Speaker2,گوینده۲,1,70,150,37,,,,,56.83783895899978,,,,,,,,,,,,,,,,,,,,,,,,,,,,,,,,,,,,,,,,,48.49672554200151,0.0,False,48.496916000000056,592451,001,2024-07-02_10h14.53.673,5-29,2024.1.4,None,2024-07-02 10h14.58.692550 +0900,
Images/Speaker1.jpg,Images/Speaker2.jpg,Images/Speaker3.jpg,Images/Speaker4.jpg,Audio/Speaker1_Per/P1-10-Per.wav,Speaker1,گوینده ۱,1,71,151,9,,,,,56.83783895899978,,,,,,,,,,,,,,,,,,,,,,,,,,,,,,,,,,,,,,,,,48.51338670900077,0.0,False,48.513546709000366,592451,001,2024-07-02_10h14.53.673,5-29,2024.1.4,None,2024-07-02 10h14.58.692550 +0900,
Images/Speaker1.jpg,Images/Speaker2.jpg,Images/Speaker3.jpg,Images/Speaker4.jpg,Audio/Speaker3_Per/P3-6-Per.wav,Speaker3,گوینده۳,1,72,152,45,,,,,56.83783895899978,,,,,,,,,,,,,,,,,,,,,,,,,,,,,,,,,,,,,,,,,48.52939054200033,0.0,False,48.5295691249994,592451,001,2024-07-02_10h14.53.673,5-29,2024.1.4,None,2024-07-02 10h14.58.692550 +0900,
Images/Speaker1.jpg,Images/Speaker2.jpg,Images/Speaker3.jpg,Images/Speaker4.jpg,Audio/Speaker1_Per/P1-15-Per.wav,Speaker1,گوینده ۱,1,73,153,14,,,,,56.83783895899978,,,,,,,,,,,,,,,,,,,,,,,,,,,,,,,,,,,,,,,,,48.54544304199953,0.0,False,48.54561037500025,592451,001,2024-07-02_10h14.53.673,5-29,2024.1.4,None,2024-07-02 10h14.58.692550 +0900,
Images/Speaker1.jpg,Images/Speaker2.jpg,Images/Speaker3.jpg,Images/Speaker4.jpg,Audio/Speaker2_Per/P2-6-Per.wav,Speaker2,گوینده۲,1,74,154,25,,,,,56.83783895899978,,,,,,,,,,,,,,,,,,,,,,,,,,,,,,,,,,,,,,,,,48.56152383399967,0.0,False,48.56167020900102,592451,001,2024-07-02_10h14.53.673,5-29,2024.1.4,None,2024-07-02 10h14.58.692550 +0900,
Images/Speaker1.jpg,Images/Speaker2.jpg,Images/Speaker3.jpg,Images/Speaker4.jpg,Audio/Speaker1_Per/P1-20-Per.wav,Speaker1,گوینده ۱,1,75,155,19,,,,,56.83783895899978,,,,,,,,,,,,,,,,,,,,,,,,,,,,,,,,,,,,,,,,,48.578503959000955,0.0,False,48.57870812500187,592451,001,2024-07-02_10h14.53.673,5-29,2024.1.4,None,2024-07-02 10h14.58.692550 +0900,
Images/Speaker1.jpg,Images/Speaker2.jpg,Images/Speaker3.jpg,Images/Speaker4.jpg,Audio/Speaker4_Per/P4-8-Per.wav,Speaker4,گوینده۴,1,76,156,67,,,,,56.83783895899978,,,,,,,,,,,,,,,,,,,,,,,,,,,,,,,,,,,,,,,,,48.594558042001154,0.0,False,48.59476266699858,592451,001,2024-07-02_10h14.53.673,5-29,2024.1.4,None,2024-07-02 10h14.58.692550 +0900,
Images/Speaker1.jpg,Images/Speaker2.jpg,Images/Speaker3.jpg,Images/Speaker4.jpg,Audio/Speaker4_Per/P4-15-Per.wav,Speaker4,گوینده۴,1,77,157,74,,,,,56.83783895899978,,,,,,,,,,,,,,,,,,,,,,,,,,,,,,,,,,,,,,,,,48.61059254200154,0.0,False,48.610751291998895,592451,001,2024-07-02_10h14.53.673,5-29,2024.1.4,None,2024-07-02 10h14.58.692550 +0900,
Images/Speaker1.jpg,Images/Speaker2.jpg,Images/Speaker3.jpg,Images/Speaker4.jpg,Audio/Speaker1_Per/P1-12-Per.wav,Speaker1,گوینده ۱,1,78,158,11,,,,,56.83783895899978,,,,,,,,,,,,,,,,,,,,,,,,,,,,,,,,,,,,,,,,,48.62653533399862,0.0,False,48.626709833999485,592451,001,2024-07-02_10h14.53.673,5-29,2024.1.4,None,2024-07-02 10h14.58.692550 +0900,
Images/Speaker1.jpg,Images/Speaker2.jpg,Images/Speaker3.jpg,Images/Speaker4.jpg,Audio/Speaker1_Per/P1-8-Per.wav,Speaker1,گوینده ۱,1,79,159,7,,,,,56.83783895899978,,,,,,,,,,,,,,,,,,,,,,,,,,,,,,,,,,,,,,,,,48.64317004199984,0.0,False,48.64334191699891,592451,001,2024-07-02_10h14.53.673,5-29,2024.1.4,None,2024-07-02 10h14.58.692550 +0900,
Images/Speaker1.jpg,Images/Speaker2.jpg,Images/Speaker3.jpg,Images/Speaker4.jpg,Audio/Speaker1_Per/P1-2-Per.wav,Speaker1,گوینده ۱,2,0,160,1,,,,,56.83783895899978,,,,,,,,,,,,,,,,,,,,,,,,,,,,,,,,,,,,,,,,,48.65925666700059,0.0,False,48.65942512499896,592451,001,2024-07-02_10h14.53.673,5-29,2024.1.4,None,2024-07-02 10h14.58.692550 +0900,
Images/Speaker1.jpg,Images/Speaker2.jpg,Images/Speaker3.jpg,Images/Speaker4.jpg,Audio/Speaker1_Per/P1-18-Per.wav,Speaker1,گوینده ۱,2,1,161,17,,,,,56.83783895899978,,,,,,,,,,,,,,,,,,,,,,,,,,,,,,,,,,,,,,,,,48.67526408399863,0.0,False,48.67549812500147,592451,001,2024-07-02_10h14.53.673,5-29,2024.1.4,None,2024-07-02 10h14.58.692550 +0900,
Images/Speaker1.jpg,Images/Speaker2.jpg,Images/Speaker3.jpg,Images/Speaker4.jpg,Audio/Speaker1_Per/P1-16-Per.wav,Speaker1,گوینده ۱,2,2,162,15,,,,,56.83783895899978,,,,,,,,,,,,,,,,,,,,,,,,,,,,,,,,,,,,,,,,,48.69143083400195,0.0,False,48.69159420900178,592451,001,2024-07-02_10h14.53.673,5-29,2024.1.4,None,2024-07-02 10h14.58.692550 +0900,
Images/Speaker1.jpg,Images/Speaker2.jpg,Images/Speaker3.jpg,Images/Speaker4.jpg,Audio/Speaker1_Per/P1-17-Per.wav,Speaker1,گوینده ۱,2,3,163,16,,,,,56.83783895899978,,,,,,,,,,,,,,,,,,,,,,,,,,,,,,,,,,,,,,,,,48.70810145900032,0.0,False,48.70826175000184,592451,001,2024-07-02_10h14.53.673,5-29,2024.1.4,None,2024-07-02 10h14.58.692550 +0900,
Images/Speaker1.jpg,Images/Speaker2.jpg,Images/Speaker3.jpg,Images/Speaker4.jpg,Audio/Speaker1_Per/P1-19-Per.wav,Speaker1,گوینده ۱,2,4,164,18,,,,,56.83783895899978,,,,,,,,,,,,,,,,,,,,,,,,,,,,,,,,,,,,,,,,,48.7241424169988,0.0,False,48.72431529200185,592451,001,2024-07-02_10h14.53.673,5-29,2024.1.4,None,2024-07-02 10h14.58.692550 +0900,
Images/Speaker1.jpg,Images/Speaker2.jpg,Images/Speaker3.jpg,Images/Speaker4.jpg,Audio/Speaker1_Per/P1-6-Per.wav,Speaker1,گوینده ۱,2,5,165,5,,,,,56.83783895899978,,,,,,,,,,,,,,,,,,,,,,,,,,,,,,,,,,,,,,,,,48.74017074999938,0.0,False,48.74037012500048,592451,001,2024-07-02_10h14.53.673,5-29,2024.1.4,None,2024-07-02 10h14.58.692550 +0900,
Images/Speaker1.jpg,Images/Speaker2.jpg,Images/Speaker3.jpg,Images/Speaker4.jpg,Audio/Speaker4_Per/P4-13-Per.wav,Speaker4,گوینده۴,2,6,166,72,,,,,56.83783895899978,,,,,,,,,,,,,,,,,,,,,,,,,,,,,,,,,,,,,,,,,48.75638508400152,0.0,False,48.75660599999901,592451,001,2024-07-02_10h14.53.673,5-29,2024.1.4,None,2024-07-02 10h14.58.692550 +0900,
Images/Speaker1.jpg,Images/Speaker2.jpg,Images/Speaker3.jpg,Images/Speaker4.jpg,Audio/Speaker2_Per/P2-14-Per.wav,Speaker2,گوینده۲,2,7,167,33,,,,,56.83783895899978,,,,,,,,,,,,,,,,,,,,,,,,,,,,,,,,,,,,,,,,,48.77307516699875,0.0,False,48.77323316700131,592451,001,2024-07-02_10h14.53.673,5-29,2024.1.4,None,2024-07-02 10h14.58.692550 +0900,
Images/Speaker1.jpg,Images/Speaker2.jpg,Images/Speaker3.jpg,Images/Speaker4.jpg,Audio/Speaker4_Per/P4-10-Per.wav,Speaker4,گوینده۴,2,8,168,69,,,,,56.83783895899978,,,,,,,,,,,,,,,,,,,,,,,,,,,,,,,,,,,,,,,,,48.78914595899914,0.0,False,48.789338541999314,592451,001,2024-07-02_10h14.53.673,5-29,2024.1.4,None,2024-07-02 10h14.58.692550 +0900,
Images/Speaker1.jpg,Images/Speaker2.jpg,Images/Speaker3.jpg,Images/Speaker4.jpg,Audio/Speaker3_Per/P3-3-Per.wav,Speaker3,گوینده۳,2,9,169,42,,,,,56.83783895899978,,,,,,,,,,,,,,,,,,,,,,,,,,,,,,,,,,,,,,,,,48.80519875000027,0.0,False,48.8053663339997,592451,001,2024-07-02_10h14.53.673,5-29,2024.1.4,None,2024-07-02 10h14.58.692550 +0900,
Images/Speaker1.jpg,Images/Speaker2.jpg,Images/Speaker3.jpg,Images/Speaker4.jpg,Audio/Speaker3_Per/P3-17-Per.wav,Speaker3,گوینده۳,2,10,170,56,,,,,56.83783895899978,,,,,,,,,,,,,,,,,,,,,,,,,,,,,,,,,,,,,,,,,48.82130554200194,0.0,False,48.821526416999404,592451,001,2024-07-02_10h14.53.673,5-29,2024.1.4,None,2024-07-02 10h14.58.692550 +0900,
Images/Speaker1.jpg,Images/Speaker2.jpg,Images/Speaker3.jpg,Images/Speaker4.jpg,Audio/Speaker3_Per/P3-14-Per.wav,Speaker3,گوینده۳,2,11,171,53,,,,,56.83783895899978,,,,,,,,,,,,,,,,,,,,,,,,,,,,,,,,,,,,,,,,,48.83799604199885,0.0,False,48.83817604200158,592451,001,2024-07-02_10h14.53.673,5-29,2024.1.4,None,2024-07-02 10h14.58.692550 +0900,
Images/Speaker1.jpg,Images/Speaker2.jpg,Images/Speaker3.jpg,Images/Speaker4.jpg,Audio/Speaker3_Per/P3-11-Per.wav,Speaker3,گوینده۳,2,12,172,50,,,,,56.83783895899978,,,,,,,,,,,,,,,,,,,,,,,,,,,,,,,,,,,,,,,,,48.85409054200136,0.0,False,48.854309458998614,592451,001,2024-07-02_10h14.53.673,5-29,2024.1.4,None,2024-07-02 10h14.58.692550 +0900,
Images/Speaker1.jpg,Images/Speaker2.jpg,Images/Speaker3.jpg,Images/Speaker4.jpg,Audio/Speaker2_Per/P2-11-Per.wav,Speaker2,گوینده۲,2,13,173,30,,,,,56.83783895899978,,,,,,,,,,,,,,,,,,,,,,,,,,,,,,,,,,,,,,,,,48.87023508399943,0.0,False,48.87041141699956,592451,001,2024-07-02_10h14.53.673,5-29,2024.1.4,None,2024-07-02 10h14.58.692550 +0900,
Images/Speaker1.jpg,Images/Speaker2.jpg,Images/Speaker3.jpg,Images/Speaker4.jpg,Audio/Speaker2_Per/P2-17-Per.wav,Speaker2,گوینده۲,2,14,174,36,,,,,56.83783895899978,,,,,,,,,,,,,,,,,,,,,,,,,,,,,,,,,,,,,,,,,48.886300375001156,0.0,False,48.88652287500008,592451,001,2024-07-02_10h14.53.673,5-29,2024.1.4,None,2024-07-02 10h14.58.692550 +0900,
Images/Speaker1.jpg,Images/Speaker2.jpg,Images/Speaker3.jpg,Images/Speaker4.jpg,Audio/Speaker4_Per/P4-17-Per.wav,Speaker4,گوینده۴,2,15,175,76,,,,,56.83783895899978,,,,,,,,,,,,,,,,,,,,,,,,,,,,,,,,,,,,,,,,,48.903111292001995,0.0,False,48.90327999999863,592451,001,2024-07-02_10h14.53.673,5-29,2024.1.4,None,2024-07-02 10h14.58.692550 +0900,
Images/Speaker1.jpg,Images/Speaker2.jpg,Images/Speaker3.jpg,Images/Speaker4.jpg,Audio/Speaker1_Per/P1-7-Per.wav,Speaker1,گوینده ۱,2,16,176,6,,,,,56.83783895899978,,,,,,,,,,,,,,,,,,,,,,,,,,,,,,,,,,,,,,,,,48.91916670900173,0.0,False,48.91935412499879,592451,001,2024-07-02_10h14.53.673,5-29,2024.1.4,None,2024-07-02 10h14.58.692550 +0900,
Images/Speaker1.jpg,Images/Speaker2.jpg,Images/Speaker3.jpg,Images/Speaker4.jpg,Audio/Speaker4_Per/P4-5-Per.wav,Speaker4,گوینده۴,2,17,177,64,,,,,56.83783895899978,,,,,,,,,,,,,,,,,,,,,,,,,,,,,,,,,,,,,,,,,48.93525487499937,0.0,False,48.93540145899897,592451,001,2024-07-02_10h14.53.673,5-29,2024.1.4,None,2024-07-02 10h14.58.692550 +0900,
Images/Speaker1.jpg,Images/Speaker2.jpg,Images/Speaker3.jpg,Images/Speaker4.jpg,Audio/Speaker2_Per/P2-7-Per.wav,Speaker2,گوینده۲,2,18,178,26,,,,,56.83783895899978,,,,,,,,,,,,,,,,,,,,,,,,,,,,,,,,,,,,,,,,,48.95135629200013,0.0,False,48.9515602499996,592451,001,2024-07-02_10h14.53.673,5-29,2024.1.4,None,2024-07-02 10h14.58.692550 +0900,
Images/Speaker1.jpg,Images/Speaker2.jpg,Images/Speaker3.jpg,Images/Speaker4.jpg,Audio/Speaker2_Per/P2-13-Per.wav,Speaker2,گوینده۲,2,19,179,32,,,,,56.83783895899978,,,,,,,,,,,,,,,,,,,,,,,,,,,,,,,,,,,,,,,,,48.96801720900112,0.0,False,48.9681813749994,592451,001,2024-07-02_10h14.53.673,5-29,2024.1.4,None,2024-07-02 10h14.58.692550 +0900,
Images/Speaker1.jpg,Images/Speaker2.jpg,Images/Speaker3.jpg,Images/Speaker4.jpg,Audio/Speaker2_Per/P2-20-Per.wav,Speaker2,گوینده۲,2,20,180,39,,,,,56.83783895899978,,,,,,,,,,,,,,,,,,,,,,,,,,,,,,,,,,,,,,,,,48.98405300000013,0.0,False,48.98422587499954,592451,001,2024-07-02_10h14.53.673,5-29,2024.1.4,None,2024-07-02 10h14.58.692550 +0900,
Images/Speaker1.jpg,Images/Speaker2.jpg,Images/Speaker3.jpg,Images/Speaker4.jpg,Audio/Speaker1_Per/P1-4-Per.wav,Speaker1,گوینده ۱,2,21,181,3,,,,,56.83783895899978,,,,,,,,,,,,,,,,,,,,,,,,,,,,,,,,,,,,,,,,,49.00011579200145,0.0,False,49.00032541700057,592451,001,2024-07-02_10h14.53.673,5-29,2024.1.4,None,2024-07-02 10h14.58.692550 +0900,
Images/Speaker1.jpg,Images/Speaker2.jpg,Images/Speaker3.jpg,Images/Speaker4.jpg,Audio/Speaker2_Per/P2-12-Per.wav,Speaker2,گوینده۲,2,22,182,31,,,,,56.83783895899978,,,,,,,,,,,,,,,,,,,,,,,,,,,,,,,,,,,,,,,,,49.01622441699874,0.0,False,49.01643037499889,592451,001,2024-07-02_10h14.53.673,5-29,2024.1.4,None,2024-07-02 10h14.58.692550 +0900,
Images/Speaker1.jpg,Images/Speaker2.jpg,Images/Speaker3.jpg,Images/Speaker4.jpg,Audio/Speaker4_Per/P4-2-Per.wav,Speaker4,گوینده۴,2,23,183,61,,,,,56.83783895899978,,,,,,,,,,,,,,,,,,,,,,,,,,,,,,,,,,,,,,,,,49.03294641699904,0.0,False,49.03312033399925,592451,001,2024-07-02_10h14.53.673,5-29,2024.1.4,None,2024-07-02 10h14.58.692550 +0900,
Images/Speaker1.jpg,Images/Speaker2.jpg,Images/Speaker3.jpg,Images/Speaker4.jpg,Audio/Speaker3_Per/P3-7-Per.wav,Speaker3,گوینده۳,2,24,184,46,,,,,56.83783895899978,,,,,,,,,,,,,,,,,,,,,,,,,,,,,,,,,,,,,,,,,49.049171375001606,0.0,False,49.04935112499879,592451,001,2024-07-02_10h14.53.673,5-29,2024.1.4,None,2024-07-02 10h14.58.692550 +0900,
Images/Speaker1.jpg,Images/Speaker2.jpg,Images/Speaker3.jpg,Images/Speaker4.jpg,Audio/Speaker1_Per/P1-12-Per.wav,Speaker1,گوینده ۱,2,25,185,11,,,,,56.83783895899978,,,,,,,,,,,,,,,,,,,,,,,,,,,,,,,,,,,,,,,,,49.06531262499993,0.0,False,49.06553116700161,592451,001,2024-07-02_10h14.53.673,5-29,2024.1.4,None,2024-07-02 10h14.58.692550 +0900,
Images/Speaker1.jpg,Images/Speaker2.jpg,Images/Speaker3.jpg,Images/Speaker4.jpg,Audio/Speaker2_Per/P2-6-Per.wav,Speaker2,گوینده۲,2,26,186,25,,,,,56.83783895899978,,,,,,,,,,,,,,,,,,,,,,,,,,,,,,,,,,,,,,,,,49.08145912500186,0.0,False,49.08163754199995,592451,001,2024-07-02_10h14.53.673,5-29,2024.1.4,None,2024-07-02 10h14.58.692550 +0900,
Images/Speaker1.jpg,Images/Speaker2.jpg,Images/Speaker3.jpg,Images/Speaker4.jpg,Audio/Speaker4_Per/P4-8-Per.wav,Speaker4,گوینده۴,2,27,187,67,,,,,56.83783895899978,,,,,,,,,,,,,,,,,,,,,,,,,,,,,,,,,,,,,,,,,49.09826079200138,0.0,False,49.098495999998704,592451,001,2024-07-02_10h14.53.673,5-29,2024.1.4,None,2024-07-02 10h14.58.692550 +0900,
Images/Speaker1.jpg,Images/Speaker2.jpg,Images/Speaker3.jpg,Images/Speaker4.jpg,Audio/Speaker1_Per/P1-8-Per.wav,Speaker1,گوینده ۱,2,28,188,7,,,,,56.83783895899978,,,,,,,,,,,,,,,,,,,,,,,,,,,,,,,,,,,,,,,,,49.114358541999536,0.0,False,49.11458141700132,592451,001,2024-07-02_10h14.53.673,5-29,2024.1.4,None,2024-07-02 10h14.58.692550 +0900,
Images/Speaker1.jpg,Images/Speaker2.jpg,Images/Speaker3.jpg,Images/Speaker4.jpg,Audio/Speaker1_Per/P1-4-Per.wav,Speaker1,گوینده ۱,2,29,189,13,,,,,56.83783895899978,,,,,,,,,,,,,,,,,,,,,,,,,,,,,,,,,,,,,,,,,49.13048104200061,0.0,False,49.13069125000038,592451,001,2024-07-02_10h14.53.673,5-29,2024.1.4,None,2024-07-02 10h14.58.692550 +0900,
Images/Speaker1.jpg,Images/Speaker2.jpg,Images/Speaker3.jpg,Images/Speaker4.jpg,Audio/Speaker3_Per/P3-15-Per.wav,Speaker3,گوینده۳,2,30,190,54,,,,,56.83783895899978,,,,,,,,,,,,,,,,,,,,,,,,,,,,,,,,,,,,,,,,,49.14671120899948,0.0,False,49.1468789999999,592451,001,2024-07-02_10h14.53.673,5-29,2024.1.4,None,2024-07-02 10h14.58.692550 +0900,
Images/Speaker1.jpg,Images/Speaker2.jpg,Images/Speaker3.jpg,Images/Speaker4.jpg,Audio/Speaker4_Per/P4-6-Per.wav,Speaker4,گوینده۴,2,31,191,65,,,,,56.83783895899978,,,,,,,,,,,,,,,,,,,,,,,,,,,,,,,,,,,,,,,,,49.163478458998725,0.0,False,49.16364729199995,592451,001,2024-07-02_10h14.53.673,5-29,2024.1.4,None,2024-07-02 10h14.58.692550 +0900,
Images/Speaker1.jpg,Images/Speaker2.jpg,Images/Speaker3.jpg,Images/Speaker4.jpg,Audio/Speaker3_Per/P3-1-Per.wav,Speaker3,گوینده۳,2,32,192,40,,,,,56.83783895899978,,,,,,,,,,,,,,,,,,,,,,,,,,,,,,,,,,,,,,,,,49.179506417000084,0.0,False,49.17972029199882,592451,001,2024-07-02_10h14.53.673,5-29,2024.1.4,None,2024-07-02 10h14.58.692550 +0900,
Images/Speaker1.jpg,Images/Speaker2.jpg,Images/Speaker3.jpg,Images/Speaker4.jpg,Audio/Speaker2_Per/P2-19-Per.wav,Speaker2,گوینده۲,2,33,193,38,,,,,56.83783895899978,,,,,,,,,,,,,,,,,,,,,,,,,,,,,,,,,,,,,,,,,49.195605959001114,0.0,False,49.19583450000209,592451,001,2024-07-02_10h14.53.673,5-29,2024.1.4,None,2024-07-02 10h14.58.692550 +0900,
Images/Speaker1.jpg,Images/Speaker2.jpg,Images/Speaker3.jpg,Images/Speaker4.jpg,Audio/Speaker3_Per/P3-19-Per.wav,Speaker3,گوینده۳,2,34,194,58,,,,,56.83783895899978,,,,,,,,,,,,,,,,,,,,,,,,,,,,,,,,,,,,,,,,,49.211653792001016,0.0,False,49.21181383400108,592451,001,2024-07-02_10h14.53.673,5-29,2024.1.4,None,2024-07-02 10h14.58.692550 +0900,
Images/Speaker1.jpg,Images/Speaker2.jpg,Images/Speaker3.jpg,Images/Speaker4.jpg,Audio/Speaker3_Per/P3-12-Per.wav,Speaker3,گوینده۳,2,35,195,51,,,,,56.83783895899978,,,,,,,,,,,,,,,,,,,,,,,,,,,,,,,,,,,,,,,,,49.22838483400119,0.0,False,49.22861612500128,592451,001,2024-07-02_10h14.53.673,5-29,2024.1.4,None,2024-07-02 10h14.58.692550 +0900,
Images/Speaker1.jpg,Images/Speaker2.jpg,Images/Speaker3.jpg,Images/Speaker4.jpg,Audio/Speaker4_Per/P4-14-Per.wav,Speaker4,گوینده۴,2,36,196,73,,,,,56.83783895899978,,,,,,,,,,,,,,,,,,,,,,,,,,,,,,,,,,,,,,,,,49.24451712500013,0.0,False,49.24473279200174,592451,001,2024-07-02_10h14.53.673,5-29,2024.1.4,None,2024-07-02 10h14.58.692550 +0900,
Images/Speaker1.jpg,Images/Speaker2.jpg,Images/Speaker3.jpg,Images/Speaker4.jpg,Audio/Speaker4_Per/P4-19-Per.wav,Speaker4,گوینده۴,2,37,197,78,,,,,56.83783895899978,,,,,,,,,,,,,,,,,,,,,,,,,,,,,,,,,,,,,,,,,49.26058333399851,0.0,False,49.26081833400167,592451,001,2024-07-02_10h14.53.673,5-29,2024.1.4,None,2024-07-02 10h14.58.692550 +0900,
Images/Speaker1.jpg,Images/Speaker2.jpg,Images/Speaker3.jpg,Images/Speaker4.jpg,Audio/Speaker2_Per/P2-5-Per.wav,Speaker2,گوینده۲,2,38,198,24,,,,,56.83783895899978,,,,,,,,,,,,,,,,,,,,,,,,,,,,,,,,,,,,,,,,,49.27660083400042,0.0,False,49.27680433400019,592451,001,2024-07-02_10h14.53.673,5-29,2024.1.4,None,2024-07-02 10h14.58.692550 +0900,
Images/Speaker1.jpg,Images/Speaker2.jpg,Images/Speaker3.jpg,Images/Speaker4.jpg,Audio/Speaker1_Per/P1-20-Per.wav,Speaker1,گوینده ۱,2,39,199,19,,,,,56.83783895899978,,,,,,,,,,,,,,,,,,,,,,,,,,,,,,,,,,,,,,,,,49.29356604200075,0.0,False,49.293749249998655,592451,001,2024-07-02_10h14.53.673,5-29,2024.1.4,None,2024-07-02 10h14.58.692550 +0900,
Images/Speaker1.jpg,Images/Speaker2.jpg,Images/Speaker3.jpg,Images/Speaker4.jpg,Audio/Speaker4_Per/P4-16-Per.wav,Speaker4,گوینده۴,2,40,200,75,,,,,56.83783895899978,,,,,,,,,,,,,,,,,,,,,,,,,,,,,,,,,,,,,,,,,49.30958675000147,0.0,False,49.309790958999656,592451,001,2024-07-02_10h14.53.673,5-29,2024.1.4,None,2024-07-02 10h14.58.692550 +0900,
Images/Speaker1.jpg,Images/Speaker2.jpg,Images/Speaker3.jpg,Images/Speaker4.jpg,Audio/Speaker4_Per/P4-11-Per.wav,Speaker4,گوینده۴,2,41,201,70,,,,,56.83783895899978,,,,,,,,,,,,,,,,,,,,,,,,,,,,,,,,,,,,,,,,,49.32567624999865,0.0,False,49.32590912500018,592451,001,2024-07-02_10h14.53.673,5-29,2024.1.4,None,2024-07-02 10h14.58.692550 +0900,
Images/Speaker1.jpg,Images/Speaker2.jpg,Images/Speaker3.jpg,Images/Speaker4.jpg,Audio/Speaker3_Per/P3-5-Per.wav,Speaker3,گوینده۳,2,42,202,44,,,,,56.83783895899978,,,,,,,,,,,,,,,,,,,,,,,,,,,,,,,,,,,,,,,,,49.34172925000166,0.0,False,49.34192233399881,592451,001,2024-07-02_10h14.53.673,5-29,2024.1.4,None,2024-07-02 10h14.58.692550 +0900,
Images/Speaker1.jpg,Images/Speaker2.jpg,Images/Speaker3.jpg,Images/Speaker4.jpg,Audio/Speaker2_Per/P2-2-Per.wav,Speaker2,گوینده۲,2,43,203,21,,,,,56.83783895899978,,,,,,,,,,,,,,,,,,,,,,,,,,,,,,,,,,,,,,,,,49.358550417000515,0.0,False,49.35872620900045,592451,001,2024-07-02_10h14.53.673,5-29,2024.1.4,None,2024-07-02 10h14.58.692550 +0900,
Images/Speaker1.jpg,Images/Speaker2.jpg,Images/Speaker3.jpg,Images/Speaker4.jpg,Audio/Speaker3_Per/P3-9-Per.wav,Speaker3,گوینده۳,2,44,204,48,,,,,56.83783895899978,,,,,,,,,,,,,,,,,,,,,,,,,,,,,,,,,,,,,,,,,49.37461716699909,0.0,False,49.37478908399862,592451,001,2024-07-02_10h14.53.673,5-29,2024.1.4,None,2024-07-02 10h14.58.692550 +0900,
Images/Speaker1.jpg,Images/Speaker2.jpg,Images/Speaker3.jpg,Images/Speaker4.jpg,Audio/Speaker4_Per/P4-7-Per.wav,Speaker4,گوینده۴,2,45,205,66,,,,,56.83783895899978,,,,,,,,,,,,,,,,,,,,,,,,,,,,,,,,,,,,,,,,,49.390623916999175,0.0,False,49.390790334000485,592451,001,2024-07-02_10h14.53.673,5-29,2024.1.4,None,2024-07-02 10h14.58.692550 +0900,
Images/Speaker1.jpg,Images/Speaker2.jpg,Images/Speaker3.jpg,Images/Speaker4.jpg,Audio/Speaker3_Per/P3-18-Per.wav,Speaker3,گوینده۳,2,46,206,57,,,,,56.83783895899978,,,,,,,,,,,,,,,,,,,,,,,,,,,,,,,,,,,,,,,,,49.40665720900142,0.0,False,49.40689079200092,592451,001,2024-07-02_10h14.53.673,5-29,2024.1.4,None,2024-07-02 10h14.58.692550 +0900,
Images/Speaker1.jpg,Images/Speaker2.jpg,Images/Speaker3.jpg,Images/Speaker4.jpg,Audio/Speaker2_Per/P2-18-Per.wav,Speaker2,گوینده۲,2,47,207,37,,,,,56.83783895899978,,,,,,,,,,,,,,,,,,,,,,,,,,,,,,,,,,,,,,,,,49.423347750001994,0.0,False,49.42351587500161,592451,001,2024-07-02_10h14.53.673,5-29,2024.1.4,None,2024-07-02 10h14.58.692550 +0900,
Images/Speaker1.jpg,Images/Speaker2.jpg,Images/Speaker3.jpg,Images/Speaker4.jpg,Audio/Speaker4_Per/P4-20-Per.wav,Speaker4,گوینده۴,2,48,208,79,,,,,56.83783895899978,,,,,,,,,,,,,,,,,,,,,,,,,,,,,,,,,,,,,,,,,49.43952999999965,0.0,False,49.43970587500007,592451,001,2024-07-02_10h14.53.673,5-29,2024.1.4,None,2024-07-02 10h14.58.692550 +0900,
Images/Speaker1.jpg,Images/Speaker2.jpg,Images/Speaker3.jpg,Images/Speaker4.jpg,Audio/Speaker2_Per/P2-15-Per.wav,Speaker2,گوینده۲,2,49,209,34,,,,,56.83783895899978,,,,,,,,,,,,,,,,,,,,,,,,,,,,,,,,,,,,,,,,,49.45562937499926,0.0,False,49.455832499999815,592451,001,2024-07-02_10h14.53.673,5-29,2024.1.4,None,2024-07-02 10h14.58.692550 +0900,
Images/Speaker1.jpg,Images/Speaker2.jpg,Images/Speaker3.jpg,Images/Speaker4.jpg,Audio/Speaker2_Per/P2-1-Per.wav,Speaker2,گوینده۲,2,50,210,20,,,,,56.83783895899978,,,,,,,,,,,,,,,,,,,,,,,,,,,,,,,,,,,,,,,,,49.47175645899915,0.0,False,49.471909333999065,592451,001,2024-07-02_10h14.53.673,5-29,2024.1.4,None,2024-07-02 10h14.58.692550 +0900,
Images/Speaker1.jpg,Images/Speaker2.jpg,Images/Speaker3.jpg,Images/Speaker4.jpg,Audio/Speaker2_Per/P2-9-Per.wav,Speaker2,گوینده۲,2,51,211,28,,,,,56.83783895899978,,,,,,,,,,,,,,,,,,,,,,,,,,,,,,,,,,,,,,,,,49.48839937500088,0.0,False,49.48863079199873,592451,001,2024-07-02_10h14.53.673,5-29,2024.1.4,None,2024-07-02 10h14.58.692550 +0900,
Images/Speaker1.jpg,Images/Speaker2.jpg,Images/Speaker3.jpg,Images/Speaker4.jpg,Audio/Speaker4_Per/P4-1-Per.wav,Speaker4,گوینده۴,2,52,212,60,,,,,56.83783895899978,,,,,,,,,,,,,,,,,,,,,,,,,,,,,,,,,,,,,,,,,49.50447574999998,0.0,False,49.50465316700138,592451,001,2024-07-02_10h14.53.673,5-29,2024.1.4,None,2024-07-02 10h14.58.692550 +0900,
Images/Speaker1.jpg,Images/Speaker2.jpg,Images/Speaker3.jpg,Images/Speaker4.jpg,Audio/Speaker1_Per/P1-9-Per.wav,Speaker1,گوینده ۱,2,53,213,8,,,,,56.83783895899978,,,,,,,,,,,,,,,,,,,,,,,,,,,,,,,,,,,,,,,,,49.520560708999255,0.0,False,49.52072820900139,592451,001,2024-07-02_10h14.53.673,5-29,2024.1.4,None,2024-07-02 10h14.58.692550 +0900,
Images/Speaker1.jpg,Images/Speaker2.jpg,Images/Speaker3.jpg,Images/Speaker4.jpg,Audio/Speaker2_Per/P2-10-Per.wav,Speaker2,گوینده۲,2,54,214,29,,,,,56.83783895899978,,,,,,,,,,,,,,,,,,,,,,,,,,,,,,,,,,,,,,,,,49.53656899999987,0.0,False,49.53674462500203,592451,001,2024-07-02_10h14.53.673,5-29,2024.1.4,None,2024-07-02 10h14.58.692550 +0900,
Images/Speaker1.jpg,Images/Speaker2.jpg,Images/Speaker3.jpg,Images/Speaker4.jpg,Audio/Speaker2_Per/P2-16-Per.wav,Speaker2,گوینده۲,2,55,215,35,,,,,56.83783895899978,,,,,,,,,,,,,,,,,,,,,,,,,,,,,,,,,,,,,,,,,49.55330550000144,0.0,False,49.55349416700119,592451,001,2024-07-02_10h14.53.673,5-29,2024.1.4,None,2024-07-02 10h14.58.692550 +0900,
Images/Speaker1.jpg,Images/Speaker2.jpg,Images/Speaker3.jpg,Images/Speaker4.jpg,Audio/Speaker4_Per/P4-18-Per.wav,Speaker4,گوینده۴,2,56,216,77,,,,,56.83783895899978,,,,,,,,,,,,,,,,,,,,,,,,,,,,,,,,,,,,,,,,,49.56928437500028,0.0,False,49.56947683399994,592451,001,2024-07-02_10h14.53.673,5-29,2024.1.4,None,2024-07-02 10h14.58.692550 +0900,
Images/Speaker1.jpg,Images/Speaker2.jpg,Images/Speaker3.jpg,Images/Speaker4.jpg,Audio/Speaker1_Per/P1-13-Per.wav,Speaker1,گوینده ۱,2,57,217,12,,,,,56.83783895899978,,,,,,,,,,,,,,,,,,,,,,,,,,,,,,,,,,,,,,,,,49.5852991669999,0.0,False,49.585503917001915,592451,001,2024-07-02_10h14.53.673,5-29,2024.1.4,None,2024-07-02 10h14.58.692550 +0900,
Images/Speaker1.jpg,Images/Speaker2.jpg,Images/Speaker3.jpg,Images/Speaker4.jpg,Audio/Speaker1_Per/P1-10-Per.wav,Speaker1,گوینده ۱,2,58,218,9,,,,,56.83783895899978,,,,,,,,,,,,,,,,,,,,,,,,,,,,,,,,,,,,,,,,,49.601322667000204,0.0,False,49.60148395899887,592451,001,2024-07-02_10h14.53.673,5-29,2024.1.4,None,2024-07-02 10h14.58.692550 +0900,
Images/Speaker1.jpg,Images/Speaker2.jpg,Images/Speaker3.jpg,Images/Speaker4.jpg,Audio/Speaker3_Per/P3-2-Per.wav,Speaker3,گوینده۳,2,59,219,41,,,,,56.83783895899978,,,,,,,,,,,,,,,,,,,,,,,,,,,,,,,,,,,,,,,,,49.61804883399964,0.0,False,49.61820458399961,592451,001,2024-07-02_10h14.53.673,5-29,2024.1.4,None,2024-07-02 10h14.58.692550 +0900,
Images/Speaker1.jpg,Images/Speaker2.jpg,Images/Speaker3.jpg,Images/Speaker4.jpg,Audio/Speaker3_Per/P3-6-Per.wav,Speaker3,گوینده۳,2,60,220,45,,,,,56.83783895899978,,,,,,,,,,,,,,,,,,,,,,,,,,,,,,,,,,,,,,,,,49.634043375001056,0.0,False,49.63421450000169,592451,001,2024-07-02_10h14.53.673,5-29,2024.1.4,None,2024-07-02 10h14.58.692550 +0900,
Images/Speaker1.jpg,Images/Speaker2.jpg,Images/Speaker3.jpg,Images/Speaker4.jpg,Audio/Speaker1_Per/P1-3-Per.wav,Speaker1,گوینده ۱,2,61,221,2,,,,,56.83783895899978,,,,,,,,,,,,,,,,,,,,,,,,,,,,,,,,,,,,,,,,,49.650015292001626,0.0,False,49.65020520899998,592451,001,2024-07-02_10h14.53.673,5-29,2024.1.4,None,2024-07-02 10h14.58.692550 +0900,
Images/Speaker1.jpg,Images/Speaker2.jpg,Images/Speaker3.jpg,Images/Speaker4.jpg,Audio/Speaker2_Per/P2-4-Per.wav,Speaker2,گوینده۲,2,62,222,23,,,,,56.83783895899978,,,,,,,,,,,,,,,,,,,,,,,,,,,,,,,,,,,,,,,,,49.66603437500089,0.0,False,49.66619929200169,592451,001,2024-07-02_10h14.53.673,5-29,2024.1.4,None,2024-07-02 10h14.58.692550 +0900,
Images/Speaker1.jpg,Images/Speaker2.jpg,Images/Speaker3.jpg,Images/Speaker4.jpg,Audio/Speaker1_Per/P1-1-Per.wav,Speaker1,گوینده ۱,2,63,223,0,,,,,56.83783895899978,,,,,,,,,,,,,,,,,,,,,,,,,,,,,,,,,,,,,,,,,49.68269379200137,0.0,False,49.68285137500061,592451,001,2024-07-02_10h14.53.673,5-29,2024.1.4,None,2024-07-02 10h14.58.692550 +0900,
Images/Speaker1.jpg,Images/Speaker2.jpg,Images/Speaker3.jpg,Images/Speaker4.jpg,Audio/Speaker1_Per/P1-11-Per.wav,Speaker1,گوینده ۱,2,64,224,10,,,,,56.83783895899978,,,,,,,,,,,,,,,,,,,,,,,,,,,,,,,,,,,,,,,,,49.69871495899861,0.0,False,49.69887408399882,592451,001,2024-07-02_10h14.53.673,5-29,2024.1.4,None,2024-07-02 10h14.58.692550 +0900,
Images/Speaker1.jpg,Images/Speaker2.jpg,Images/Speaker3.jpg,Images/Speaker4.jpg,Audio/Speaker3_Per/P3-8-Per.wav,Speaker3,گوینده۳,2,65,225,47,,,,,56.83783895899978,,,,,,,,,,,,,,,,,,,,,,,,,,,,,,,,,,,,,,,,,49.71475400000054,0.0,False,49.714952999998786,592451,001,2024-07-02_10h14.53.673,5-29,2024.1.4,None,2024-07-02 10h14.58.692550 +0900,
Images/Speaker1.jpg,Images/Speaker2.jpg,Images/Speaker3.jpg,Images/Speaker4.jpg,Audio/Speaker2_Per/P2-8-Per.wav,Speaker2,گوینده۲,2,66,226,27,,,,,56.83783895899978,,,,,,,,,,,,,,,,,,,,,,,,,,,,,,,,,,,,,,,,,49.73076450000008,0.0,False,49.73096775000158,592451,001,2024-07-02_10h14.53.673,5-29,2024.1.4,None,2024-07-02 10h14.58.692550 +0900,
Images/Speaker1.jpg,Images/Speaker2.jpg,Images/Speaker3.jpg,Images/Speaker4.jpg,Audio/Speaker4_Per/P4-3-Per.wav,Speaker4,گوینده۴,2,67,227,62,,,,,56.83783895899978,,,,,,,,,,,,,,,,,,,,,,,,,,,,,,,,,,,,,,,,,49.74747637499968,0.0,False,49.74764962500194,592451,001,2024-07-02_10h14.53.673,5-29,2024.1.4,None,2024-07-02 10h14.58.692550 +0900,
Images/Speaker1.jpg,Images/Speaker2.jpg,Images/Speaker3.jpg,Images/Speaker4.jpg,Audio/Speaker3_Per/P3-4-Per.wav,Speaker3,گوینده۳,2,68,228,43,,,,,56.83783895899978,,,,,,,,,,,,,,,,,,,,,,,,,,,,,,,,,,,,,,,,,49.76350212499892,0.0,False,49.763674875001016,592451,001,2024-07-02_10h14.53.673,5-29,2024.1.4,None,2024-07-02 10h14.58.692550 +0900,
Images/Speaker1.jpg,Images/Speaker2.jpg,Images/Speaker3.jpg,Images/Speaker4.jpg,Audio/Speaker3_Per/P3-16-Per.wav,Speaker3,گوینده۳,2,69,229,55,,,,,56.83783895899978,,,,,,,,,,,,,,,,,,,,,,,,,,,,,,,,,,,,,,,,,49.77962416700029,0.0,False,49.7797931669993,592451,001,2024-07-02_10h14.53.673,5-29,2024.1.4,None,2024-07-02 10h14.58.692550 +0900,
Images/Speaker1.jpg,Images/Speaker2.jpg,Images/Speaker3.jpg,Images/Speaker4.jpg,Audio/Speaker4_Per/P4-12-Per.wav,Speaker4,گوینده۴,2,70,230,71,,,,,56.83783895899978,,,,,,,,,,,,,,,,,,,,,,,,,,,,,,,,,,,,,,,,,49.7956875839991,0.0,False,49.79585587499969,592451,001,2024-07-02_10h14.53.673,5-29,2024.1.4,None,2024-07-02 10h14.58.692550 +0900,
Images/Speaker1.jpg,Images/Speaker2.jpg,Images/Speaker3.jpg,Images/Speaker4.jpg,Audio/Speaker4_Per/P4-4-Per.wav,Speaker4,گوینده۴,2,71,231,63,,,,,56.83783895899978,,,,,,,,,,,,,,,,,,,,,,,,,,,,,,,,,,,,,,,,,49.812343542002054,0.0,False,49.8125074999989,592451,001,2024-07-02_10h14.53.673,5-29,2024.1.4,None,2024-07-02 10h14.58.692550 +0900,
Images/Speaker1.jpg,Images/Speaker2.jpg,Images/Speaker3.jpg,Images/Speaker4.jpg,Audio/Speaker3_Per/P3-10-Per.wav,Speaker3,گوینده۳,2,72,232,49,,,,,56.83783895899978,,,,,,,,,,,,,,,,,,,,,,,,,,,,,,,,,,,,,,,,,49.828395625001576,0.0,False,49.82855395899969,592451,001,2024-07-02_10h14.53.673,5-29,2024.1.4,None,2024-07-02 10h14.58.692550 +0900,
Images/Speaker1.jpg,Images/Speaker2.jpg,Images/Speaker3.jpg,Images/Speaker4.jpg,Audio/Speaker1_Per/P1-5-Per.wav,Speaker1,گوینده ۱,2,73,233,4,,,,,56.83783895899978,,,,,,,,,,,,,,,,,,,,,,,,,,,,,,,,,,,,,,,,,49.84446833399852,0.0,False,49.84465470899886,592451,001,2024-07-02_10h14.53.673,5-29,2024.1.4,None,2024-07-02 10h14.58.692550 +0900,
Images/Speaker1.jpg,Images/Speaker2.jpg,Images/Speaker3.jpg,Images/Speaker4.jpg,Audio/Speaker3_Per/P3-13-Per.wav,Speaker3,گوینده۳,2,74,234,52,,,,,56.83783895899978,,,,,,,,,,,,,,,,,,,,,,,,,,,,,,,,,,,,,,,,,49.860799917001714,0.0,False,49.86097491699911,592451,001,2024-07-02_10h14.53.673,5-29,2024.1.4,None,2024-07-02 10h14.58.692550 +0900,
Images/Speaker1.jpg,Images/Speaker2.jpg,Images/Speaker3.jpg,Images/Speaker4.jpg,Audio/Speaker4_Per/P4-15-Per.wav,Speaker4,گوینده۴,2,75,235,74,,,,,56.83783895899978,,,,,,,,,,,,,,,,,,,,,,,,,,,,,,,,,,,,,,,,,49.8774814999997,0.0,False,49.877694834001886,592451,001,2024-07-02_10h14.53.673,5-29,2024.1.4,None,2024-07-02 10h14.58.692550 +0900,
Images/Speaker1.jpg,Images/Speaker2.jpg,Images/Speaker3.jpg,Images/Speaker4.jpg,Audio/Speaker3_Per/P3-20-Per.wav,Speaker3,گوینده۳,2,76,236,59,,,,,56.83783895899978,,,,,,,,,,,,,,,,,,,,,,,,,,,,,,,,,,,,,,,,,49.89353050000136,0.0,False,49.893676499999856,592451,001,2024-07-02_10h14.53.673,5-29,2024.1.4,None,2024-07-02 10h14.58.692550 +0900,
Images/Speaker1.jpg,Images/Speaker2.jpg,Images/Speaker3.jpg,Images/Speaker4.jpg,Audio/Speaker4_Per/P4-9-Per.wav,Speaker4,گوینده۴,2,77,237,68,,,,,56.83783895899978,,,,,,,,,,,,,,,,,,,,,,,,,,,,,,,,,,,,,,,,,49.90951616700113,0.0,False,49.90969141700043,592451,001,2024-07-02_10h14.53.673,5-29,2024.1.4,None,2024-07-02 10h14.58.692550 +0900,
Images/Speaker1.jpg,Images/Speaker2.jpg,Images/Speaker3.jpg,Images/Speaker4.jpg,Audio/Speaker1_Per/P1-15-Per.wav,Speaker1,گوینده ۱,2,78,238,14,,,,,56.83783895899978,,,,,,,,,,,,,,,,,,,,,,,,,,,,,,,,,,,,,,,,,49.92560791700089,0.0,False,49.92581316699943,592451,001,2024-07-02_10h14.53.673,5-29,2024.1.4,None,2024-07-02 10h14.58.692550 +0900,
Images/Speaker1.jpg,Images/Speaker2.jpg,Images/Speaker3.jpg,Images/Speaker4.jpg,Audio/Speaker2_Per/P2-3-Per.wav,Speaker2,گوینده۲,2,79,239,22,,,,,56.83783895899978,,,,,,,,,,,,,,,,,,,,,,,,,,,,,,,,,,,,,,,,,49.94239345900132,0.0,False,49.942576417000964,592451,001,2024-07-02_10h14.53.673,5-29,2024.1.4,None,2024-07-02 10h14.58.692550 +0900,
Images/Speaker1.jpg,Images/Speaker2.jpg,Images/Speaker3.jpg,Images/Speaker4.jpg,Audio/Speaker4_Per/P4-15-Per.wav,Speaker4,گوینده۴,3,0,240,74,,,,,56.83783895899978,,,,,,,,,,,,,,,,,,,,,,,,,,,,,,,,,,,,,,,,,49.958401500000036,0.0,False,49.95859187500173,592451,001,2024-07-02_10h14.53.673,5-29,2024.1.4,None,2024-07-02 10h14.58.692550 +0900,
Images/Speaker1.jpg,Images/Speaker2.jpg,Images/Speaker3.jpg,Images/Speaker4.jpg,Audio/Speaker4_Per/P4-12-Per.wav,Speaker4,گوینده۴,3,1,241,71,,,,,56.83783895899978,,,,,,,,,,,,,,,,,,,,,,,,,,,,,,,,,,,,,,,,,49.974445250001736,0.0,False,49.974594916999195,592451,001,2024-07-02_10h14.53.673,5-29,2024.1.4,None,2024-07-02 10h14.58.692550 +0900,
Images/Speaker1.jpg,Images/Speaker2.jpg,Images/Speaker3.jpg,Images/Speaker4.jpg,Audio/Speaker3_Per/P3-2-Per.wav,Speaker3,گوینده۳,3,2,242,41,,,,,56.83783895899978,,,,,,,,,,,,,,,,,,,,,,,,,,,,,,,,,,,,,,,,,49.99037524999949,0.0,False,49.99053004199959,592451,001,2024-07-02_10h14.53.673,5-29,2024.1.4,None,2024-07-02 10h14.58.692550 +0900,
Images/Speaker1.jpg,Images/Speaker2.jpg,Images/Speaker3.jpg,Images/Speaker4.jpg,Audio/Speaker3_Per/P3-9-Per.wav,Speaker3,گوینده۳,3,3,243,48,,,,,56.83783895899978,,,,,,,,,,,,,,,,,,,,,,,,,,,,,,,,,,,,,,,,,50.007019917000434,0.0,False,50.007201749998785,592451,001,2024-07-02_10h14.53.673,5-29,2024.1.4,None,2024-07-02 10h14.58.692550 +0900,
Images/Speaker1.jpg,Images/Speaker2.jpg,Images/Speaker3.jpg,Images/Speaker4.jpg,Audio/Speaker4_Per/P4-6-Per.wav,Speaker4,گوینده۴,3,4,244,65,,,,,56.83783895899978,,,,,,,,,,,,,,,,,,,,,,,,,,,,,,,,,,,,,,,,,50.0230177500016,0.0,False,50.02317004200086,592451,001,2024-07-02_10h14.53.673,5-29,2024.1.4,None,2024-07-02 10h14.58.692550 +0900,
Images/Speaker1.jpg,Images/Speaker2.jpg,Images/Speaker3.jpg,Images/Speaker4.jpg,Audio/Speaker1_Per/P1-10-Per.wav,Speaker1,گوینده ۱,3,5,245,9,,,,,56.83783895899978,,,,,,,,,,,,,,,,,,,,,,,,,,,,,,,,,,,,,,,,,50.03900879199864,0.0,False,50.039208292000694,592451,001,2024-07-02_10h14.53.673,5-29,2024.1.4,None,2024-07-02 10h14.58.692550 +0900,
Images/Speaker1.jpg,Images/Speaker2.jpg,Images/Speaker3.jpg,Images/Speaker4.jpg,Audio/Speaker4_Per/P4-2-Per.wav,Speaker4,گوینده۴,3,6,246,61,,,,,56.83783895899978,,,,,,,,,,,,,,,,,,,,,,,,,,,,,,,,,,,,,,,,,50.055027958998835,0.0,False,50.05519204200027,592451,001,2024-07-02_10h14.53.673,5-29,2024.1.4,None,2024-07-02 10h14.58.692550 +0900,
Images/Speaker1.jpg,Images/Speaker2.jpg,Images/Speaker3.jpg,Images/Speaker4.jpg,Audio/Speaker3_Per/P3-1-Per.wav,Speaker3,گوینده۳,3,7,247,40,,,,,56.83783895899978,,,,,,,,,,,,,,,,,,,,,,,,,,,,,,,,,,,,,,,,,50.071619417001784,0.0,False,50.07185129199934,592451,001,2024-07-02_10h14.53.673,5-29,2024.1.4,None,2024-07-02 10h14.58.692550 +0900,
Images/Speaker1.jpg,Images/Speaker2.jpg,Images/Speaker3.jpg,Images/Speaker4.jpg,Audio/Speaker4_Per/P4-9-Per.wav,Speaker4,گوینده۴,3,8,248,68,,,,,56.83783895899978,,,,,,,,,,,,,,,,,,,,,,,,,,,,,,,,,,,,,,,,,50.08768675000101,0.0,False,50.08785125000213,592451,001,2024-07-02_10h14.53.673,5-29,2024.1.4,None,2024-07-02 10h14.58.692550 +0900,
Images/Speaker1.jpg,Images/Speaker2.jpg,Images/Speaker3.jpg,Images/Speaker4.jpg,Audio/Speaker2_Per/P2-10-Per.wav,Speaker2,گوینده۲,3,9,249,29,,,,,56.83783895899978,,,,,,,,,,,,,,,,,,,,,,,,,,,,,,,,,,,,,,,,,50.10377087500092,0.0,False,50.10393537500204,592451,001,2024-07-02_10h14.53.673,5-29,2024.1.4,None,2024-07-02 10h14.58.692550 +0900,
Images/Speaker1.jpg,Images/Speaker2.jpg,Images/Speaker3.jpg,Images/Speaker4.jpg,Audio/Speaker2_Per/P2-12-Per.wav,Speaker2,گوینده۲,3,10,250,31,,,,,56.83783895899978,,,,,,,,,,,,,,,,,,,,,,,,,,,,,,,,,,,,,,,,,50.119770917001006,0.0,False,50.11993387500115,592451,001,2024-07-02_10h14.53.673,5-29,2024.1.4,None,2024-07-02 10h14.58.692550 +0900,
Images/Speaker1.jpg,Images/Speaker2.jpg,Images/Speaker3.jpg,Images/Speaker4.jpg,Audio/Speaker4_Per/P4-7-Per.wav,Speaker4,گوینده۴,3,11,251,66,,,,,56.83783895899978,,,,,,,,,,,,,,,,,,,,,,,,,,,,,,,,,,,,,,,,,50.136248292001255,0.0,False,50.1364405839995,592451,001,2024-07-02_10h14.53.673,5-29,2024.1.4,None,2024-07-02 10h14.58.692550 +0900,
Images/Speaker1.jpg,Images/Speaker2.jpg,Images/Speaker3.jpg,Images/Speaker4.jpg,Audio/Speaker1_Per/P1-15-Per.wav,Speaker1,گوینده ۱,3,12,252,14,,,,,56.83783895899978,,,,,,,,,,,,,,,,,,,,,,,,,,,,,,,,,,,,,,,,,50.15226966699993,0.0,False,50.15242670899897,592451,001,2024-07-02_10h14.53.673,5-29,2024.1.4,None,2024-07-02 10h14.58.692550 +0900,
Images/Speaker1.jpg,Images/Speaker2.jpg,Images/Speaker3.jpg,Images/Speaker4.jpg,Audio/Speaker1_Per/P1-13-Per.wav,Speaker1,گوینده ۱,3,13,253,12,,,,,56.83783895899978,,,,,,,,,,,,,,,,,,,,,,,,,,,,,,,,,,,,,,,,,50.1683395,0.0,False,50.16849333400023,592451,001,2024-07-02_10h14.53.673,5-29,2024.1.4,None,2024-07-02 10h14.58.692550 +0900,
Images/Speaker1.jpg,Images/Speaker2.jpg,Images/Speaker3.jpg,Images/Speaker4.jpg,Audio/Speaker1_Per/P1-16-Per.wav,Speaker1,گوینده ۱,3,14,254,15,,,,,56.83783895899978,,,,,,,,,,,,,,,,,,,,,,,,,,,,,,,,,,,,,,,,,50.184692709000956,0.0,False,50.18484525000167,592451,001,2024-07-02_10h14.53.673,5-29,2024.1.4,None,2024-07-02 10h14.58.692550 +0900,
Images/Speaker1.jpg,Images/Speaker2.jpg,Images/Speaker3.jpg,Images/Speaker4.jpg,Audio/Speaker4_Per/P4-14-Per.wav,Speaker4,گوینده۴,3,15,255,73,,,,,56.83783895899978,,,,,,,,,,,,,,,,,,,,,,,,,,,,,,,,,,,,,,,,,50.201695584000845,0.0,False,50.20185679199858,592451,001,2024-07-02_10h14.53.673,5-29,2024.1.4,None,2024-07-02 10h14.58.692550 +0900,
Images/Speaker1.jpg,Images/Speaker2.jpg,Images/Speaker3.jpg,Images/Speaker4.jpg,Audio/Speaker1_Per/P1-7-Per.wav,Speaker1,گوینده ۱,3,16,256,6,,,,,56.83783895899978,,,,,,,,,,,,,,,,,,,,,,,,,,,,,,,,,,,,,,,,,50.217786042001535,0.0,False,50.21793220900145,592451,001,2024-07-02_10h14.53.673,5-29,2024.1.4,None,2024-07-02 10h14.58.692550 +0900,
Images/Speaker1.jpg,Images/Speaker2.jpg,Images/Speaker3.jpg,Images/Speaker4.jpg,Audio/Speaker4_Per/P4-1-Per.wav,Speaker4,گوینده۴,3,17,257,60,,,,,56.83783895899978,,,,,,,,,,,,,,,,,,,,,,,,,,,,,,,,,,,,,,,,,50.233724249999796,0.0,False,50.23391320900191,592451,001,2024-07-02_10h14.53.673,5-29,2024.1.4,None,2024-07-02 10h14.58.692550 +0900,
Images/Speaker1.jpg,Images/Speaker2.jpg,Images/Speaker3.jpg,Images/Speaker4.jpg,Audio/Speaker1_Per/P1-19-Per.wav,Speaker1,گوینده ۱,3,18,258,18,,,,,56.83783895899978,,,,,,,,,,,,,,,,,,,,,,,,,,,,,,,,,,,,,,,,,50.249696958999266,0.0,False,50.249901167000644,592451,001,2024-07-02_10h14.53.673,5-29,2024.1.4,None,2024-07-02 10h14.58.692550 +0900,
Images/Speaker1.jpg,Images/Speaker2.jpg,Images/Speaker3.jpg,Images/Speaker4.jpg,Audio/Speaker2_Per/P2-8-Per.wav,Speaker2,گوینده۲,3,19,259,27,,,,,56.83783895899978,,,,,,,,,,,,,,,,,,,,,,,,,,,,,,,,,,,,,,,,,50.26639575000081,0.0,False,50.26654533400142,592451,001,2024-07-02_10h14.53.673,5-29,2024.1.4,None,2024-07-02 10h14.58.692550 +0900,
Images/Speaker1.jpg,Images/Speaker2.jpg,Images/Speaker3.jpg,Images/Speaker4.jpg,Audio/Speaker1_Per/P1-12-Per.wav,Speaker1,گوینده ۱,3,20,260,11,,,,,56.83783895899978,,,,,,,,,,,,,,,,,,,,,,,,,,,,,,,,,,,,,,,,,50.282325874999515,0.0,False,50.282480750000104,592451,001,2024-07-02_10h14.53.673,5-29,2024.1.4,None,2024-07-02 10h14.58.692550 +0900,
Images/Speaker1.jpg,Images/Speaker2.jpg,Images/Speaker3.jpg,Images/Speaker4.jpg,Audio/Speaker4_Per/P4-17-Per.wav,Speaker4,گوینده۴,3,21,261,76,,,,,56.83783895899978,,,,,,,,,,,,,,,,,,,,,,,,,,,,,,,,,,,,,,,,,50.29837704199963,0.0,False,50.29855479199978,592451,001,2024-07-02_10h14.53.673,5-29,2024.1.4,None,2024-07-02 10h14.58.692550 +0900,
Images/Speaker1.jpg,Images/Speaker2.jpg,Images/Speaker3.jpg,Images/Speaker4.jpg,Audio/Speaker1_Per/P1-20-Per.wav,Speaker1,گوینده ۱,3,22,262,19,,,,,56.83783895899978,,,,,,,,,,,,,,,,,,,,,,,,,,,,,,,,,,,,,,,,,50.31445683399943,0.0,False,50.3146525000011,592451,001,2024-07-02_10h14.53.673,5-29,2024.1.4,None,2024-07-02 10h14.58.692550 +0900,
Images/Speaker1.jpg,Images/Speaker2.jpg,Images/Speaker3.jpg,Images/Speaker4.jpg,Audio/Speaker2_Per/P2-5-Per.wav,Speaker2,گوینده۲,3,23,263,24,,,,,56.83783895899978,,,,,,,,,,,,,,,,,,,,,,,,,,,,,,,,,,,,,,,,,50.33115900000121,0.0,False,50.33131337500163,592451,001,2024-07-02_10h14.53.673,5-29,2024.1.4,None,2024-07-02 10h14.58.692550 +0900,
Images/Speaker1.jpg,Images/Speaker2.jpg,Images/Speaker3.jpg,Images/Speaker4.jpg,Audio/Speaker4_Per/P4-19-Per.wav,Speaker4,گوینده۴,3,24,264,78,,,,,56.83783895899978,,,,,,,,,,,,,,,,,,,,,,,,,,,,,,,,,,,,,,,,,50.34725620899917,0.0,False,50.34741687499991,592451,001,2024-07-02_10h14.53.673,5-29,2024.1.4,None,2024-07-02 10h14.58.692550 +0900,
Images/Speaker1.jpg,Images/Speaker2.jpg,Images/Speaker3.jpg,Images/Speaker4.jpg,Audio/Speaker3_Per/P3-4-Per.wav,Speaker3,گوینده۳,3,25,265,43,,,,,56.83783895899978,,,,,,,,,,,,,,,,,,,,,,,,,,,,,,,,,,,,,,,,,50.36324058399987,0.0,False,50.363384625001345,592451,001,2024-07-02_10h14.53.673,5-29,2024.1.4,None,2024-07-02 10h14.58.692550 +0900,
Images/Speaker1.jpg,Images/Speaker2.jpg,Images/Speaker3.jpg,Images/Speaker4.jpg,Audio/Speaker3_Per/P3-8-Per.wav,Speaker3,گوینده۳,3,26,266,47,,,,,56.83783895899978,,,,,,,,,,,,,,,,,,,,,,,,,,,,,,,,,,,,,,,,,50.379204125001706,0.0,False,50.37936691700088,592451,001,2024-07-02_10h14.53.673,5-29,2024.1.4,None,2024-07-02 10h14.58.692550 +0900,
Images/Speaker1.jpg,Images/Speaker2.jpg,Images/Speaker3.jpg,Images/Speaker4.jpg,Audio/Speaker4_Per/P4-11-Per.wav,Speaker4,گوینده۴,3,27,267,70,,,,,56.83783895899978,,,,,,,,,,,,,,,,,,,,,,,,,,,,,,,,,,,,,,,,,50.39589991699904,0.0,False,50.39605941700211,592451,001,2024-07-02_10h14.53.673,5-29,2024.1.4,None,2024-07-02 10h14.58.692550 +0900,
Images/Speaker1.jpg,Images/Speaker2.jpg,Images/Speaker3.jpg,Images/Speaker4.jpg,Audio/Speaker1_Per/P1-5-Per.wav,Speaker1,گوینده ۱,3,28,268,4,,,,,56.83783895899978,,,,,,,,,,,,,,,,,,,,,,,,,,,,,,,,,,,,,,,,,50.411935084001016,0.0,False,50.41209758400146,592451,001,2024-07-02_10h14.53.673,5-29,2024.1.4,None,2024-07-02 10h14.58.692550 +0900,
Images/Speaker1.jpg,Images/Speaker2.jpg,Images/Speaker3.jpg,Images/Speaker4.jpg,Audio/Speaker4_Per/P4-18-Per.wav,Speaker4,گوینده۴,3,29,269,77,,,,,56.83783895899978,,,,,,,,,,,,,,,,,,,,,,,,,,,,,,,,,,,,,,,,,50.427993583998614,0.0,False,50.428145459001826,592451,001,2024-07-02_10h14.53.673,5-29,2024.1.4,None,2024-07-02 10h14.58.692550 +0900,
Images/Speaker1.jpg,Images/Speaker2.jpg,Images/Speaker3.jpg,Images/Speaker4.jpg,Audio/Speaker2_Per/P2-1-Per.wav,Speaker2,گوینده۲,3,30,270,20,,,,,56.83783895899978,,,,,,,,,,,,,,,,,,,,,,,,,,,,,,,,,,,,,,,,,50.44428883400178,0.0,False,50.4444522920021,592451,001,2024-07-02_10h14.53.673,5-29,2024.1.4,None,2024-07-02 10h14.58.692550 +0900,
Images/Speaker1.jpg,Images/Speaker2.jpg,Images/Speaker3.jpg,Images/Speaker4.jpg,Audio/Speaker1_Per/P1-3-Per.wav,Speaker1,گوینده ۱,3,31,271,2,,,,,56.83783895899978,,,,,,,,,,,,,,,,,,,,,,,,,,,,,,,,,,,,,,,,,50.46087662500213,0.0,False,50.46108124999955,592451,001,2024-07-02_10h14.53.673,5-29,2024.1.4,None,2024-07-02 10h14.58.692550 +0900,
Images/Speaker1.jpg,Images/Speaker2.jpg,Images/Speaker3.jpg,Images/Speaker4.jpg,Audio/Speaker2_Per/P2-16-Per.wav,Speaker2,گوینده۲,3,32,272,35,,,,,56.83783895899978,,,,,,,,,,,,,,,,,,,,,,,,,,,,,,,,,,,,,,,,,50.477016249999,0.0,False,50.47717816699878,592451,001,2024-07-02_10h14.53.673,5-29,2024.1.4,None,2024-07-02 10h14.58.692550 +0900,
Images/Speaker1.jpg,Images/Speaker2.jpg,Images/Speaker3.jpg,Images/Speaker4.jpg,Audio/Speaker1_Per/P1-18-Per.wav,Speaker1,گوینده ۱,3,33,273,17,,,,,56.83783895899978,,,,,,,,,,,,,,,,,,,,,,,,,,,,,,,,,,,,,,,,,50.49302275000082,0.0,False,50.4931842090009,592451,001,2024-07-02_10h14.53.673,5-29,2024.1.4,None,2024-07-02 10h14.58.692550 +0900,
Images/Speaker1.jpg,Images/Speaker2.jpg,Images/Speaker3.jpg,Images/Speaker4.jpg,Audio/Speaker3_Per/P3-5-Per.wav,Speaker3,گوینده۳,3,34,274,44,,,,,56.83783895899978,,,,,,,,,,,,,,,,,,,,,,,,,,,,,,,,,,,,,,,,,50.50905487500131,0.0,False,50.509193459001835,592451,001,2024-07-02_10h14.53.673,5-29,2024.1.4,None,2024-07-02 10h14.58.692550 +0900,
Images/Speaker1.jpg,Images/Speaker2.jpg,Images/Speaker3.jpg,Images/Speaker4.jpg,Audio/Speaker2_Per/P2-2-Per.wav,Speaker2,گوینده۲,3,35,275,21,,,,,56.83783895899978,,,,,,,,,,,,,,,,,,,,,,,,,,,,,,,,,,,,,,,,,50.52563920900138,0.0,False,50.52578033399914,592451,001,2024-07-02_10h14.53.673,5-29,2024.1.4,None,2024-07-02 10h14.58.692550 +0900,
Images/Speaker1.jpg,Images/Speaker2.jpg,Images/Speaker3.jpg,Images/Speaker4.jpg,Audio/Speaker1_Per/P1-9-Per.wav,Speaker1,گوینده ۱,3,36,276,8,,,,,56.83783895899978,,,,,,,,,,,,,,,,,,,,,,,,,,,,,,,,,,,,,,,,,50.59176229199875,0.0,False,50.59205600000132,592451,001,2024-07-02_10h14.53.673,5-29,2024.1.4,None,2024-07-02 10h14.58.692550 +0900,
Images/Speaker1.jpg,Images/Speaker2.jpg,Images/Speaker3.jpg,Images/Speaker4.jpg,Audio/Speaker4_Per/P4-20-Per.wav,Speaker4,گوینده۴,3,37,277,79,,,,,56.83783895899978,,,,,,,,,,,,,,,,,,,,,,,,,,,,,,,,,,,,,,,,,50.60851845900106,0.0,False,50.608698916999856,592451,001,2024-07-02_10h14.53.673,5-29,2024.1.4,None,2024-07-02 10h14.58.692550 +0900,
Images/Speaker1.jpg,Images/Speaker2.jpg,Images/Speaker3.jpg,Images/Speaker4.jpg,Audio/Speaker2_Per/P2-7-Per.wav,Speaker2,گوینده۲,3,38,278,26,,,,,56.83783895899978,,,,,,,,,,,,,,,,,,,,,,,,,,,,,,,,,,,,,,,,,50.62466820899863,0.0,False,50.62484041700009,592451,001,2024-07-02_10h14.53.673,5-29,2024.1.4,None,2024-07-02 10h14.58.692550 +0900,
Images/Speaker1.jpg,Images/Speaker2.jpg,Images/Speaker3.jpg,Images/Speaker4.jpg,Audio/Speaker2_Per/P2-18-Per.wav,Speaker2,گوینده۲,3,39,279,37,,,,,56.83783895899978,,,,,,,,,,,,,,,,,,,,,,,,,,,,,,,,,,,,,,,,,50.64128341700052,0.0,False,50.64145358400128,592451,001,2024-07-02_10h14.53.673,5-29,2024.1.4,None,2024-07-02 10h14.58.692550 +0900,
Images/Speaker1.jpg,Images/Speaker2.jpg,Images/Speaker3.jpg,Images/Speaker4.jpg,Audio/Speaker3_Per/P3-3-Per.wav,Speaker3,گوینده۳,3,40,280,42,,,,,56.83783895899978,,,,,,,,,,,,,,,,,,,,,,,,,,,,,,,,,,,,,,,,,50.65734666700155,0.0,False,50.657508125001186,592451,001,2024-07-02_10h14.53.673,5-29,2024.1.4,None,2024-07-02 10h14.58.692550 +0900,
Images/Speaker1.jpg,Images/Speaker2.jpg,Images/Speaker3.jpg,Images/Speaker4.jpg,Audio/Speaker4_Per/P4-16-Per.wav,Speaker4,گوینده۴,3,41,281,75,,,,,56.83783895899978,,,,,,,,,,,,,,,,,,,,,,,,,,,,,,,,,,,,,,,,,50.67337358399891,0.0,False,50.67356125000151,592451,001,2024-07-02_10h14.53.673,5-29,2024.1.4,None,2024-07-02 10h14.58.692550 +0900,
Images/Speaker1.jpg,Images/Speaker2.jpg,Images/Speaker3.jpg,Images/Speaker4.jpg,Audio/Speaker2_Per/P2-11-Per.wav,Speaker2,گوینده۲,3,42,282,30,,,,,56.83783895899978,,,,,,,,,,,,,,,,,,,,,,,,,,,,,,,,,,,,,,,,,50.68989466700077,0.0,False,50.690053124999395,592451,001,2024-07-02_10h14.53.673,5-29,2024.1.4,None,2024-07-02 10h14.58.692550 +0900,
Images/Speaker1.jpg,Images/Speaker2.jpg,Images/Speaker3.jpg,Images/Speaker4.jpg,Audio/Speaker3_Per/P3-6-Per.wav,Speaker3,گوینده۳,3,43,283,45,,,,,56.83783895899978,,,,,,,,,,,,,,,,,,,,,,,,,,,,,,,,,,,,,,,,,50.70596837500125,0.0,False,50.70614220900097,592451,001,2024-07-02_10h14.53.673,5-29,2024.1.4,None,2024-07-02 10h14.58.692550 +0900,
Images/Speaker1.jpg,Images/Speaker2.jpg,Images/Speaker3.jpg,Images/Speaker4.jpg,Audio/Speaker1_Per/P1-4-Per.wav,Speaker1,گوینده ۱,3,44,284,3,,,,,56.83783895899978,,,,,,,,,,,,,,,,,,,,,,,,,,,,,,,,,,,,,,,,,50.72205516699978,0.0,False,50.722209292001935,592451,001,2024-07-02_10h14.53.673,5-29,2024.1.4,None,2024-07-02 10h14.58.692550 +0900,
Images/Speaker1.jpg,Images/Speaker2.jpg,Images/Speaker3.jpg,Images/Speaker4.jpg,Audio/Speaker3_Per/P3-12-Per.wav,Speaker3,گوینده۳,3,45,285,51,,,,,56.83783895899978,,,,,,,,,,,,,,,,,,,,,,,,,,,,,,,,,,,,,,,,,50.73815116699916,0.0,False,50.73833995899986,592451,001,2024-07-02_10h14.53.673,5-29,2024.1.4,None,2024-07-02 10h14.58.692550 +0900,
Images/Speaker1.jpg,Images/Speaker2.jpg,Images/Speaker3.jpg,Images/Speaker4.jpg,Audio/Speaker1_Per/P1-1-Per.wav,Speaker1,گوینده ۱,3,46,286,0,,,,,56.83783895899978,,,,,,,,,,,,,,,,,,,,,,,,,,,,,,,,,,,,,,,,,50.75490854199961,0.0,False,50.75506404200132,592451,001,2024-07-02_10h14.53.673,5-29,2024.1.4,None,2024-07-02 10h14.58.692550 +0900,
Images/Speaker1.jpg,Images/Speaker2.jpg,Images/Speaker3.jpg,Images/Speaker4.jpg,Audio/Speaker3_Per/P3-20-Per.wav,Speaker3,گوینده۳,3,47,287,59,,,,,56.83783895899978,,,,,,,,,,,,,,,,,,,,,,,,,,,,,,,,,,,,,,,,,50.77098379200106,0.0,False,50.77115991699975,592451,001,2024-07-02_10h14.53.673,5-29,2024.1.4,None,2024-07-02 10h14.58.692550 +0900,
Images/Speaker1.jpg,Images/Speaker2.jpg,Images/Speaker3.jpg,Images/Speaker4.jpg,Audio/Speaker2_Per/P2-3-Per.wav,Speaker2,گوینده۲,3,48,288,22,,,,,56.83783895899978,,,,,,,,,,,,,,,,,,,,,,,,,,,,,,,,,,,,,,,,,50.78734291699948,0.0,False,50.78750087500157,592451,001,2024-07-02_10h14.53.673,5-29,2024.1.4,None,2024-07-02 10h14.58.692550 +0900,
