SpeakerImage1,SpeakerImage2,SpeakerImage3,SpeakerImage4,TrainingSound,EnglishCorrectAnswer,PersianCorrectAnswer,TrainingLoopGroup1.thisRepN,TrainingLoopGroup1.thisTrialN,TrainingLoopGroup1.thisN,TrainingLoopGroup1.thisIndex,TrainingLoopGroup2.thisRepN,TrainingLoopGroup2.thisTrialN,TrainingLoopGroup2.thisN,TrainingLoopGroup2.thisIndex,Repeat_TrainingLoopGroup3.thisRepN,Repeat_TrainingLoopGroup3.thisTrialN,Repeat_TrainingLoopGroup3.thisN,Repeat_TrainingLoopGroup3.thisIndex,TrainingLoopGroup3.thisRepN,TrainingLoopGroup3.thisTrialN,TrainingLoopGroup3.thisN,TrainingLoopGroup3.thisIndex,thisRow.t,notes,trial.started,trial.stopped,GroupSelection.started,GroupInstructions.started,key_resp.started,GroupSelection.stopped,key_resp.keys,key_resp.rt,key_resp.duration,Introduction.started,text_2.started,image.started,sound_7.started,text_4.started,text_2.stopped,sound_8.started,image.stopped,text_4.stopped,image_7.started,sound_9.started,text_5.started,sound_10.started,image_7.stopped,text_5.stopped,image_8.started,sound_11.started,text_6.started,sound_12.started,image_8.stopped,text_6.stopped,image_9.started,sound_13.started,text_7.started,sound_14.started,image_9.stopped,text_7.stopped,Introduction.stopped,Instructions.started,InstructionText.started,InstructionText.stopped,Instructions.stopped,InitializeExperiment.started,InitializeExperiment.stopped,TrainingGroup3.started,SpeakerPicture3.started,image_15.started,image_16.started,image_17.started,Sound3.started,Instruction3.started,Response3.started,TrainingGroup3.stopped,feedbackText,correct_responses_group3,total_trials_group3,Response3.keys,Response3.rt,Response3.duration,FeedbackRoutine3.started,FeedbackText3.started,FeedbackRoutine3.stopped,FeedbackText3.stopped,CheckAccuracy3.started,CheckAccuracy3.stopped,participant,session,date,expName,psychopyVersion,frameRate,expStart,
,,,,,,,,,,,,,,,,,,,,,,,,,0.009998249999625841,0.014360040999235935,,,,,,,,,,,,,,,,,,,,,,,,,,,,,,,,,,,,,,,,,,,,,,,,,,,,,,,,,,,,,,,607600,001,2024-07-01_18h49.53.709,5-26,2024.1.4,None,2024-07-01 18h49.59.374366 +0900,
,,,,,,,,,,,,,,,,,,,,,,,,,,,0.014378500000020722,0.019678665999890654,0.019678665999890654,0.8067224999995233,3,0.7515357499996753,None,,,,,,,,,,,,,,,,,,,,,,,,,,,,,,,,,,,,,,,,,,,,,,,,,,,,,,,,607600,001,2024-07-01_18h49.53.709,5-26,2024.1.4,None,2024-07-01 18h49.59.374366 +0900,
,,,,,,,,,,,,,,,,,,,,,,,,,,,,,,,,,,0.8067477500007953,0.8770630830003938,5.796582208000473,5.806693957665872,5.796582208000473,5.8707241249994695,10.806337207666973,15.79481179100003,15.79481179100003,15.802255665999837,15.811478457666697,15.802255665999837,20.814143166666568,25.798268541000652,25.798268541000652,25.798268541000652,25.80972541666621,25.798268541000652,30.807103499666724,35.79679358300018,35.79679358300018,35.79679358300018,35.806882999666655,35.79679358300018,40.81382016666636,45.78814945799968,45.78814945799968,45.783871999999974,,,,,,,,,,,,,,,,,,,,,,,,,,,,607600,001,2024-07-01_18h49.53.709,5-26,2024.1.4,None,2024-07-01 18h49.59.374366 +0900,
,,,,,,,,,,,,,,,,,,,,,,,,,,,,,,,,,,,,,,,,,,,,,,,,,,,,,,,,,,,,,,45.78392691599947,45.806825749999916,46.89587429099993,46.795901540999694,,,,,,,,,,,,,,,,,,,,,,,,607600,001,2024-07-01_18h49.53.709,5-26,2024.1.4,None,2024-07-01 18h49.59.374366 +0900,
,,,,,,,,,,,,,,,,,,,,,,,,,,,,,,,,,,,,,,,,,,,,,,,,,,,,,,,,,,,,,,,,,,46.79593620800006,46.79624895800043,,,,,,,,,,,,,,,,,,,,,,607600,001,2024-07-01_18h49.53.709,5-26,2024.1.4,None,2024-07-01 18h49.59.374366 +0900,
Images/Speaker1.jpg,Images/Speaker2.jpg,Images/Speaker3.jpg,Images/Speaker4.jpg,Audio/Speaker2_En/P2-20-En.wav,Speaker2,گوینده۲,,,,,,,,,0,0,0,73,0,0,0,39,46.89587429099993,,,,,,,,,,,,,,,,,,,,,,,,,,,,,,,,,,,,,,,,,,,,,46.871177290999185,46.89587429099993,46.89587429099993,46.89587429099993,46.89587429099993,46.89514629100049,46.89587429099993,46.89587429099993,53.01445295799931,Incorrect! The correct answer is Speaker2. نادرست! پاسخ صحیح گوینده۲ است,0,2,1,6.116182124998886,None,53.014899499999956,53.02857041599964,55.025116082999375,,,,607600,001,2024-07-01_18h49.53.709,5-26,2024.1.4,None,2024-07-01 18h49.59.374366 +0900,
Images/Speaker1.jpg,Images/Speaker2.jpg,Images/Speaker3.jpg,Images/Speaker4.jpg,Audio/Speaker2_En/P2-4-En.wav,Speaker2,گوینده۲,,,,,,,,,0,0,0,73,0,1,1,23,55.05404104099944,,,,,,,,,,,,,,,,,,,,,,,,,,,,,,,,,,,,,,,,,,,,,55.02579508300005,55.05404104099944,55.05404104099944,55.05404104099944,55.05404104099944,55.05827829133389,55.05404104099944,55.05404104099944,55.486160124999515,Incorrect! The correct answer is Speaker2. نادرست! پاسخ صحیح گوینده۲ است,0,4,1,0.42963208299988764,None,55.4903589580008,55.50964966600077,57.49857595799949,,,,607600,001,2024-07-01_18h49.53.709,5-26,2024.1.4,None,2024-07-01 18h49.59.374366 +0900,
Images/Speaker1.jpg,Images/Speaker2.jpg,Images/Speaker3.jpg,Images/Speaker4.jpg,Audio/Speaker1_En/P1-7-En.wav,Speaker1,گوینده ۱,,,,,,,,,0,0,0,73,0,2,2,6,57.52458412499982,,,,,,,,,,,,,,,,,,,,,,,,,,,,,,,,,,,,,,,,,,,,,57.49926879099985,57.52458412499982,57.52458412499982,57.52458412499982,57.52458412499982,57.53175074933327,57.52458412499982,57.52458412499982,57.77593637499922,Correct! صحیح است,0,6,1,0.24860283300040464,None,57.77976350000063,57.79311075000078,59.78145412500089,,,,607600,001,2024-07-01_18h49.53.709,5-26,2024.1.4,None,2024-07-01 18h49.59.374366 +0900,
Images/Speaker1.jpg,Images/Speaker2.jpg,Images/Speaker3.jpg,Images/Speaker4.jpg,Audio/Speaker2_En/P2-11-En.wav,Speaker2,گوینده۲,,,,,,,,,0,0,0,73,0,3,3,30,59.80427583299934,,,,,,,,,,,,,,,,,,,,,,,,,,,,,,,,,,,,,,,,,,,,,59.78164504100096,59.80427583299934,59.80427583299934,59.80427583299934,59.80427583299934,59.79809024966586,59.80427583299934,59.80427583299934,60.032916000000114,Incorrect! The correct answer is Speaker2. نادرست! پاسخ صحیح گوینده۲ است,0,8,1,0.22692437499972584,None,60.036611583000195,60.04887887500081,62.03326358300001,62.060683790999974,,,607600,001,2024-07-01_18h49.53.709,5-26,2024.1.4,None,2024-07-01 18h49.59.374366 +0900,
Images/Speaker1.jpg,Images/Speaker2.jpg,Images/Speaker3.jpg,Images/Speaker4.jpg,Audio/Speaker1_En/P1-19-En.wav,Speaker1,گوینده ۱,,,,,,,,,0,0,0,73,0,4,4,18,62.060683790999974,,,,,,,,,,,,,,,,,,,,,,,,,,,,,,,,,,,,,,,,,,,,,62.03380454100079,62.060683790999974,62.060683790999974,62.060683790999974,62.060683790999974,62.06585099933412,62.060683790999974,62.060683790999974,62.23418599999968,Correct! صحیح است,0,10,1,0.165483040998879,None,62.23849416600024,62.24913183299941,64.24090491599964,,,,607600,001,2024-07-01_18h49.53.709,5-26,2024.1.4,None,2024-07-01 18h49.59.374366 +0900,
Images/Speaker1.jpg,Images/Speaker2.jpg,Images/Speaker3.jpg,Images/Speaker4.jpg,Audio/Speaker2_En/P2-14-En.wav,Speaker2,گوینده۲,,,,,,,,,0,0,0,73,0,5,5,33,64.26479795799969,,,,,,,,,,,,,,,,,,,,,,,,,,,,,,,,,,,,,,,,,,,,,64.24110320799991,64.26479795799969,64.26479795799969,64.26479795799969,64.26479795799969,64.27419754133419,64.26479795799969,64.26479795799969,64.26532895799937,Incorrect! The correct answer is Speaker2. نادرست! پاسخ صحیح گوینده۲ است,0,12,1,2.148406124999383,None,64.26566508299948,64.27565129100003,66.2584637910004,66.28325020800003,,,607600,001,2024-07-01_18h49.53.709,5-26,2024.1.4,None,2024-07-01 18h49.59.374366 +0900,
Images/Speaker1.jpg,Images/Speaker2.jpg,Images/Speaker3.jpg,Images/Speaker4.jpg,Audio/Speaker3_En/P3-16-En.wav,Speaker3,گوینده۳,,,,,,,,,0,0,0,73,0,6,6,55,66.28325020800003,,,,,,,,,,,,,,,,,,,,,,,,,,,,,,,,,,,,,,,,,,,,,66.25888091600063,66.28325020800003,66.28325020800003,66.28325020800003,66.28325020800003,66.29152924933308,66.28325020800003,66.28325020800003,66.36615216599967,Incorrect! The correct answer is Speaker3. نادرست! پاسخ صحیح گوینده۳ است,0,14,1,0.0776410839989694,None,66.37038620800013,66.38324970800022,68.36616474999937,68.38929733300029,,,607600,001,2024-07-01_18h49.53.709,5-26,2024.1.4,None,2024-07-01 18h49.59.374366 +0900,
Images/Speaker1.jpg,Images/Speaker2.jpg,Images/Speaker3.jpg,Images/Speaker4.jpg,Audio/Speaker3_En/P3-8-En.wav,Speaker3,گوینده۳,,,,,,,,,0,0,0,73,0,7,7,47,68.38929733300029,,,,,,,,,,,,,,,,,,,,,,,,,,,,,,,,,,,,,,,,,,,,,68.36635533300068,68.38929733300029,68.38929733300029,68.38929733300029,68.38929733300029,68.39928391633342,68.38929733300029,68.38929733300029,68.7893875410009,Incorrect! The correct answer is Speaker3. نادرست! پاسخ صحیح گوینده۳ است,0,16,1,0.39907795900035126,None,68.79321791599978,68.80543916600072,70.79970325000068,,,,607600,001,2024-07-01_18h49.53.709,5-26,2024.1.4,None,2024-07-01 18h49.59.374366 +0900,
Images/Speaker1.jpg,Images/Speaker2.jpg,Images/Speaker3.jpg,Images/Speaker4.jpg,Audio/Speaker1_En/P1-13-En.wav,Speaker1,گوینده ۱,,,,,,,,,0,0,0,73,0,8,8,12,70.82524454099985,,,,,,,,,,,,,,,,,,,,,,,,,,,,,,,,,,,,,,,,,,,,,70.80030345799969,70.82524454099985,70.82524454099985,70.82524454099985,70.82524454099985,70.83284895833324,70.82524454099985,70.82524454099985,70.94279566600017,Correct! صحیح است,0,18,1,0.10946608300037042,None,70.94666512500044,70.95731479099959,72.94069083300019,72.96744387500075,,,607600,001,2024-07-01_18h49.53.709,5-26,2024.1.4,None,2024-07-01 18h49.59.374366 +0900,
Images/Speaker1.jpg,Images/Speaker2.jpg,Images/Speaker3.jpg,Images/Speaker4.jpg,Audio/Speaker1_En/P1-20-En.wav,Speaker1,گوینده ۱,,,,,,,,,0,0,0,73,0,9,9,19,72.96744387500075,,,,,,,,,,,,,,,,,,,,,,,,,,,,,,,,,,,,,,,,,,,,,72.94170079099968,72.96744387500075,72.96744387500075,72.96744387500075,72.96744387500075,72.97315345833388,72.96744387500075,72.96744387500075,73.02042991599956,Correct! صحیح است,0,20,1,0.05085612500079151,None,73.02416099999937,73.03495812499932,75.02492779100066,75.0504797499998,,,607600,001,2024-07-01_18h49.53.709,5-26,2024.1.4,None,2024-07-01 18h49.59.374366 +0900,
Images/Speaker1.jpg,Images/Speaker2.jpg,Images/Speaker3.jpg,Images/Speaker4.jpg,Audio/Speaker1_En/P1-1-En.wav,Speaker1,گوینده ۱,,,,,,,,,0,0,0,73,0,10,10,0,75.0504797499998,,,,,,,,,,,,,,,,,,,,,,,,,,,,,,,,,,,,,,,,,,,,,75.0255282500002,75.0504797499998,75.0504797499998,75.0504797499998,75.0504797499998,75.05736749933251,75.0504797499998,75.0504797499998,75.33433012500063,Correct! صحیح است,0,22,1,0.27480358299908403,None,75.33859395800027,75.34965225000087,77.3352171660008,77.35879791600019,,,607600,001,2024-07-01_18h49.53.709,5-26,2024.1.4,None,2024-07-01 18h49.59.374366 +0900,
Images/Speaker1.jpg,Images/Speaker2.jpg,Images/Speaker3.jpg,Images/Speaker4.jpg,Audio/Speaker3_En/P3-6-En.wav,Speaker3,گوینده۳,,,,,,,,,0,0,0,73,0,11,11,45,77.35879791600019,,,,,,,,,,,,,,,,,,,,,,,,,,,,,,,,,,,,,,,,,,,,,77.33538504100034,77.35879791600019,77.35879791600019,77.35879791600019,77.35879791600019,77.36836124933373,77.35879791600019,77.35879791600019,78.16826054100056,Incorrect! The correct answer is Speaker3. نادرست! پاسخ صحیح گوینده۳ است,0,24,1,0.8065568750007515,None,78.17205820799973,78.18524216600053,80.17546075000064,,,,607600,001,2024-07-01_18h49.53.709,5-26,2024.1.4,None,2024-07-01 18h49.59.374366 +0900,
Images/Speaker1.jpg,Images/Speaker2.jpg,Images/Speaker3.jpg,Images/Speaker4.jpg,Audio/Speaker3_En/P3-5-En.wav,Speaker3,گوینده۳,,,,,,,,,0,0,0,73,0,12,12,44,80.19844745800037,,,,,,,,,,,,,,,,,,,,,,,,,,,,,,,,,,,,,,,,,,,,,80.1756462909998,80.19844745800037,80.19844745800037,80.19844745800037,80.19844745800037,80.19209037466705,80.19844745800037,80.19844745800037,82.68202379099966,Incorrect! The correct answer is Speaker3. نادرست! پاسخ صحیح گوینده۳ است,0,26,1,2.474271500001123,None,82.68585858299957,82.69885716600038,84.68399108300036,84.70814737500041,,,607600,001,2024-07-01_18h49.53.709,5-26,2024.1.4,None,2024-07-01 18h49.59.374366 +0900,
Images/Speaker1.jpg,Images/Speaker2.jpg,Images/Speaker3.jpg,Images/Speaker4.jpg,Audio/Speaker2_En/P2-10-En.wav,Speaker2,گوینده۲,,,,,,,,,0,0,0,73,0,13,13,29,84.70814737500041,,,,,,,,,,,,,,,,,,,,,,,,,,,,,,,,,,,,,,,,,,,,,84.68483562499932,84.70814737500041,84.70814737500041,84.70814737500041,84.70814737500041,84.71649354133345,84.70814737500041,84.70814737500041,85.0367046249994,Incorrect! The correct answer is Speaker2. نادرست! پاسخ صحیح گوینده۲ است,0,28,1,0.3276384169985249,None,85.04070995800066,85.0540570409994,87.05101462499988,,,,607600,001,2024-07-01_18h49.53.709,5-26,2024.1.4,None,2024-07-01 18h49.59.374366 +0900,
Images/Speaker1.jpg,Images/Speaker2.jpg,Images/Speaker3.jpg,Images/Speaker4.jpg,Audio/Speaker3_En/P3-14-En.wav,Speaker3,گوینده۳,,,,,,,,,0,0,0,73,0,14,14,53,87.07932816600078,,,,,,,,,,,,,,,,,,,,,,,,,,,,,,,,,,,,,,,,,,,,,87.05161479100025,87.07932816600078,87.07932816600078,87.07932816600078,87.07932816600078,87.08418774933355,87.07932816600078,87.07932816600078,87.29775549999977,Incorrect! The correct answer is Speaker3. نادرست! پاسخ صحیح گوینده۳ است,0,30,1,0.20791754099991522,None,87.30175249999957,87.3143198329999,89.30685962499956,,,,607600,001,2024-07-01_18h49.53.709,5-26,2024.1.4,None,2024-07-01 18h49.59.374366 +0900,
Images/Speaker1.jpg,Images/Speaker2.jpg,Images/Speaker3.jpg,Images/Speaker4.jpg,Audio/Speaker1_En/P1-2-En.wav,Speaker1,گوینده ۱,,,,,,,,,0,0,0,73,0,15,15,1,89.33184662500025,,,,,,,,,,,,,,,,,,,,,,,,,,,,,,,,,,,,,,,,,,,,,89.30754237499968,89.33184662500025,89.33184662500025,89.33184662500025,89.33184662500025,89.3400572913329,89.33184662500025,89.33184662500025,89.44885095800055,Correct! صحیح است,0,32,1,0.1078150840003218,None,89.45270279100077,89.46320899999955,91.46035420800035,,,,607600,001,2024-07-01_18h49.53.709,5-26,2024.1.4,None,2024-07-01 18h49.59.374366 +0900,
Images/Speaker1.jpg,Images/Speaker2.jpg,Images/Speaker3.jpg,Images/Speaker4.jpg,Audio/Speaker2_En/P2-19-En.wav,Speaker2,گوینده۲,,,,,,,,,0,0,0,73,0,16,16,38,91.48637525000049,,,,,,,,,,,,,,,,,,,,,,,,,,,,,,,,,,,,,,,,,,,,,91.4609574999995,91.48637525000049,91.48637525000049,91.48637525000049,91.48637525000049,91.49354345833356,91.48637525000049,91.48637525000049,91.80179529099951,Incorrect! The correct answer is Speaker2. نادرست! پاسخ صحیح گوینده۲ است,0,34,1,0.30544416700104193,None,91.80584662500041,91.81657224999981,93.8052021250005,93.82902741600083,,,607600,001,2024-07-01_18h49.53.709,5-26,2024.1.4,None,2024-07-01 18h49.59.374366 +0900,
Images/Speaker1.jpg,Images/Speaker2.jpg,Images/Speaker3.jpg,Images/Speaker4.jpg,Audio/Speaker1_En/P1-4-En.wav,Speaker1,گوینده ۱,,,,,,,,,0,0,0,73,0,17,17,3,93.82902741600083,,,,,,,,,,,,,,,,,,,,,,,,,,,,,,,,,,,,,,,,,,,,,93.80541537499994,93.82902741600083,93.82902741600083,93.82902741600083,93.82902741600083,93.83825449933332,93.82902741600083,93.82902741600083,93.83535258300071,Correct! صحیح است,0,36,1,0.004463416998987668,None,93.83926991599947,93.84990837499936,95.83947558299951,95.8611340410007,,,607600,001,2024-07-01_18h49.53.709,5-26,2024.1.4,None,2024-07-01 18h49.59.374366 +0900,
Images/Speaker1.jpg,Images/Speaker2.jpg,Images/Speaker3.jpg,Images/Speaker4.jpg,Audio/Speaker1_En/P1-4-En.wav,Speaker1,گوینده ۱,,,,,,,,,0,0,0,73,0,18,18,13,95.8611340410007,,,,,,,,,,,,,,,,,,,,,,,,,,,,,,,,,,,,,,,,,,,,,95.8396332909997,95.8611340410007,95.8611340410007,95.8611340410007,95.8611340410007,95.85586774966602,95.8611340410007,95.8611340410007,95.86171445800028,Correct! صحیح است,0,38,1,1.9916077090001636,None,95.86580462500024,95.87393150000025,97.86814262500047,,,,607600,001,2024-07-01_18h49.53.709,5-26,2024.1.4,None,2024-07-01 18h49.59.374366 +0900,
Images/Speaker1.jpg,Images/Speaker2.jpg,Images/Speaker3.jpg,Images/Speaker4.jpg,Audio/Speaker1_En/P1-11-En.wav,Speaker1,گوینده ۱,,,,,,,,,0,0,0,73,0,19,19,10,97.8918233330005,,,,,,,,,,,,,,,,,,,,,,,,,,,,,,,,,,,,,,,,,,,,,97.86831650000022,97.8918233330005,97.8918233330005,97.8918233330005,97.8918233330005,97.9014357913334,97.8918233330005,97.8918233330005,98.11545679099981,Correct! صحیح است,0,40,1,0.21673562499927357,None,98.11960337500022,98.13050187500085,100.11899754099977,100.1448703749993,,,607600,001,2024-07-01_18h49.53.709,5-26,2024.1.4,None,2024-07-01 18h49.59.374366 +0900,
Images/Speaker1.jpg,Images/Speaker2.jpg,Images/Speaker3.jpg,Images/Speaker4.jpg,Audio/Speaker3_En/P3-13-En.wav,Speaker3,گوینده۳,,,,,,,,,0,0,0,73,0,20,20,52,100.1448703749993,,,,,,,,,,,,,,,,,,,,,,,,,,,,,,,,,,,,,,,,,,,,,100.11915970799964,100.1448703749993,100.1448703749993,100.1448703749993,100.1448703749993,100.15171220833375,100.1448703749993,100.1448703749993,100.14549583299959,Incorrect! The correct answer is Speaker3. نادرست! پاسخ صحیح گوینده۳ است,0,42,1,2.2144514579995302,None,100.14586208299988,100.15609320799922,102.14230516600037,102.16578758300057,,,607600,001,2024-07-01_18h49.53.709,5-26,2024.1.4,None,2024-07-01 18h49.59.374366 +0900,
Images/Speaker1.jpg,Images/Speaker2.jpg,Images/Speaker3.jpg,Images/Speaker4.jpg,Audio/Speaker3_En/P3-7-En.wav,Speaker3,گوینده۳,,,,,,,,,0,0,0,73,0,21,21,46,102.16578758300057,,,,,,,,,,,,,,,,,,,,,,,,,,,,,,,,,,,,,,,,,,,,,102.1424828750005,102.16578758300057,102.16578758300057,102.16578758300057,102.16578758300057,102.17539687433285,102.16578758300057,102.16578758300057,102.1663885830003,Incorrect! The correct answer is Speaker3. نادرست! پاسخ صحیح گوینده۳ است,0,44,1,1.983643084000505,None,102.16678141600096,102.17701070799922,104.16241941599947,104.18644620799932,,,607600,001,2024-07-01_18h49.53.709,5-26,2024.1.4,None,2024-07-01 18h49.59.374366 +0900,
Images/Speaker1.jpg,Images/Speaker2.jpg,Images/Speaker3.jpg,Images/Speaker4.jpg,Audio/Speaker3_En/P3-3-En.wav,Speaker3,گوینده۳,,,,,,,,,0,0,0,73,0,22,22,42,104.18644620799932,,,,,,,,,,,,,,,,,,,,,,,,,,,,,,,,,,,,,,,,,,,,,104.16302808299952,104.18644620799932,104.18644620799932,104.18644620799932,104.18644620799932,104.19473208333378,104.18644620799932,104.18644620799932,104.34288566599935,Incorrect! The correct answer is Speaker3. نادرست! پاسخ صحیح گوینده۳ است,0,46,1,0.15523541599941382,None,104.34680425000079,104.35966641599953,106.34701416600001,106.37262008300058,,,607600,001,2024-07-01_18h49.53.709,5-26,2024.1.4,None,2024-07-01 18h49.59.374366 +0900,
Images/Speaker1.jpg,Images/Speaker2.jpg,Images/Speaker3.jpg,Images/Speaker4.jpg,Audio/Speaker1_En/P1-6-En.wav,Speaker1,گوینده ۱,,,,,,,,,0,0,0,73,0,23,23,5,106.37262008300058,,,,,,,,,,,,,,,,,,,,,,,,,,,,,,,,,,,,,,,,,,,,,106.3472044579994,106.37262008300058,106.37262008300058,106.37262008300058,106.37262008300058,106.37970345833358,106.37262008300058,106.37262008300058,106.37322979099918,Correct! صحیح است,0,48,1,2.15719529099988,None,106.37371437500042,106.38184487500075,108.36453174999951,108.38849420800034,,,607600,001,2024-07-01_18h49.53.709,5-26,2024.1.4,None,2024-07-01 18h49.59.374366 +0900,
Images/Speaker1.jpg,Images/Speaker2.jpg,Images/Speaker3.jpg,Images/Speaker4.jpg,Audio/Speaker3_En/P3-4-En.wav,Speaker3,گوینده۳,,,,,,,,,0,0,0,73,0,24,24,43,108.38849420800034,,,,,,,,,,,,,,,,,,,,,,,,,,,,,,,,,,,,,,,,,,,,,108.36470716599979,108.38849420800034,108.38849420800034,108.38849420800034,108.38849420800034,108.3976604583336,108.38849420800034,108.38849420800034,108.71740712499923,Incorrect! The correct answer is Speaker3. نادرست! پاسخ صحیح گوینده۳ است,0,50,1,0.32196333299907565,None,108.72131941599946,108.7341152909994,110.72222266599965,,,,607600,001,2024-07-01_18h49.53.709,5-26,2024.1.4,None,2024-07-01 18h49.59.374366 +0900,
Images/Speaker1.jpg,Images/Speaker2.jpg,Images/Speaker3.jpg,Images/Speaker4.jpg,Audio/Speaker4_En/P4-17-En.wav,Speaker4,گوینده۴,,,,,,,,,0,0,0,73,0,25,25,76,110.74962812500053,,,,,,,,,,,,,,,,,,,,,,,,,,,,,,,,,,,,,,,,,,,,,110.72284483300064,110.74962812500053,110.74962812500053,110.74962812500053,110.74962812500053,110.75537612433303,110.74962812500053,110.74962812500053,110.8082671659995,Incorrect! The correct answer is Speaker4. نادرست! پاسخ صحیح گوینده۴ است,0,52,1,0.05707912500110979,None,110.81215116599924,110.82471466599964,112.8214044159995,,,,607600,001,2024-07-01_18h49.53.709,5-26,2024.1.4,None,2024-07-01 18h49.59.374366 +0900,
Images/Speaker1.jpg,Images/Speaker2.jpg,Images/Speaker3.jpg,Images/Speaker4.jpg,Audio/Speaker4_En/P4-4-En.wav,Speaker4,گوینده۴,,,,,,,,,0,0,0,73,0,26,26,63,112.8502159159998,,,,,,,,,,,,,,,,,,,,,,,,,,,,,,,,,,,,,,,,,,,,,112.82203216599919,112.8502159159998,112.8502159159998,112.8502159159998,112.8502159159998,112.85460387433389,112.8502159159998,112.8502159159998,112.97908354100036,Incorrect! The correct answer is Speaker4. نادرست! پاسخ صحیح گوینده۴ است,0,54,1,0.1171123339991027,None,112.98280441600036,112.99557537500004,114.97829654099951,115.00171283300006,,,607600,001,2024-07-01_18h49.53.709,5-26,2024.1.4,None,2024-07-01 18h49.59.374366 +0900,
Images/Speaker1.jpg,Images/Speaker2.jpg,Images/Speaker3.jpg,Images/Speaker4.jpg,Audio/Speaker4_En/P4-3-En.wav,Speaker4,گوینده۴,,,,,,,,,0,0,0,73,0,27,27,62,115.00171283300006,,,,,,,,,,,,,,,,,,,,,,,,,,,,,,,,,,,,,,,,,,,,,114.97846116599976,115.00171283300006,115.00171283300006,115.00171283300006,115.00171283300006,114.99469474966669,115.00171283300006,115.00171283300006,115.40721079099967,Incorrect! The correct answer is Speaker4. نادرست! پاسخ صحیح گوینده۴ است,0,56,1,0.40083824999965145,None,115.41096137500062,115.42337433300054,117.40905554100027,117.43272799999977,,,607600,001,2024-07-01_18h49.53.709,5-26,2024.1.4,None,2024-07-01 18h49.59.374366 +0900,
Images/Speaker1.jpg,Images/Speaker2.jpg,Images/Speaker3.jpg,Images/Speaker4.jpg,Audio/Speaker1_En/P1-9-En.wav,Speaker1,گوینده ۱,,,,,,,,,0,0,0,73,0,28,28,8,117.43272799999977,,,,,,,,,,,,,,,,,,,,,,,,,,,,,,,,,,,,,,,,,,,,,117.40926324999964,117.43272799999977,117.43272799999977,117.43272799999977,117.43272799999977,117.44209170833395,117.43272799999977,117.43272799999977,117.7927963330003,Correct! صحیح است,0,58,1,0.34882383399963146,None,117.7968794999997,117.80587220800044,119.78874329099926,119.81342733299971,,,607600,001,2024-07-01_18h49.53.709,5-26,2024.1.4,None,2024-07-01 18h49.59.374366 +0900,
Images/Speaker1.jpg,Images/Speaker2.jpg,Images/Speaker3.jpg,Images/Speaker4.jpg,Audio/Speaker4_En/P4-14-En.wav,Speaker4,گوینده۴,,,,,,,,,0,0,0,73,0,29,29,73,119.81342733299971,,,,,,,,,,,,,,,,,,,,,,,,,,,,,,,,,,,,,,,,,,,,,119.78893920799965,119.81342733299971,119.81342733299971,119.81342733299971,119.81342733299971,119.82186508333373,119.81342733299971,119.81342733299971,119.99189275000026,Incorrect! The correct answer is Speaker4. نادرست! پاسخ صحیح گوینده۴ است,0,60,1,0.17426529200020013,None,119.99566254099955,120.00836654100021,121.99297387499973,122.01683695800057,,,607600,001,2024-07-01_18h49.53.709,5-26,2024.1.4,None,2024-07-01 18h49.59.374366 +0900,
Images/Speaker1.jpg,Images/Speaker2.jpg,Images/Speaker3.jpg,Images/Speaker4.jpg,Audio/Speaker2_En/P2-18-En.wav,Speaker2,گوینده۲,,,,,,,,,0,0,0,73,0,30,30,37,122.01683695800057,,,,,,,,,,,,,,,,,,,,,,,,,,,,,,,,,,,,,,,,,,,,,121.99314216600033,122.01683695800057,122.01683695800057,122.01683695800057,122.01683695800057,122.0259935833333,122.01683695800057,122.01683695800057,122.01745545800077,Incorrect! The correct answer is Speaker2. نادرست! پاسخ صحیح گوینده۲ است,0,62,1,2.1124648330005584,None,122.01783000000069,122.02732754099998,124.01183524999942,124.03910058300062,,,607600,001,2024-07-01_18h49.53.709,5-26,2024.1.4,None,2024-07-01 18h49.59.374366 +0900,
Images/Speaker1.jpg,Images/Speaker2.jpg,Images/Speaker3.jpg,Images/Speaker4.jpg,Audio/Speaker2_En/P2-6-En.wav,Speaker2,گوینده۲,,,,,,,,,0,0,0,73,0,31,31,25,124.03910058300062,,,,,,,,,,,,,,,,,,,,,,,,,,,,,,,,,,,,,,,,,,,,,124.0123715410009,124.03910058300062,124.03910058300062,124.03910058300062,124.03910058300062,124.0442627493326,124.03910058300062,124.03910058300062,124.03970358299921,Incorrect! The correct answer is Speaker2. نادرست! پاسخ صحیح گوینده۲ است,0,64,1,1.9996467500004655,None,124.0400069999996,124.05005979099951,126.0394451659995,126.06135454099967,,,607600,001,2024-07-01_18h49.53.709,5-26,2024.1.4,None,2024-07-01 18h49.59.374366 +0900,
Images/Speaker1.jpg,Images/Speaker2.jpg,Images/Speaker3.jpg,Images/Speaker4.jpg,Audio/Speaker2_En/P2-16-En.wav,Speaker2,گوینده۲,,,,,,,,,0,0,0,73,0,32,32,35,126.06135454099967,,,,,,,,,,,,,,,,,,,,,,,,,,,,,,,,,,,,,,,,,,,,,126.03961879100098,126.06135454099967,126.06135454099967,126.06135454099967,126.06135454099967,126.05590666666673,126.06135454099967,126.06135454099967,126.19510637500025,Incorrect! The correct answer is Speaker2. نادرست! پاسخ صحیح گوینده۲ است,0,66,1,0.13161475000015344,None,126.19899745799921,126.21157816599953,128.1957274159995,128.21883383299974,,,607600,001,2024-07-01_18h49.53.709,5-26,2024.1.4,None,2024-07-01 18h49.59.374366 +0900,
Images/Speaker1.jpg,Images/Speaker2.jpg,Images/Speaker3.jpg,Images/Speaker4.jpg,Audio/Speaker4_En/P4-7-En.wav,Speaker4,گوینده۴,,,,,,,,,0,0,0,73,0,33,33,66,128.21883383299974,,,,,,,,,,,,,,,,,,,,,,,,,,,,,,,,,,,,,,,,,,,,,128.19591054100056,128.21883383299974,128.21883383299974,128.21883383299974,128.21883383299974,128.22875262433314,128.21883383299974,128.21883383299974,128.36979758300004,Incorrect! The correct answer is Speaker4. نادرست! پاسخ صحیح گوینده۴ است,0,68,1,0.14255483299893967,None,128.37381129099958,128.38606366599925,130.3798189579993,,,,607600,001,2024-07-01_18h49.53.709,5-26,2024.1.4,None,2024-07-01 18h49.59.374366 +0900,
Images/Speaker1.jpg,Images/Speaker2.jpg,Images/Speaker3.jpg,Images/Speaker4.jpg,Audio/Speaker4_En/P4-12-En.wav,Speaker4,گوینده۴,,,,,,,,,0,0,0,73,0,34,34,71,130.40885779100063,,,,,,,,,,,,,,,,,,,,,,,,,,,,,,,,,,,,,,,,,,,,,130.3803772909996,130.40885779100063,130.40885779100063,130.40885779100063,130.40885779100063,130.41300374933286,130.40885779100063,130.40885779100063,130.5694613329997,Incorrect! The correct answer is Speaker4. نادرست! پاسخ صحیح گوینده۴ است,0,70,1,None,None,130.5735985829997,130.58462279100058,132.5694228329994,132.59175091600082,,,607600,001,2024-07-01_18h49.53.709,5-26,2024.1.4,None,2024-07-01 18h49.59.374366 +0900,
Images/Speaker1.jpg,Images/Speaker2.jpg,Images/Speaker3.jpg,Images/Speaker4.jpg,Audio/Speaker4_En/P4-6-En.wav,Speaker4,گوینده۴,,,,,,,,,0,0,0,73,0,35,35,65,132.59175091600082,,,,,,,,,,,,,,,,,,,,,,,,,,,,,,,,,,,,,,,,,,,,,132.56962145800026,132.59175091600082,132.59175091600082,132.59175091600082,132.59175091600082,132.58589404166767,132.59175091600082,132.59175091600082,132.63559237499976,Incorrect! The correct answer is Speaker4. نادرست! پاسخ صحیح گوینده۴ است,0,72,1,0.03445616699900711,None,132.63944645800075,132.6524932909997,134.63903845800087,134.6638767910008,,,607600,001,2024-07-01_18h49.53.709,5-26,2024.1.4,None,2024-07-01 18h49.59.374366 +0900,
Images/Speaker1.jpg,Images/Speaker2.jpg,Images/Speaker3.jpg,Images/Speaker4.jpg,Audio/Speaker4_En/P4-11-En.wav,Speaker4,گوینده۴,,,,,,,,,0,0,0,73,0,36,36,70,134.6638767910008,,,,,,,,,,,,,,,,,,,,,,,,,,,,,,,,,,,,,,,,,,,,,134.63954183299938,134.6638767910008,134.6638767910008,134.6638767910008,134.6638767910008,134.6715645413338,134.6638767910008,134.6638767910008,134.6644976660009,Incorrect! The correct answer is Speaker4. نادرست! پاسخ صحیح گوینده۴ است,0,74,1,1.9506189579988131,None,134.66473691600004,134.6748504999996,136.6710215410003,,,,607600,001,2024-07-01_18h49.53.709,5-26,2024.1.4,None,2024-07-01 18h49.59.374366 +0900,
Images/Speaker1.jpg,Images/Speaker2.jpg,Images/Speaker3.jpg,Images/Speaker4.jpg,Audio/Speaker2_En/P2-5-En.wav,Speaker2,گوینده۲,,,,,,,,,0,0,0,73,0,37,37,24,136.6996256250004,,,,,,,,,,,,,,,,,,,,,,,,,,,,,,,,,,,,,,,,,,,,,136.67168133300038,136.6996256250004,136.6996256250004,136.6996256250004,136.6996256250004,136.70414074933302,136.6996256250004,136.6996256250004,136.7002954159998,Incorrect! The correct answer is Speaker2. نادرست! پاسخ صحیح گوینده۲ است,0,76,1,1.9953889589996834,None,136.70070654099982,136.71080091600015,138.69761762500093,138.71981941600097,,,607600,001,2024-07-01_18h49.53.709,5-26,2024.1.4,None,2024-07-01 18h49.59.374366 +0900,
Images/Speaker1.jpg,Images/Speaker2.jpg,Images/Speaker3.jpg,Images/Speaker4.jpg,Audio/Speaker3_En/P3-12-En.wav,Speaker3,گوینده۳,,,,,,,,,0,0,0,73,0,38,38,51,138.71981941600097,,,,,,,,,,,,,,,,,,,,,,,,,,,,,,,,,,,,,,,,,,,,,138.69777479100048,138.71981941600097,138.71981941600097,138.71981941600097,138.71981941600097,138.71408779166657,138.71981941600097,138.71981941600097,138.7356770410006,Incorrect! The correct answer is Speaker3. نادرست! پاسخ صحیح گوینده۳ است,0,78,1,0.014533625000694883,None,138.73945591600022,138.7516815830004,140.73538208299942,140.75804920799965,,,607600,001,2024-07-01_18h49.53.709,5-26,2024.1.4,None,2024-07-01 18h49.59.374366 +0900,
Images/Speaker1.jpg,Images/Speaker2.jpg,Images/Speaker3.jpg,Images/Speaker4.jpg,Audio/Speaker3_En/P3-17-En.wav,Speaker3,گوینده۳,,,,,,,,,0,0,0,73,0,39,39,56,140.75804920799965,,,,,,,,,,,,,,,,,,,,,,,,,,,,,,,,,,,,,,,,,,,,,140.73557154099944,140.75804920799965,140.75804920799965,140.75804920799965,140.75804920799965,140.75183591666635,140.75804920799965,140.75804920799965,140.80807262500093,Incorrect! The correct answer is Speaker3. نادرست! پاسخ صحیح گوینده۳ است,0,80,1,0.0427534589998686,None,140.8119993750006,140.8240102079999,142.8140006249996,,,,607600,001,2024-07-01_18h49.53.709,5-26,2024.1.4,None,2024-07-01 18h49.59.374366 +0900,
Images/Speaker1.jpg,Images/Speaker2.jpg,Images/Speaker3.jpg,Images/Speaker4.jpg,Audio/Speaker1_En/P1-10-En.wav,Speaker1,گوینده ۱,,,,,,,,,0,0,0,73,0,40,40,9,142.83696233299997,,,,,,,,,,,,,,,,,,,,,,,,,,,,,,,,,,,,,,,,,,,,,142.81416970800092,142.83696233299997,142.83696233299997,142.83696233299997,142.83696233299997,142.83063345766666,142.83696233299997,142.83696233299997,142.83761141600007,Correct! صحیح است,0,82,1,2.029953333998492,None,142.84133454100083,142.84904358300082,144.8403302909992,144.86269037500097,,,607600,001,2024-07-01_18h49.53.709,5-26,2024.1.4,None,2024-07-01 18h49.59.374366 +0900,
Images/Speaker1.jpg,Images/Speaker2.jpg,Images/Speaker3.jpg,Images/Speaker4.jpg,Audio/Speaker4_En/P4-8-En.wav,Speaker4,گوینده۴,,,,,,,,,0,0,0,73,0,41,41,67,144.86269037500097,,,,,,,,,,,,,,,,,,,,,,,,,,,,,,,,,,,,,,,,,,,,,144.8405053330007,144.86269037500097,144.86269037500097,144.86269037500097,144.86269037500097,144.85676783266743,144.86269037500097,144.86269037500097,144.92332958299994,Incorrect! The correct answer is Speaker4. نادرست! پاسخ صحیح گوینده۴ است,0,84,1,0.052281041998867295,None,144.92763987500075,144.94049970800006,146.93134054099937,,,,607600,001,2024-07-01_18h49.53.709,5-26,2024.1.4,None,2024-07-01 18h49.59.374366 +0900,
Images/Speaker1.jpg,Images/Speaker2.jpg,Images/Speaker3.jpg,Images/Speaker4.jpg,Audio/Speaker1_En/P1-18-En.wav,Speaker1,گوینده ۱,,,,,,,,,0,0,0,73,0,42,42,17,146.95416116600063,,,,,,,,,,,,,,,,,,,,,,,,,,,,,,,,,,,,,,,,,,,,,146.93151366600068,146.95416116600063,146.95416116600063,146.95416116600063,146.95416116600063,146.94796941666598,146.95416116600063,146.95416116600063,146.9548140829993,Correct! صحیح است,0,86,1,2.030723958998351,None,146.9585452909996,146.9669034159997,148.96063950000098,,,,607600,001,2024-07-01_18h49.53.709,5-26,2024.1.4,None,2024-07-01 18h49.59.374366 +0900,
Images/Speaker1.jpg,Images/Speaker2.jpg,Images/Speaker3.jpg,Images/Speaker4.jpg,Audio/Speaker4_En/P4-9-En.wav,Speaker4,گوینده۴,,,,,,,,,0,0,0,73,0,43,43,68,148.9899564160005,,,,,,,,,,,,,,,,,,,,,,,,,,,,,,,,,,,,,,,,,,,,,148.9612203329998,148.9899564160005,148.9899564160005,148.9899564160005,148.9899564160005,148.99383754133356,148.9899564160005,148.9899564160005,148.99057008300042,Incorrect! The correct answer is Speaker4. نادرست! پاسخ صحیح گوینده۴ است,0,88,1,2.000234625000303,None,148.994532875,149.00420362499972,150.9898892910005,151.0135724160009,,,607600,001,2024-07-01_18h49.53.709,5-26,2024.1.4,None,2024-07-01 18h49.59.374366 +0900,
Images/Speaker1.jpg,Images/Speaker2.jpg,Images/Speaker3.jpg,Images/Speaker4.jpg,Audio/Speaker3_En/P3-10-En.wav,Speaker3,گوینده۳,,,,,,,,,0,0,0,73,0,44,44,49,151.0135724160009,,,,,,,,,,,,,,,,,,,,,,,,,,,,,,,,,,,,,,,,,,,,,150.99008395800047,151.0135724160009,151.0135724160009,151.0135724160009,151.0135724160009,151.0229599163327,151.0135724160009,151.0135724160009,151.1695185410008,Incorrect! The correct answer is Speaker3. نادرست! پاسخ صحیح گوینده۳ است,0,90,1,None,None,151.17360995799936,151.1839295000009,153.1695085829997,153.1935013330003,,,607600,001,2024-07-01_18h49.53.709,5-26,2024.1.4,None,2024-07-01 18h49.59.374366 +0900,
Images/Speaker1.jpg,Images/Speaker2.jpg,Images/Speaker3.jpg,Images/Speaker4.jpg,Audio/Speaker1_En/P1-5-En.wav,Speaker1,گوینده ۱,,,,,,,,,0,0,0,73,0,45,45,4,153.1935013330003,,,,,,,,,,,,,,,,,,,,,,,,,,,,,,,,,,,,,,,,,,,,,153.1697096250009,153.1935013330003,153.1935013330003,153.1935013330003,153.1935013330003,153.20205645833317,153.1935013330003,153.1935013330003,153.61870262500088,Correct! صحیح است,0,92,1,0.41498158300055366,None,153.62268041599964,153.63381833300082,155.6248994159996,,,,607600,001,2024-07-01_18h49.53.709,5-26,2024.1.4,None,2024-07-01 18h49.59.374366 +0900,
Images/Speaker1.jpg,Images/Speaker2.jpg,Images/Speaker3.jpg,Images/Speaker4.jpg,Audio/Speaker4_En/P4-18-En.wav,Speaker4,گوینده۴,,,,,,,,,0,0,0,73,0,46,46,77,155.6502104579995,,,,,,,,,,,,,,,,,,,,,,,,,,,,,,,,,,,,,,,,,,,,,155.6255230000006,155.6502104579995,155.6502104579995,155.6502104579995,155.6502104579995,155.65801712433364,155.6502104579995,155.6502104579995,156.02382600000055,Incorrect! The correct answer is Speaker4. نادرست! پاسخ صحیح گوینده۴ است,0,94,1,0.3726499160002277,None,156.0277111659998,156.04117399999996,158.0258902910009,158.05001487499976,,,607600,001,2024-07-01_18h49.53.709,5-26,2024.1.4,None,2024-07-01 18h49.59.374366 +0900,
Images/Speaker1.jpg,Images/Speaker2.jpg,Images/Speaker3.jpg,Images/Speaker4.jpg,Audio/Speaker1_En/P1-8-En.wav,Speaker1,گوینده ۱,,,,,,,,,0,0,0,73,0,47,47,7,158.05001487499976,,,,,,,,,,,,,,,,,,,,,,,,,,,,,,,,,,,,,,,,,,,,,158.02682470800028,158.05001487499976,158.05001487499976,158.05001487499976,158.05001487499976,158.05830412433403,158.05001487499976,158.05001487499976,158.15521141600038,Correct! صحیح است,0,96,1,0.10380708299999242,None,158.1592485830006,158.16991041599977,160.15251187499962,160.17490800000087,,,607600,001,2024-07-01_18h49.53.709,5-26,2024.1.4,None,2024-07-01 18h49.59.374366 +0900,
Images/Speaker1.jpg,Images/Speaker2.jpg,Images/Speaker3.jpg,Images/Speaker4.jpg,Audio/Speaker4_En/P4-20-En.wav,Speaker4,گوینده۴,,,,,,,,,0,0,0,73,0,48,48,79,160.17490800000087,,,,,,,,,,,,,,,,,,,,,,,,,,,,,,,,,,,,,,,,,,,,,160.15268925000055,160.17490800000087,160.17490800000087,160.17490800000087,160.17490800000087,160.16897333266596,160.17490800000087,160.17490800000087,160.50023379100094,Incorrect! The correct answer is Speaker4. نادرست! پاسخ صحیح گوینده۴ است,0,98,1,0.31114645799971186,None,160.504591541001,160.5173727500005,162.5041459160002,162.52714529100012,,,607600,001,2024-07-01_18h49.53.709,5-26,2024.1.4,None,2024-07-01 18h49.59.374366 +0900,
Images/Speaker1.jpg,Images/Speaker2.jpg,Images/Speaker3.jpg,Images/Speaker4.jpg,Audio/Speaker2_En/P2-7-En.wav,Speaker2,گوینده۲,,,,,,,,,0,0,0,73,0,49,49,26,162.52714529100012,,,,,,,,,,,,,,,,,,,,,,,,,,,,,,,,,,,,,,,,,,,,,162.50432858299973,162.52714529100012,162.52714529100012,162.52714529100012,162.52714529100012,162.5372659583341,162.52714529100012,162.52714529100012,162.6880659159997,Incorrect! The correct answer is Speaker2. نادرست! پاسخ صحیح گوینده۲ است,0,100,1,0.15802070899917453,None,162.69198662500094,162.70446045800054,164.69980254099937,,,,607600,001,2024-07-01_18h49.53.709,5-26,2024.1.4,None,2024-07-01 18h49.59.374366 +0900,
Images/Speaker1.jpg,Images/Speaker2.jpg,Images/Speaker3.jpg,Images/Speaker4.jpg,Audio/Speaker2_En/P2-9-En.wav,Speaker2,گوینده۲,,,,,,,,,0,0,0,73,0,50,50,28,164.72393600000032,,,,,,,,,,,,,,,,,,,,,,,,,,,,,,,,,,,,,,,,,,,,,164.70049024999935,164.72393600000032,164.72393600000032,164.72393600000032,164.72393600000032,164.73294454133298,164.72393600000032,164.72393600000032,164.89754924999943,Incorrect! The correct answer is Speaker2. نادرست! پاسخ صحیح گوینده۲ است,0,102,1,0.17120787499879953,None,164.90178066599947,164.91393866600083,166.90687154099942,,,,607600,001,2024-07-01_18h49.53.709,5-26,2024.1.4,None,2024-07-01 18h49.59.374366 +0900,
Images/Speaker1.jpg,Images/Speaker2.jpg,Images/Speaker3.jpg,Images/Speaker4.jpg,Audio/Speaker3_En/P3-11-En.wav,Speaker3,گوینده۳,,,,,,,,,0,0,0,73,0,51,51,50,166.93059999999969,,,,,,,,,,,,,,,,,,,,,,,,,,,,,,,,,,,,,,,,,,,,,166.9070504579995,166.93059999999969,166.93059999999969,166.93059999999969,166.93059999999969,166.94016841633362,166.93059999999969,166.93059999999969,167.0442918330009,Incorrect! The correct answer is Speaker3. نادرست! پاسخ صحیح گوینده۳ است,0,104,1,0.11166400000001886,None,167.04835662500045,167.06141929099977,169.0495910410009,,,,607600,001,2024-07-01_18h49.53.709,5-26,2024.1.4,None,2024-07-01 18h49.59.374366 +0900,
Images/Speaker1.jpg,Images/Speaker2.jpg,Images/Speaker3.jpg,Images/Speaker4.jpg,Audio/Speaker2_En/P2-8-En.wav,Speaker2,گوینده۲,,,,,,,,,0,0,0,73,0,52,52,27,169.07121658300093,,,,,,,,,,,,,,,,,,,,,,,,,,,,,,,,,,,,,,,,,,,,,169.04980079100096,169.07121658300093,169.07121658300093,169.07121658300093,169.07121658300093,169.06620516666615,169.07121658300093,169.07121658300093,169.08704716600005,Incorrect! The correct answer is Speaker2. نادرست! پاسخ صحیح گوینده۲ است,0,106,1,0.01442437500008964,None,169.09085012499963,169.10308545800035,171.09019508299934,171.11237533299936,,,607600,001,2024-07-01_18h49.53.709,5-26,2024.1.4,None,2024-07-01 18h49.59.374366 +0900,
Images/Speaker1.jpg,Images/Speaker2.jpg,Images/Speaker3.jpg,Images/Speaker4.jpg,Audio/Speaker4_En/P4-16-En.wav,Speaker4,گوینده۴,,,,,,,,,0,0,0,73,0,53,53,75,171.11237533299936,,,,,,,,,,,,,,,,,,,,,,,,,,,,,,,,,,,,,,,,,,,,,171.09037729100055,171.11237533299936,171.11237533299936,171.11237533299936,171.11237533299936,171.10661841666686,171.11237533299936,171.11237533299936,171.14972354100064,Incorrect! The correct answer is Speaker4. نادرست! پاسخ صحیح گوینده۴ است,0,108,1,0.03472045799935586,None,171.15368716600096,171.16628720799963,173.15760679100094,,,,607600,001,2024-07-01_18h49.53.709,5-26,2024.1.4,None,2024-07-01 18h49.59.374366 +0900,
Images/Speaker1.jpg,Images/Speaker2.jpg,Images/Speaker3.jpg,Images/Speaker4.jpg,Audio/Speaker3_En/P3-15-En.wav,Speaker3,گوینده۳,,,,,,,,,0,0,0,73,0,54,54,54,173.18200695800078,,,,,,,,,,,,,,,,,,,,,,,,,,,,,,,,,,,,,,,,,,,,,173.1578141659993,173.18200695800078,173.18200695800078,173.18200695800078,173.18200695800078,173.190909374333,173.18200695800078,173.18200695800078,173.19833508299962,Incorrect! The correct answer is Speaker3. نادرست! پاسخ صحیح گوینده۳ است,0,110,1,0.01285262500095996,None,173.20245149999937,173.21505445799994,175.20217158299965,175.22612333300094,,,607600,001,2024-07-01_18h49.53.709,5-26,2024.1.4,None,2024-07-01 18h49.59.374366 +0900,
Images/Speaker1.jpg,Images/Speaker2.jpg,Images/Speaker3.jpg,Images/Speaker4.jpg,Audio/Speaker4_En/P4-5-En.wav,Speaker4,گوینده۴,,,,,,,,,0,0,0,73,0,55,55,64,175.22612333300094,,,,,,,,,,,,,,,,,,,,,,,,,,,,,,,,,,,,,,,,,,,,,175.2023637500006,175.22612333300094,175.22612333300094,175.22612333300094,175.22612333300094,175.23516258333308,175.22612333300094,175.22612333300094,175.22672566599977,Incorrect! The correct answer is Speaker4. نادرست! پاسخ صحیح گوینده۴ است,0,112,1,2.0104012500014505,None,175.2271324579997,175.23678141600067,177.22369033299947,177.2456589579997,,,607600,001,2024-07-01_18h49.53.709,5-26,2024.1.4,None,2024-07-01 18h49.59.374366 +0900,
Images/Speaker1.jpg,Images/Speaker2.jpg,Images/Speaker3.jpg,Images/Speaker4.jpg,Audio/Speaker2_En/P2-17-En.wav,Speaker2,گوینده۲,,,,,,,,,0,0,0,73,0,56,56,36,177.2456589579997,,,,,,,,,,,,,,,,,,,,,,,,,,,,,,,,,,,,,,,,,,,,,177.22387708300084,177.2456589579997,177.2456589579997,177.2456589579997,177.2456589579997,177.24012095766764,177.2456589579997,177.2456589579997,177.31688462500097,Incorrect! The correct answer is Speaker2. نادرست! پاسخ صحیح گوینده۲ است,0,114,1,0.07010766599887575,None,177.3209035,177.33402708299946,179.31841974999952,179.34487124999941,,,607600,001,2024-07-01_18h49.53.709,5-26,2024.1.4,None,2024-07-01 18h49.59.374366 +0900,
Images/Speaker1.jpg,Images/Speaker2.jpg,Images/Speaker3.jpg,Images/Speaker4.jpg,Audio/Speaker2_En/P2-15-En.wav,Speaker2,گوینده۲,,,,,,,,,0,0,0,73,0,57,57,34,179.34487124999941,,,,,,,,,,,,,,,,,,,,,,,,,,,,,,,,,,,,,,,,,,,,,179.3193297079997,179.34487124999941,179.34487124999941,179.34487124999941,179.34487124999941,179.35085487433258,179.34487124999941,179.34487124999941,179.34543070799918,Incorrect! The correct answer is Speaker2. نادرست! پاسخ صحیح گوینده۲ است,0,116,1,2.0285148749990185,None,179.34589637499994,179.3553543750004,181.34457595800086,181.3676888329992,,,607600,001,2024-07-01_18h49.53.709,5-26,2024.1.4,None,2024-07-01 18h49.59.374366 +0900,
Images/Speaker1.jpg,Images/Speaker2.jpg,Images/Speaker3.jpg,Images/Speaker4.jpg,Audio/Speaker3_En/P3-9-En.wav,Speaker3,گوینده۳,,,,,,,,,0,0,0,73,0,58,58,48,181.3676888329992,,,,,,,,,,,,,,,,,,,,,,,,,,,,,,,,,,,,,,,,,,,,,181.34475079100048,181.3676888329992,181.3676888329992,181.3676888329992,181.3676888329992,181.3776559993335,181.3676888329992,181.3676888329992,181.36829462499918,Incorrect! The correct answer is Speaker3. نادرست! پاسخ صحیح گوینده۳ است,0,118,1,1.9278716249991703,None,181.36871391599925,181.37863608299995,183.37102529100048,,,,607600,001,2024-07-01_18h49.53.709,5-26,2024.1.4,None,2024-07-01 18h49.59.374366 +0900,
Images/Speaker1.jpg,Images/Speaker2.jpg,Images/Speaker3.jpg,Images/Speaker4.jpg,Audio/Speaker1_En/P1-12-En.wav,Speaker1,گوینده ۱,,,,,,,,,0,0,0,73,0,59,59,11,183.39653270800045,,,,,,,,,,,,,,,,,,,,,,,,,,,,,,,,,,,,,,,,,,,,,183.37163887499992,183.39653270800045,183.39653270800045,183.39653270800045,183.39653270800045,183.40416266633343,183.39653270800045,183.39653270800045,183.39720112500072,Correct! صحیح است,0,120,1,1.9162136250015465,None,183.397478375,183.4059479160005,185.39473891600028,185.41718675000084,,,607600,001,2024-07-01_18h49.53.709,5-26,2024.1.4,None,2024-07-01 18h49.59.374366 +0900,
Images/Speaker1.jpg,Images/Speaker2.jpg,Images/Speaker3.jpg,Images/Speaker4.jpg,Audio/Speaker4_En/P4-1-En.wav,Speaker4,گوینده۴,,,,,,,,,0,0,0,73,0,60,60,60,185.41718675000084,,,,,,,,,,,,,,,,,,,,,,,,,,,,,,,,,,,,,,,,,,,,,185.39492425000026,185.41718675000084,185.41718675000084,185.41718675000084,185.41718675000084,185.42781620833426,185.41718675000084,185.41718675000084,185.86233991600056,Incorrect! The correct answer is Speaker4. نادرست! پاسخ صحیح گوینده۴ است,0,122,1,0.4360640830000193,None,185.86629387500034,185.87695858299958,187.8715415000006,,,,607600,001,2024-07-01_18h49.53.709,5-26,2024.1.4,None,2024-07-01 18h49.59.374366 +0900,
Images/Speaker1.jpg,Images/Speaker2.jpg,Images/Speaker3.jpg,Images/Speaker4.jpg,Audio/Speaker2_En/P2-12-En.wav,Speaker2,گوینده۲,,,,,,,,,0,0,0,73,0,61,61,31,187.89711704100046,,,,,,,,,,,,,,,,,,,,,,,,,,,,,,,,,,,,,,,,,,,,,187.87218316600047,187.89711704100046,187.89711704100046,187.89711704100046,187.89711704100046,187.90470979133403,187.89711704100046,187.89711704100046,187.97030045800057,Incorrect! The correct answer is Speaker2. نادرست! پاسخ صحیح گوینده۲ است,0,124,1,0.06934995799929311,None,187.9741051660003,187.98742883299929,189.97209154099983,189.99790562499948,,,607600,001,2024-07-01_18h49.53.709,5-26,2024.1.4,None,2024-07-01 18h49.59.374366 +0900,
Images/Speaker1.jpg,Images/Speaker2.jpg,Images/Speaker3.jpg,Images/Speaker4.jpg,Audio/Speaker2_En/P2-3-En.wav,Speaker2,گوینده۲,,,,,,,,,0,0,0,73,0,62,62,22,189.99790562499948,,,,,,,,,,,,,,,,,,,,,,,,,,,,,,,,,,,,,,,,,,,,,189.9729648749999,189.99790562499948,189.99790562499948,189.99790562499948,189.99790562499948,190.00460895833254,189.99790562499948,189.99790562499948,190.01905658299984,Incorrect! The correct answer is Speaker2. نادرست! پاسخ صحیح گوینده۲ است,0,126,1,0.02010595799947623,None,190.02286891599942,190.03540916599923,192.01957008300087,192.04272229100025,,,607600,001,2024-07-01_18h49.53.709,5-26,2024.1.4,None,2024-07-01 18h49.59.374366 +0900,
Images/Speaker1.jpg,Images/Speaker2.jpg,Images/Speaker3.jpg,Images/Speaker4.jpg,Audio/Speaker3_En/P3-1-En.wav,Speaker3,گوینده۳,,,,,,,,,0,0,0,73,0,63,63,40,192.04272229100025,,,,,,,,,,,,,,,,,,,,,,,,,,,,,,,,,,,,,,,,,,,,,192.0197339160004,192.04272229100025,192.04272229100025,192.04272229100025,192.04272229100025,192.052669041334,192.04272229100025,192.04272229100025,192.3296658750005,Incorrect! The correct answer is Speaker3. نادرست! پاسخ صحیح گوینده۳ است,0,128,1,0.27868225000020175,None,192.33350620800047,192.34350795799946,194.32693766600096,194.35356616600075,,,607600,001,2024-07-01_18h49.53.709,5-26,2024.1.4,None,2024-07-01 18h49.59.374366 +0900,
Images/Speaker1.jpg,Images/Speaker2.jpg,Images/Speaker3.jpg,Images/Speaker4.jpg,Audio/Speaker1_En/P1-15-En.wav,Speaker1,گوینده ۱,,,,,,,,,0,0,0,73,0,64,64,14,194.35356616600075,,,,,,,,,,,,,,,,,,,,,,,,,,,,,,,,,,,,,,,,,,,,,194.32742570799928,194.35356616600075,194.35356616600075,194.35356616600075,194.35356616600075,194.35961733333403,194.35356616600075,194.35356616600075,194.7434477909992,Correct! صحیح است,0,130,1,0.3825812909999513,None,194.74832529100058,194.76013654100097,196.7443995829999,196.76696520800033,,,607600,001,2024-07-01_18h49.53.709,5-26,2024.1.4,None,2024-07-01 18h49.59.374366 +0900,
Images/Speaker1.jpg,Images/Speaker2.jpg,Images/Speaker3.jpg,Images/Speaker4.jpg,Audio/Speaker3_En/P3-18-En.wav,Speaker3,گوینده۳,,,,,,,,,0,0,0,73,0,65,65,57,196.76696520800033,,,,,,,,,,,,,,,,,,,,,,,,,,,,,,,,,,,,,,,,,,,,,196.74458408300052,196.76696520800033,196.76696520800033,196.76696520800033,196.76696520800033,196.76087237466734,196.76696520800033,196.76696520800033,196.9761698330003,Incorrect! The correct answer is Speaker3. نادرست! پاسخ صحیح گوینده۳ است,0,132,1,0.1990923749999638,None,196.98004862500056,196.98994837499959,198.97756570800084,199.00200454100013,,,607600,001,2024-07-01_18h49.53.709,5-26,2024.1.4,None,2024-07-01 18h49.59.374366 +0900,
Images/Speaker1.jpg,Images/Speaker2.jpg,Images/Speaker3.jpg,Images/Speaker4.jpg,Audio/Speaker4_En/P4-19-En.wav,Speaker4,گوینده۴,,,,,,,,,0,0,0,73,0,66,66,78,199.00200454100013,,,,,,,,,,,,,,,,,,,,,,,,,,,,,,,,,,,,,,,,,,,,,198.9777320409994,199.00200454100013,199.00200454100013,199.00200454100013,199.00200454100013,199.01069637433335,199.00200454100013,199.00200454100013,199.20981404099985,Incorrect! The correct answer is Speaker4. نادرست! پاسخ صحیح گوینده۴ است,0,134,1,0.20037087499986228,None,199.2135076659997,199.2261484160008,201.21906495800067,,,,607600,001,2024-07-01_18h49.53.709,5-26,2024.1.4,None,2024-07-01 18h49.59.374366 +0900,
Images/Speaker1.jpg,Images/Speaker2.jpg,Images/Speaker3.jpg,Images/Speaker4.jpg,Audio/Speaker1_En/P1-3-En.wav,Speaker1,گوینده ۱,,,,,,,,,0,0,0,73,0,67,67,2,201.24163025000053,,,,,,,,,,,,,,,,,,,,,,,,,,,,,,,,,,,,,,,,,,,,,201.21926204100055,201.24163025000053,201.24163025000053,201.24163025000053,201.24163025000053,201.23569812466692,201.24163025000053,201.24163025000053,201.24225112500062,Correct! صحیح است,0,136,1,2.197491417000492,None,201.2462966660005,201.2541215000001,203.24552650000078,203.27006279099987,,,607600,001,2024-07-01_18h49.53.709,5-26,2024.1.4,None,2024-07-01 18h49.59.374366 +0900,
Images/Speaker1.jpg,Images/Speaker2.jpg,Images/Speaker3.jpg,Images/Speaker4.jpg,Audio/Speaker3_En/P3-2-En.wav,Speaker3,گوینده۳,,,,,,,,,0,0,0,73,0,68,68,41,203.27006279099987,,,,,,,,,,,,,,,,,,,,,,,,,,,,,,,,,,,,,,,,,,,,,203.24570270799995,203.27006279099987,203.27006279099987,203.27006279099987,203.27006279099987,203.27856770833256,203.27006279099987,203.27006279099987,203.2706678329996,Incorrect! The correct answer is Speaker3. نادرست! پاسخ صحیح گوینده۳ است,0,138,1,1.8970612079992861,None,203.27098795799975,203.2822496659992,205.27101237500028,205.29643904099976,,,607600,001,2024-07-01_18h49.53.709,5-26,2024.1.4,None,2024-07-01 18h49.59.374366 +0900,
Images/Speaker1.jpg,Images/Speaker2.jpg,Images/Speaker3.jpg,Images/Speaker4.jpg,Audio/Speaker2_En/P2-1-En.wav,Speaker2,گوینده۲,,,,,,,,,0,0,0,73,0,69,69,20,205.29643904099976,,,,,,,,,,,,,,,,,,,,,,,,,,,,,,,,,,,,,,,,,,,,,205.27159483300056,205.29643904099976,205.29643904099976,205.29643904099976,205.29643904099976,205.30343462433353,205.29643904099976,205.29643904099976,205.57720891600002,Incorrect! The correct answer is Speaker2. نادرست! پاسخ صحیح گوینده۲ است,0,140,1,0.2702504169992608,None,205.58108129100037,205.593610291,207.5807472079996,207.60863487499955,,,607600,001,2024-07-01_18h49.53.709,5-26,2024.1.4,None,2024-07-01 18h49.59.374366 +0900,
Images/Speaker1.jpg,Images/Speaker2.jpg,Images/Speaker3.jpg,Images/Speaker4.jpg,Audio/Speaker3_En/P3-19-En.wav,Speaker3,گوینده۳,,,,,,,,,0,0,0,73,0,70,70,58,207.60863487499955,,,,,,,,,,,,,,,,,,,,,,,,,,,,,,,,,,,,,,,,,,,,,207.5816319580008,207.60863487499955,207.60863487499955,207.60863487499955,207.60863487499955,207.61307116633412,207.60863487499955,207.60863487499955,207.92045812499964,Incorrect! The correct answer is Speaker3. نادرست! پاسخ صحیح گوینده۳ است,0,142,1,0.30584087500028545,None,207.92554579100033,207.94027204099984,209.93013962499936,,,,607600,001,2024-07-01_18h49.53.709,5-26,2024.1.4,None,2024-07-01 18h49.59.374366 +0900,
Images/Speaker1.jpg,Images/Speaker2.jpg,Images/Speaker3.jpg,Images/Speaker4.jpg,Audio/Speaker2_En/P2-2-En.wav,Speaker2,گوینده۲,,,,,,,,,0,0,0,73,0,71,71,21,209.95682300000044,,,,,,,,,,,,,,,,,,,,,,,,,,,,,,,,,,,,,,,,,,,,,209.93032008299997,209.95682300000044,209.95682300000044,209.95682300000044,209.95682300000044,209.96342558333396,209.95682300000044,209.95682300000044,209.95747758300058,Incorrect! The correct answer is Speaker2. نادرست! پاسخ صحیح گوینده۲ است,0,144,1,2.328892874998928,None,209.95794274999935,209.9681582079993,211.95668504099922,211.9788160829994,,,607600,001,2024-07-01_18h49.53.709,5-26,2024.1.4,None,2024-07-01 18h49.59.374366 +0900,
Images/Speaker1.jpg,Images/Speaker2.jpg,Images/Speaker3.jpg,Images/Speaker4.jpg,Audio/Speaker1_En/P1-17-En.wav,Speaker1,گوینده ۱,,,,,,,,,0,0,0,73,0,72,72,16,211.9788160829994,,,,,,,,,,,,,,,,,,,,,,,,,,,,,,,,,,,,,,,,,,,,,211.95688129100017,211.9788160829994,211.9788160829994,211.9788160829994,211.9788160829994,211.97312416666708,211.9788160829994,211.9788160829994,212.21590158300023,Correct! صحیح است,0,146,1,0.23611916600020777,None,212.21982795800068,212.23071875000096,214.2189812079996,214.24326724999992,,,607600,001,2024-07-01_18h49.53.709,5-26,2024.1.4,None,2024-07-01 18h49.59.374366 +0900,
Images/Speaker1.jpg,Images/Speaker2.jpg,Images/Speaker3.jpg,Images/Speaker4.jpg,Audio/Speaker4_En/P4-13-En.wav,Speaker4,گوینده۴,,,,,,,,,0,0,0,73,0,73,73,72,214.24326724999992,,,,,,,,,,,,,,,,,,,,,,,,,,,,,,,,,,,,,,,,,,,,,214.22000437499992,214.24326724999992,214.24326724999992,214.24326724999992,214.24326724999992,214.25132033333335,214.24326724999992,214.24326724999992,214.31734041600066,Incorrect! The correct answer is Speaker4. نادرست! پاسخ صحیح گوینده۴ است,0,148,1,None,None,214.32141458300066,214.33179958300025,216.3266616660003,,,,607600,001,2024-07-01_18h49.53.709,5-26,2024.1.4,None,2024-07-01 18h49.59.374366 +0900,
Images/Speaker1.jpg,Images/Speaker2.jpg,Images/Speaker3.jpg,Images/Speaker4.jpg,Audio/Speaker2_En/P2-13-En.wav,Speaker2,گوینده۲,,,,,,,,,0,0,0,73,0,74,74,32,216.35244525000053,,,,,,,,,,,,,,,,,,,,,,,,,,,,,,,,,,,,,,,,,,,,,216.32731400000011,216.35244525000053,216.35244525000053,216.35244525000053,216.35244525000053,216.35983945833374,216.35244525000053,216.35244525000053,216.36882350000087,Incorrect! The correct answer is Speaker2. نادرست! پاسخ صحیح گوینده۲ است,0,150,1,0.01192070899924147,None,216.37295637500029,216.38548475000061,218.3728288330003,218.39634741600094,,,607600,001,2024-07-01_18h49.53.709,5-26,2024.1.4,None,2024-07-01 18h49.59.374366 +0900,
Images/Speaker1.jpg,Images/Speaker2.jpg,Images/Speaker3.jpg,Images/Speaker4.jpg,Audio/Speaker4_En/P4-2-En.wav,Speaker4,گوینده۴,,,,,,,,,0,0,0,73,0,75,75,61,218.39634741600094,,,,,,,,,,,,,,,,,,,,,,,,,,,,,,,,,,,,,,,,,,,,,218.37298937500054,218.39634741600094,218.39634741600094,218.39634741600094,218.39634741600094,218.40593237433364,218.39634741600094,218.39634741600094,218.39695862500048,Incorrect! The correct answer is Speaker4. نادرست! پاسخ صحیح گوینده۴ است,0,152,1,1.98985945899949,None,218.39731320800092,218.40686495800037,220.39140279099956,220.41299000000072,,,607600,001,2024-07-01_18h49.53.709,5-26,2024.1.4,None,2024-07-01 18h49.59.374366 +0900,
Images/Speaker1.jpg,Images/Speaker2.jpg,Images/Speaker3.jpg,Images/Speaker4.jpg,Audio/Speaker3_En/P3-20-En.wav,Speaker3,گوینده۳,,,,,,,,,0,0,0,73,0,76,76,59,220.41299000000072,,,,,,,,,,,,,,,,,,,,,,,,,,,,,,,,,,,,,,,,,,,,,220.39157775000058,220.41299000000072,220.41299000000072,220.41299000000072,220.41299000000072,220.4077792076662,220.41299000000072,220.41299000000072,220.49047500000052,Incorrect! The correct answer is Speaker3. نادرست! پاسخ صحیح گوینده۳ است,0,154,1,0.06890233400008583,None,220.49423812500027,220.5071375410007,222.49873099999968,,,,607600,001,2024-07-01_18h49.53.709,5-26,2024.1.4,None,2024-07-01 18h49.59.374366 +0900,
Images/Speaker1.jpg,Images/Speaker2.jpg,Images/Speaker3.jpg,Images/Speaker4.jpg,Audio/Speaker4_En/P4-10-En.wav,Speaker4,گوینده۴,,,,,,,,,0,0,0,73,0,77,77,69,222.52146520799943,,,,,,,,,,,,,,,,,,,,,,,,,,,,,,,,,,,,,,,,,,,,,222.4989110410006,222.52146520799943,222.52146520799943,222.52146520799943,222.52146520799943,222.51535545766663,222.52146520799943,222.52146520799943,222.85828379099985,Incorrect! The correct answer is Speaker4. نادرست! پاسخ صحیح گوینده۴ است,0,156,1,0.3273415829989972,None,222.86241700000028,222.87258683300024,224.85910920800052,224.8814905830004,,,607600,001,2024-07-01_18h49.53.709,5-26,2024.1.4,None,2024-07-01 18h49.59.374366 +0900,
Images/Speaker1.jpg,Images/Speaker2.jpg,Images/Speaker3.jpg,Images/Speaker4.jpg,Audio/Speaker1_En/P1-16-En.wav,Speaker1,گوینده ۱,,,,,,,,,0,0,0,73,0,78,78,15,224.8814905830004,,,,,,,,,,,,,,,,,,,,,,,,,,,,,,,,,,,,,,,,,,,,,224.85929020799995,224.8814905830004,224.8814905830004,224.8814905830004,224.8814905830004,224.87554145766651,224.8814905830004,224.8814905830004,225.83380879099968,Correct! صحیح است,0,158,1,0.9491737079988525,None,225.8380655410001,225.84942662499998,227.8385594579995,,,,607600,001,2024-07-01_18h49.53.709,5-26,2024.1.4,None,2024-07-01 18h49.59.374366 +0900,
Images/Speaker1.jpg,Images/Speaker2.jpg,Images/Speaker3.jpg,Images/Speaker4.jpg,Audio/Speaker4_En/P4-15-En.wav,Speaker4,گوینده۴,,,,,,,,,0,0,0,73,0,79,79,74,227.86289858300006,,,,,,,,,,,,,,,,,,,,,,,,,,,,,,,,,,,,,,,,,,,,,227.83872945800067,227.86289858300006,227.86289858300006,227.86289858300006,227.86289858300006,227.87185841633305,227.86289858300006,227.86289858300006,229.8428214579999,Correct! صحیح است,0,160,4,1.9762156669985416,None,229.84683270800087,229.85836129100062,231.84224862500014,,,,607600,001,2024-07-01_18h49.53.709,5-26,2024.1.4,None,2024-07-01 18h49.59.374366 +0900,
,,,,,,,,,,,,,,,,,,,,,,,,,,,,,,,,,,,,,,,,,,,,,,,,,,,,,,,,,,,,,,,,,,,,,,,,,,,,,,,,,,,,,,,231.84258416600096,231.84308600000077,,,,,,,,
