SpeakerImage1,SpeakerImage2,SpeakerImage3,SpeakerImage4,TrainingSound,EnglishCorrectAnswer,PersianCorrectAnswer,SpeakerPhoto1,SpeakerPhoto2,SpeakerPhoto3,SpeakerPhoto4,TestingSound,EnglishCorrectResponse,PersianCorrectResponse,TrainingLoopGroup1.thisRepN,TrainingLoopGroup1.thisTrialN,TrainingLoopGroup1.thisN,TrainingLoopGroup1.thisIndex,TrainingLoopGroup2.thisRepN,TrainingLoopGroup2.thisTrialN,TrainingLoopGroup2.thisN,TrainingLoopGroup2.thisIndex,TrainingLoopGroup3.thisRepN,TrainingLoopGroup3.thisTrialN,TrainingLoopGroup3.thisN,TrainingLoopGroup3.thisIndex,testPhase1Loop.thisRepN,testPhase1Loop.thisTrialN,testPhase1Loop.thisN,testPhase1Loop.thisIndex,testPhase2Loop.thisRepN,testPhase2Loop.thisTrialN,testPhase2Loop.thisN,testPhase2Loop.thisIndex,testPhase3Loop.thisRepN,testPhase3Loop.thisTrialN,testPhase3Loop.thisN,testPhase3Loop.thisIndex,thisRow.t,notes,trial.started,trial.stopped,GroupSelection.started,GroupInstructions.started,key_resp.started,GroupSelection.stopped,key_resp.keys,key_resp.rt,key_resp.duration,Introduction.started,text_2.started,image.started,sound_7.started,text_4.started,text_2.stopped,sound_8.started,image.stopped,text_4.stopped,image_7.started,sound_9.started,text_5.started,sound_10.started,image_7.stopped,text_5.stopped,image_8.started,sound_11.started,text_6.started,sound_12.started,image_8.stopped,text_6.stopped,image_9.started,sound_13.started,text_7.started,sound_14.started,image_9.stopped,text_7.stopped,Introduction.stopped,Instructions.started,InstructionText.started,InstructionText.stopped,Instructions.stopped,InitializeExperiment.started,InitializeExperiment.stopped,TrainingGroup3.started,SpeakerPicture3.started,image_15.started,image_16.started,image_17.started,Sound3.started,Instruction3.started,Response3.started,TrainingGroup3.stopped,feedbackText,Response3.keys,Response3.rt,Response3.duration,correct_responses_group3,total_trials_group3,FeedbackRoutine3.started,FeedbackText3.started,FeedbackRoutine3.stopped,FeedbackText3.stopped,CheckAccuracy.started,accuracy_group1,accuracy_group2,accuracy_group3,proceed_to_test,CheckAccuracy.stopped,WelcomeTest.started,text_12.started,text_12.stopped,WelcomeTest.stopped,TestPhase1.started,TestPhase1.stopped,test1_response_keyboard.keys,test1_response,test1_image_file1,test1_image_file2,test1_image_file3,test1_image_file4,test1_sound_file,english_correct_answer,persian_correct_answer,TestPhase2.started,TestPhase2.stopped,test2_response_keyboard.keys,test2_response,test2_image_file1,test2_image_file2,test2_image_file3,test2_image_file4,test2_sound_file,TestPhase3.started,test3_image1.started,test3_image2.started,test3_image3.started,test3_image4.started,test3_sound.started,text_10.started,test3_response_keyboard.started,TestPhase3.stopped,test3_response_keyboard.keys,test3_response_keyboard.rt,test3_response_keyboard.duration,test3_response,test3_image_file1,test3_image_file2,test3_image_file3,test3_image_file4,test3_sound_file,participant,session,date,expName,psychopyVersion,frameRate,expStart,
,,,,,,,,,,,,,,,,,,,,,,,,,,,,,,,,,,,,,,,,0.009973124997486593,0.010360749998653773,,,,,,,,,,,,,,,,,,,,,,,,,,,,,,,,,,,,,,,,,,,,,,,,,,,,,,,,,,,,,,,,,,,,,,,,,,,,,,,,,,,,,,,,,,,,,,,,,,,,,,,,,,,,,634374,001,2024-06-30_21h15.14.464,5-24,2024.1.4,None,2024-06-30 21h15.19.363816 +0900,
,,,,,,,,,,,,,,,,,,,,,,,,,,,,,,,,,,,,,,,,,,0.010380540999904042,0.01472466599807376,0.01472466599807376,1.4641187499983062,3,1.4158604589974857,None,,,,,,,,,,,,,,,,,,,,,,,,,,,,,,,,,,,,,,,,,,,,,,,,,,,,,,,,,,,,,,,,,,,,,,,,,,,,,,,,,,,,,,,,,,,,,,,,,,,,,,634374,001,2024-06-30_21h15.14.464,5-24,2024.1.4,None,2024-06-30 21h15.19.363816 +0900,
,,,,,,,,,,,,,,,,,,,,,,,,,,,,,,,,,,,,,,,,,,,,,,,,,1.4641548749968933,1.5153809999974328,6.46328199999698,6.470820999664526,6.46328199999698,6.5046298749985,11.467217166664584,16.456025457999203,16.456025457999203,16.456025457999203,16.46554916666379,16.456025457999203,21.467383416664475,26.451062707998062,26.451062707998062,26.455762915997184,26.467729374664728,26.455762915997184,31.476452166665936,36.448169499999494,36.448169499999494,36.456043499998486,36.46483616666616,36.456043499998486,41.464460916664635,46.448643665997224,46.448643665997224,46.44540499999857,,,,,,,,,,,,,,,,,,,,,,,,,,,,,,,,,,,,,,,,,,,,,,,,,,,,,,,,,,,,,,,,,,,,,,,,,,634374,001,2024-06-30_21h15.14.464,5-24,2024.1.4,None,2024-06-30 21h15.19.363816 +0900,
,,,,,,,,,,,,,,,,,,,,,,,,,,,,,,,,,,,,,,,,,,,,,,,,,,,,,,,,,,,,,,,,,,,,,,,,,,,,,46.445423916000436,46.46305174999725,47.528211249999,47.450120415996935,,,,,,,,,,,,,,,,,,,,,,,,,,,,,,,,,,,,,,,,,,,,,,,,,,,,,,,,,,,,,,,,,,,,,,634374,001,2024-06-30_21h15.14.464,5-24,2024.1.4,None,2024-06-30 21h15.19.363816 +0900,
,,,,,,,,,,,,,,,,,,,,,,,,,,,,,,,,,,,,,,,,,,,,,,,,,,,,,,,,,,,,,,,,,,,,,,,,,,,,,,,,,47.45013695799935,47.45028599999932,,,,,,,,,,,,,,,,,,,,,,,,,,,,,,,,,,,,,,,,,,,,,,,,,,,,,,,,,,,,,,,,,,,,634374,001,2024-06-30_21h15.14.464,5-24,2024.1.4,None,2024-06-30 21h15.19.363816 +0900,
Images/Speaker1.jpg,Images/Speaker2.jpg,Images/Speaker3.jpg,Images/Speaker4.jpg,Audio/Speaker2_En/P2-12-En.wav,Speaker2,گوینده۲,,,,,,,,,,,,,,,,0,0,0,31,,,,,,,,,,,,,47.528211249999,,,,,,,,,,,,,,,,,,,,,,,,,,,,,,,,,,,,,,,,,,,,,47.503458999999566,47.528211249999,47.528211249999,47.528211249999,47.528211249999,47.53322808333299,47.528211249999,47.528211249999,70.40767024999877,Incorrect! The correct answer is Speaker2. نادرست! پاسخ صحیح گوینده۲ است,1,22.87452808300077,None,0,1,70.40813620799963,70.42173658299726,72.41712045799795,,,,,,,,,,,,,,,,,,,,,,,,,,,,,,,,,,,,,,,,,,,,,,,,,,634374,001,2024-06-30_21h15.14.464,5-24,2024.1.4,None,2024-06-30 21h15.19.363816 +0900,
Images/Speaker1.jpg,Images/Speaker2.jpg,Images/Speaker3.jpg,Images/Speaker4.jpg,Audio/Speaker3_En/P3-10-En.wav,Speaker3,گوینده۳,,,,,,,,,,,,,,,,0,1,1,49,,,,,,,,,,,,,72.43876291599736,,,,,,,,,,,,,,,,,,,,,,,,,,,,,,,,,,,,,,,,,,,,,72.41729604099964,72.43876291599736,72.43876291599736,72.43876291599736,72.43876291599736,72.43374062466707,72.43876291599736,72.43876291599736,74.42719458299689,Incorrect! The correct answer is Speaker3. نادرست! پاسخ صحیح گوینده۳ است,1,1.9858759579983598,None,0,2,74.43099950000033,74.4491871249993,76.44162341599804,,,,,,,,,,,,,,,,,,,,,,,,,,,,,,,,,,,,,,,,,,,,,,,,,,634374,001,2024-06-30_21h15.14.464,5-24,2024.1.4,None,2024-06-30 21h15.19.363816 +0900,
Images/Speaker1.jpg,Images/Speaker2.jpg,Images/Speaker3.jpg,Images/Speaker4.jpg,Audio/Speaker1_En/P1-4-En.wav,Speaker1,گوینده ۱,,,,,,,,,,,,,,,,0,2,2,3,,,,,,,,,,,,,76.46491374999823,,,,,,,,,,,,,,,,,,,,,,,,,,,,,,,,,,,,,,,,,,,,,76.44180562499969,76.46491374999823,76.46491374999823,76.46491374999823,76.46491374999823,76.45825029166396,76.46491374999823,76.46491374999823,76.80596187499759,Correct! صحیح است,1,0.33242695800072397,None,0,3,76.81097087499802,76.82419029099765,78.80726566599697,78.8278181659989,,,,,,,,,,,,,,,,,,,,,,,,,,,,,,,,,,,,,,,,,,,,,,,,,634374,001,2024-06-30_21h15.14.464,5-24,2024.1.4,None,2024-06-30 21h15.19.363816 +0900,
Images/Speaker1.jpg,Images/Speaker2.jpg,Images/Speaker3.jpg,Images/Speaker4.jpg,Audio/Speaker4_En/P4-12-En.wav,Speaker4,گوینده۴,,,,,,,,,,,,,,,,0,3,3,71,,,,,,,,,,,,,78.8278181659989,,,,,,,,,,,,,,,,,,,,,,,,,,,,,,,,,,,,,,,,,,,,,78.80742466599986,78.8278181659989,78.8278181659989,78.8278181659989,78.8278181659989,78.82370958266644,78.8278181659989,78.8278181659989,78.96063112499905,Incorrect! The correct answer is Speaker4. نادرست! پاسخ صحیح گوینده۴ است,1,0.1271968749970256,None,0,4,78.9644293329984,78.97716379099802,80.97223495799699,,,,,,,,,,,,,,,,,,,,,,,,,,,,,,,,,,,,,,,,,,,,,,,,,,634374,001,2024-06-30_21h15.14.464,5-24,2024.1.4,None,2024-06-30 21h15.19.363816 +0900,
Images/Speaker1.jpg,Images/Speaker2.jpg,Images/Speaker3.jpg,Images/Speaker4.jpg,Audio/Speaker2_En/P2-3-En.wav,Speaker2,گوینده۲,,,,,,,,,,,,,,,,0,4,4,22,,,,,,,,,,,,,80.99460704099693,,,,,,,,,,,,,,,,,,,,,,,,,,,,,,,,,,,,,,,,,,,,,80.97241158299948,80.99460704099693,80.99460704099693,80.99460704099693,80.99460704099693,80.98886983266517,80.99460704099693,80.99460704099693,81.40778570799739,Incorrect! The correct answer is Speaker2. نادرست! پاسخ صحیح گوینده۲ است,1,0.4102935409973725,None,0,5,81.41188341599991,81.42432004099828,83.40909304099841,83.43177483299951,,,,,,,,,,,,,,,,,,,,,,,,,,,,,,,,,,,,,,,,,,,,,,,,,634374,001,2024-06-30_21h15.14.464,5-24,2024.1.4,None,2024-06-30 21h15.19.363816 +0900,
Images/Speaker1.jpg,Images/Speaker2.jpg,Images/Speaker3.jpg,Images/Speaker4.jpg,Audio/Speaker4_En/P4-18-En.wav,Speaker4,گوینده۴,,,,,,,,,,,,,,,,0,5,5,77,,,,,,,,,,,,,83.43177483299951,,,,,,,,,,,,,,,,,,,,,,,,,,,,,,,,,,,,,,,,,,,,,83.40935645799982,83.43177483299951,83.43177483299951,83.43177483299951,83.43177483299951,83.42555099966582,83.43177483299951,83.43177483299951,83.50241741599893,Incorrect! The correct answer is Speaker4. نادرست! پاسخ صحیح گوینده۴ است,1,0.06911412499903236,None,0,6,83.50661995799965,83.51954633299829,85.51447587499933,,,,,,,,,,,,,,,,,,,,,,,,,,,,,,,,,,,,,,,,,,,,,,,,,,634374,001,2024-06-30_21h15.14.464,5-24,2024.1.4,None,2024-06-30 21h15.19.363816 +0900,
Images/Speaker1.jpg,Images/Speaker2.jpg,Images/Speaker3.jpg,Images/Speaker4.jpg,Audio/Speaker3_En/P3-9-En.wav,Speaker3,گوینده۳,,,,,,,,,,,,,,,,0,6,6,48,,,,,,,,,,,,,85.53899037500014,,,,,,,,,,,,,,,,,,,,,,,,,,,,,,,,,,,,,,,,,,,,,85.51514070799749,85.53899037500014,85.53899037500014,85.53899037500014,85.53899037500014,85.5476398333308,85.53899037500014,85.53899037500014,91.36864537499787,Incorrect! The correct answer is Speaker3. نادرست! پاسخ صحیح گوینده۳ است,1,5.827879332999146,None,0,7,91.36884999999893,91.38163183299912,93.36621891599862,93.38662579099764,,,,,,,,,,,,,,,,,,,,,,,,,,,,,,,,,,,,,,,,,,,,,,,,,634374,001,2024-06-30_21h15.14.464,5-24,2024.1.4,None,2024-06-30 21h15.19.363816 +0900,
Images/Speaker1.jpg,Images/Speaker2.jpg,Images/Speaker3.jpg,Images/Speaker4.jpg,Audio/Speaker1_En/P1-16-En.wav,Speaker1,گوینده ۱,,,,,,,,,,,,,,,,0,7,7,15,,,,,,,,,,,,,93.38662579099764,,,,,,,,,,,,,,,,,,,,,,,,,,,,,,,,,,,,,,,,,,,,,93.36638383299942,93.38662579099764,93.38662579099764,93.38662579099764,93.38662579099764,93.3826914996646,93.38662579099764,93.38662579099764,93.63516541599893,Correct! صحیح است,1,0.24330137499782722,None,0,8,93.63920166599928,93.65030699999988,95.63524304099701,95.65709879099813,,,,,,,,,,,,,,,,,,,,,,,,,,,,,,,,,,,,,,,,,,,,,,,,,634374,001,2024-06-30_21h15.14.464,5-24,2024.1.4,None,2024-06-30 21h15.19.363816 +0900,
Images/Speaker1.jpg,Images/Speaker2.jpg,Images/Speaker3.jpg,Images/Speaker4.jpg,Audio/Speaker4_En/P4-19-En.wav,Speaker4,گوینده۴,,,,,,,,,,,,,,,,0,8,8,78,,,,,,,,,,,,,95.65709879099813,,,,,,,,,,,,,,,,,,,,,,,,,,,,,,,,,,,,,,,,,,,,,95.6354102080004,95.65709879099813,95.65709879099813,95.65709879099813,95.65709879099813,95.65172408266541,95.65709879099813,95.65709879099813,96.16454133299703,Incorrect! The correct answer is Speaker4. نادرست! پاسخ صحیح گوینده۴ است,1,0.5049684589976096,None,0,9,96.16857962499853,96.18170474999715,98.16984391599908,,,,,,,,,,,,,,,,,,,,,,,,,,,,,,,,,,,,,,,,,,,,,,,,,,634374,001,2024-06-30_21h15.14.464,5-24,2024.1.4,None,2024-06-30 21h15.19.363816 +0900,
Images/Speaker1.jpg,Images/Speaker2.jpg,Images/Speaker3.jpg,Images/Speaker4.jpg,Audio/Speaker4_En/P4-10-En.wav,Speaker4,گوینده۴,,,,,,,,,,,,,,,,0,9,9,69,,,,,,,,,,,,,98.19096675000037,,,,,,,,,,,,,,,,,,,,,,,,,,,,,,,,,,,,,,,,,,,,,98.17000054099844,98.19096675000037,98.19096675000037,98.19096675000037,98.19096675000037,98.18646241666671,98.19096675000037,98.19096675000037,98.51341333299933,Incorrect! The correct answer is Speaker4. نادرست! پاسخ صحیح گوینده۴ است,1,0.31921150000198395,None,0,10,98.5176569159994,98.53029808299834,100.51389045799806,100.53546483299942,,,,,,,,,,,,,,,,,,,,,,,,,,,,,,,,,,,,,,,,,,,,,,,,,634374,001,2024-06-30_21h15.14.464,5-24,2024.1.4,None,2024-06-30 21h15.19.363816 +0900,
Images/Speaker1.jpg,Images/Speaker2.jpg,Images/Speaker3.jpg,Images/Speaker4.jpg,Audio/Speaker2_En/P2-16-En.wav,Speaker2,گوینده۲,,,,,,,,,,,,,,,,0,10,10,35,,,,,,,,,,,,,100.53546483299942,,,,,,,,,,,,,,,,,,,,,,,,,,,,,,,,,,,,,,,,,,,,,100.51405745800002,100.53546483299942,100.53546483299942,100.53546483299942,100.53546483299942,100.530361041667,100.53546483299942,100.53546483299942,100.5725469579993,Incorrect! The correct answer is Speaker2. نادرست! پاسخ صحیح گوینده۲ است,1,0.035514667000825284,None,0,11,100.57663133299866,100.59016720799991,102.58593716599717,,,,,,,,,,,,,,,,,,,,,,,,,,,,,,,,,,,,,,,,,,,,,,,,,,634374,001,2024-06-30_21h15.14.464,5-24,2024.1.4,None,2024-06-30 21h15.19.363816 +0900,
Images/Speaker1.jpg,Images/Speaker2.jpg,Images/Speaker3.jpg,Images/Speaker4.jpg,Audio/Speaker4_En/P4-20-En.wav,Speaker4,گوینده۴,,,,,,,,,,,,,,,,0,11,11,79,,,,,,,,,,,,,102.61055124999984,,,,,,,,,,,,,,,,,,,,,,,,,,,,,,,,,,,,,,,,,,,,,102.58669316599844,102.61055124999984,102.61055124999984,102.61055124999984,102.61055124999984,102.61910233333086,102.61055124999984,102.61055124999984,102.93297058299868,Incorrect! The correct answer is Speaker4. نادرست! پاسخ صحیح گوینده۴ است,1,0.31915483299962943,None,0,12,102.93672370799686,102.94961691599747,104.93531133299985,104.95620033299929,,,,,,,,,,,,,,,,,,,,,,,,,,,,,,,,,,,,,,,,,,,,,,,,,634374,001,2024-06-30_21h15.14.464,5-24,2024.1.4,None,2024-06-30 21h15.19.363816 +0900,
Images/Speaker1.jpg,Images/Speaker2.jpg,Images/Speaker3.jpg,Images/Speaker4.jpg,Audio/Speaker2_En/P2-15-En.wav,Speaker2,گوینده۲,,,,,,,,,,,,,,,,0,12,12,34,,,,,,,,,,,,,104.95620033299929,,,,,,,,,,,,,,,,,,,,,,,,,,,,,,,,,,,,,,,,,,,,,104.93545724999785,104.95620033299929,104.95620033299929,104.95620033299929,104.95620033299929,104.95176820766598,104.95620033299929,104.95620033299929,105.55741983299959,Incorrect! The correct answer is Speaker2. نادرست! پاسخ صحیح گوینده۲ است,1,0.5985481249990698,None,0,13,105.56173924999894,105.57490683299693,107.56344745800016,,,,,,,,,,,,,,,,,,,,,,,,,,,,,,,,,,,,,,,,,,,,,,,,,,634374,001,2024-06-30_21h15.14.464,5-24,2024.1.4,None,2024-06-30 21h15.19.363816 +0900,
Images/Speaker1.jpg,Images/Speaker2.jpg,Images/Speaker3.jpg,Images/Speaker4.jpg,Audio/Speaker2_En/P2-4-En.wav,Speaker2,گوینده۲,,,,,,,,,,,,,,,,0,13,13,23,,,,,,,,,,,,,107.5883373329998,,,,,,,,,,,,,,,,,,,,,,,,,,,,,,,,,,,,,,,,,,,,,107.56405687499864,107.5883373329998,107.5883373329998,107.5883373329998,107.5883373329998,107.59662508333034,107.5883373329998,107.5883373329998,107.96477233299811,Incorrect! The correct answer is Speaker2. نادرست! پاسخ صحیح گوینده۲ است,1,0.37234758300110116,None,0,14,107.96896241599825,107.98179745800007,109.96589404099723,109.98880029099746,,,,,,,,,,,,,,,,,,,,,,,,,,,,,,,,,,,,,,,,,,,,,,,,,634374,001,2024-06-30_21h15.14.464,5-24,2024.1.4,None,2024-06-30 21h15.19.363816 +0900,
Images/Speaker1.jpg,Images/Speaker2.jpg,Images/Speaker3.jpg,Images/Speaker4.jpg,Audio/Speaker3_En/P3-6-En.wav,Speaker3,گوینده۳,,,,,,,,,,,,,,,,0,14,14,45,,,,,,,,,,,,,109.98880029099746,,,,,,,,,,,,,,,,,,,,,,,,,,,,,,,,,,,,,,,,,,,,,109.96634937499766,109.98880029099746,109.98880029099746,109.98880029099746,109.98880029099746,109.98228033266447,109.98880029099746,109.98880029099746,110.90400975000011,Incorrect! The correct answer is Speaker3. نادرست! پاسخ صحیح گوینده۳ است,1,0.9075310830012313,None,0,15,110.90834824999911,110.92136525000024,112.90767099999721,112.92905883300045,,,,,,,,,,,,,,,,,,,,,,,,,,,,,,,,,,,,,,,,,,,,,,,,,634374,001,2024-06-30_21h15.14.464,5-24,2024.1.4,None,2024-06-30 21h15.19.363816 +0900,
Images/Speaker1.jpg,Images/Speaker2.jpg,Images/Speaker3.jpg,Images/Speaker4.jpg,Audio/Speaker1_En/P1-19-En.wav,Speaker1,گوینده ۱,,,,,,,,,,,,,,,,0,15,15,18,,,,,,,,,,,,,112.92905883300045,,,,,,,,,,,,,,,,,,,,,,,,,,,,,,,,,,,,,,,,,,,,,112.90786254100021,112.92905883300045,112.92905883300045,112.92905883300045,112.92905883300045,112.92414404166654,112.92905883300045,112.92905883300045,125.01495841599899,Correct! صحیح است,1,12.083379959000013,None,0,16,125.0152355829996,125.0268197080004,127.01814637499774,,,,,,,,,,,,,,,,,,,,,,,,,,,,,,,,,,,,,,,,,,,,,,,,,,634374,001,2024-06-30_21h15.14.464,5-24,2024.1.4,None,2024-06-30 21h15.19.363816 +0900,
Images/Speaker1.jpg,Images/Speaker2.jpg,Images/Speaker3.jpg,Images/Speaker4.jpg,Audio/Speaker1_En/P1-3-En.wav,Speaker1,گوینده ۱,,,,,,,,,,,,,,,,0,16,16,2,,,,,,,,,,,,,127.04139770799884,,,,,,,,,,,,,,,,,,,,,,,,,,,,,,,,,,,,,,,,,,,,,127.01865608299704,127.04139770799884,127.04139770799884,127.04139770799884,127.04139770799884,127.05130529133069,127.04139770799884,127.04139770799884,127.2010484579987,Correct! صحیح است,1,0.14948933299820055,None,0,17,127.20505029099877,127.21387504099766,129.21014474999902,,,,,,,,,,,,,,,,,,,,,,,,,,,,,,,,,,,,,,,,,,,,,,,,,,634374,001,2024-06-30_21h15.14.464,5-24,2024.1.4,None,2024-06-30 21h15.19.363816 +0900,
Images/Speaker1.jpg,Images/Speaker2.jpg,Images/Speaker3.jpg,Images/Speaker4.jpg,Audio/Speaker2_En/P2-8-En.wav,Speaker2,گوینده۲,,,,,,,,,,,,,,,,0,17,17,27,,,,,,,,,,,,,129.23114820800038,,,,,,,,,,,,,,,,,,,,,,,,,,,,,,,,,,,,,,,,,,,,,129.21029908299897,129.23114820800038,129.23114820800038,129.23114820800038,129.23114820800038,129.22677841666544,129.23114820800038,129.23114820800038,129.52452733300015,Incorrect! The correct answer is Speaker2. نادرست! پاسخ صحیح گوینده۲ است,1,0.2903759999971953,None,0,18,129.52843191599823,129.54089137499977,131.53396137500022,,,,,,,,,,,,,,,,,,,,,,,,,,,,,,,,,,,,,,,,,,,,,,,,,,634374,001,2024-06-30_21h15.14.464,5-24,2024.1.4,None,2024-06-30 21h15.19.363816 +0900,
Images/Speaker1.jpg,Images/Speaker2.jpg,Images/Speaker3.jpg,Images/Speaker4.jpg,Audio/Speaker3_En/P3-4-En.wav,Speaker3,گوینده۳,,,,,,,,,,,,,,,,0,18,18,43,,,,,,,,,,,,,131.55630541599749,,,,,,,,,,,,,,,,,,,,,,,,,,,,,,,,,,,,,,,,,,,,,131.53411966599742,131.55630541599749,131.55630541599749,131.55630541599749,131.55630541599749,131.55059541666586,131.55630541599749,131.55630541599749,131.78790266599754,Incorrect! The correct answer is Speaker3. نادرست! پاسخ صحیح گوینده۳ است,1,0.2257540409991634,None,0,19,131.79285449999952,131.80713999999716,133.79142179100018,133.81279179099874,,,,,,,,,,,,,,,,,,,,,,,,,,,,,,,,,,,,,,,,,,,,,,,,,634374,001,2024-06-30_21h15.14.464,5-24,2024.1.4,None,2024-06-30 21h15.19.363816 +0900,
Images/Speaker1.jpg,Images/Speaker2.jpg,Images/Speaker3.jpg,Images/Speaker4.jpg,Audio/Speaker4_En/P4-13-En.wav,Speaker4,گوینده۴,,,,,,,,,,,,,,,,0,19,19,72,,,,,,,,,,,,,133.81279179099874,,,,,,,,,,,,,,,,,,,,,,,,,,,,,,,,,,,,,,,,,,,,,133.79157616599696,133.81279179099874,133.81279179099874,133.81279179099874,133.81279179099874,133.80777166666692,133.81279179099874,133.81279179099874,133.8134477499989,Incorrect! The correct answer is Speaker4. نادرست! پاسخ صحیح گوینده۴ است,1,2.0848656659982225,None,0,20,133.81714745799763,133.8279867079982,135.81091295799706,135.8318073329974,,,,,,,,,,,,,,,,,,,,,,,,,,,,,,,,,,,,,,,,,,,,,,,,,634374,001,2024-06-30_21h15.14.464,5-24,2024.1.4,None,2024-06-30 21h15.19.363816 +0900,
Images/Speaker1.jpg,Images/Speaker2.jpg,Images/Speaker3.jpg,Images/Speaker4.jpg,Audio/Speaker4_En/P4-3-En.wav,Speaker4,گوینده۴,,,,,,,,,,,,,,,,0,20,20,62,,,,,,,,,,,,,135.8318073329974,,,,,,,,,,,,,,,,,,,,,,,,,,,,,,,,,,,,,,,,,,,,,135.81111149999924,135.8318073329974,135.8318073329974,135.8318073329974,135.8318073329974,135.8273383326671,135.8318073329974,135.8318073329974,136.18577283299965,Incorrect! The correct answer is Speaker4. نادرست! پاسخ صحیح گوینده۴ است,1,0.34666700000161654,None,0,21,136.18971145799878,136.2032073329974,138.1935784999987,,,,,,,,,,,,,,,,,,,,,,,,,,,,,,,,,,,,,,,,,,,,,,,,,,634374,001,2024-06-30_21h15.14.464,5-24,2024.1.4,None,2024-06-30 21h15.19.363816 +0900,
Images/Speaker1.jpg,Images/Speaker2.jpg,Images/Speaker3.jpg,Images/Speaker4.jpg,Audio/Speaker3_En/P3-11-En.wav,Speaker3,گوینده۳,,,,,,,,,,,,,,,,0,21,21,50,,,,,,,,,,,,,138.2175260829972,,,,,,,,,,,,,,,,,,,,,,,,,,,,,,,,,,,,,,,,,,,,,138.1942282079981,138.2175260829972,138.2175260829972,138.2175260829972,138.2175260829972,138.22675812433278,138.2175260829972,138.2175260829972,138.51933933299733,Incorrect! The correct answer is Speaker3. نادرست! پاسخ صحیح گوینده۳ است,1,0.2958159160007199,None,0,22,138.52337429099862,138.53595020799912,140.52174337500037,140.54866120799852,,,,,,,,,,,,,,,,,,,,,,,,,,,,,,,,,,,,,,,,,,,,,,,,,634374,001,2024-06-30_21h15.14.464,5-24,2024.1.4,None,2024-06-30 21h15.19.363816 +0900,
Images/Speaker1.jpg,Images/Speaker2.jpg,Images/Speaker3.jpg,Images/Speaker4.jpg,Audio/Speaker4_En/P4-2-En.wav,Speaker4,گوینده۴,,,,,,,,,,,,,,,,0,22,22,61,,,,,,,,,,,,,140.54866120799852,,,,,,,,,,,,,,,,,,,,,,,,,,,,,,,,,,,,,,,,,,,,,140.52270362499985,140.54866120799852,140.54866120799852,140.54866120799852,140.54866120799852,140.5541982913315,140.54866120799852,140.54866120799852,140.79425499999707,Incorrect! The correct answer is Speaker4. نادرست! پاسخ صحیح گوینده۴ است,1,0.24341841699788347,None,0,23,140.79817241599812,140.81124545799685,142.80330387499998,,,,,,,,,,,,,,,,,,,,,,,,,,,,,,,,,,,,,,,,,,,,,,,,,,634374,001,2024-06-30_21h15.14.464,5-24,2024.1.4,None,2024-06-30 21h15.19.363816 +0900,
Images/Speaker1.jpg,Images/Speaker2.jpg,Images/Speaker3.jpg,Images/Speaker4.jpg,Audio/Speaker1_En/P1-20-En.wav,Speaker1,گوینده ۱,,,,,,,,,,,,,,,,0,23,23,19,,,,,,,,,,,,,142.82780695799738,,,,,,,,,,,,,,,,,,,,,,,,,,,,,,,,,,,,,,,,,,,,,142.8040051249991,142.82780695799738,142.82780695799738,142.82780695799738,142.82780695799738,142.8364369163324,142.82780695799738,142.82780695799738,143.30944708300012,Correct! صحیح است,1,0.4799641249992419,None,0,24,143.3131662909982,143.3245938330001,145.30811574999825,145.33048641599817,,,,,,,,,,,,,,,,,,,,,,,,,,,,,,,,,,,,,,,,,,,,,,,,,634374,001,2024-06-30_21h15.14.464,5-24,2024.1.4,None,2024-06-30 21h15.19.363816 +0900,
Images/Speaker1.jpg,Images/Speaker2.jpg,Images/Speaker3.jpg,Images/Speaker4.jpg,Audio/Speaker1_En/P1-13-En.wav,Speaker1,گوینده ۱,,,,,,,,,,,,,,,,0,24,24,12,,,,,,,,,,,,,145.33048641599817,,,,,,,,,,,,,,,,,,,,,,,,,,,,,,,,,,,,,,,,,,,,,145.30831179099914,145.33048641599817,145.33048641599817,145.33048641599817,145.33048641599817,145.3245679576651,145.33048641599817,145.33048641599817,145.53796345799856,Correct! صحیح است,1,0.2019782919996942,None,0,25,145.54195637500015,145.55282195799737,147.54428308299975,,,,,,,,,,,,,,,,,,,,,,,,,,,,,,,,,,,,,,,,,,,,,,,,,,634374,001,2024-06-30_21h15.14.464,5-24,2024.1.4,None,2024-06-30 21h15.19.363816 +0900,
Images/Speaker1.jpg,Images/Speaker2.jpg,Images/Speaker3.jpg,Images/Speaker4.jpg,Audio/Speaker2_En/P2-2-En.wav,Speaker2,گوینده۲,,,,,,,,,,,,,,,,0,25,25,21,,,,,,,,,,,,,147.56687091599815,,,,,,,,,,,,,,,,,,,,,,,,,,,,,,,,,,,,,,,,,,,,,147.54499429099815,147.56687091599815,147.56687091599815,147.56687091599815,147.56687091599815,147.57746962433208,147.56687091599815,147.56687091599815,147.74210599999788,Incorrect! The correct answer is Speaker2. نادرست! پاسخ صحیح گوینده۲ است,1,0.17049595800199313,None,0,26,147.74630908299878,147.75939095799913,149.74680341599742,,,,,,,,,,,,,,,,,,,,,,,,,,,,,,,,,,,,,,,,,,,,,,,,,,634374,001,2024-06-30_21h15.14.464,5-24,2024.1.4,None,2024-06-30 21h15.19.363816 +0900,
Images/Speaker1.jpg,Images/Speaker2.jpg,Images/Speaker3.jpg,Images/Speaker4.jpg,Audio/Speaker1_En/P1-5-En.wav,Speaker1,گوینده ۱,,,,,,,,,,,,,,,,0,26,26,4,,,,,,,,,,,,,149.77189720800015,,,,,,,,,,,,,,,,,,,,,,,,,,,,,,,,,,,,,,,,,,,,,149.74750854099693,149.77189720800015,149.77189720800015,149.77189720800015,149.77189720800015,149.7799830833324,149.77189720800015,149.77189720800015,149.99422349999804,Correct! صحیح است,1,0.22055129199725343,None,0,27,149.99896583299778,150.01129220799703,151.99695670799701,152.01924341599806,,,,,,,,,,,,,,,,,,,,,,,,,,,,,,,,,,,,,,,,,,,,,,,,,634374,001,2024-06-30_21h15.14.464,5-24,2024.1.4,None,2024-06-30 21h15.19.363816 +0900,
Images/Speaker1.jpg,Images/Speaker2.jpg,Images/Speaker3.jpg,Images/Speaker4.jpg,Audio/Speaker3_En/P3-15-En.wav,Speaker3,گوینده۳,,,,,,,,,,,,,,,,0,27,27,54,,,,,,,,,,,,,152.01924341599806,,,,,,,,,,,,,,,,,,,,,,,,,,,,,,,,,,,,,,,,,,,,,151.99713779099693,152.01924341599806,152.01924341599806,152.01924341599806,152.01924341599806,152.01342129166395,152.01924341599806,152.01924341599806,152.22903516599763,Incorrect! The correct answer is Speaker3. نادرست! پاسخ صحیح گوینده۳ است,1,0.20199649999995017,None,0,28,152.2332484159997,152.2458513749989,154.23067900000024,154.25315499999851,,,,,,,,,,,,,,,,,,,,,,,,,,,,,,,,,,,,,,,,,,,,,,,,,634374,001,2024-06-30_21h15.14.464,5-24,2024.1.4,None,2024-06-30 21h15.19.363816 +0900,
Images/Speaker1.jpg,Images/Speaker2.jpg,Images/Speaker3.jpg,Images/Speaker4.jpg,Audio/Speaker1_En/P1-11-En.wav,Speaker1,گوینده ۱,,,,,,,,,,,,,,,,0,28,28,10,,,,,,,,,,,,,154.25315499999851,,,,,,,,,,,,,,,,,,,,,,,,,,,,,,,,,,,,,,,,,,,,,154.23087983299774,154.25315499999851,154.25315499999851,154.25315499999851,154.25315499999851,154.24710816666655,154.25315499999851,154.25315499999851,154.25369929099907,Correct! صحیح است,1,2.1769514170009643,None,0,29,154.25756870799887,154.2654318749992,156.25947695799914,,,,,,,,,,,,,,,,,,,,,,,,,,,,,,,,,,,,,,,,,,,,,,,,,,634374,001,2024-06-30_21h15.14.464,5-24,2024.1.4,None,2024-06-30 21h15.19.363816 +0900,
Images/Speaker1.jpg,Images/Speaker2.jpg,Images/Speaker3.jpg,Images/Speaker4.jpg,Audio/Speaker2_En/P2-1-En.wav,Speaker2,گوینده۲,,,,,,,,,,,,,,,,0,29,29,20,,,,,,,,,,,,,156.2806627909995,,,,,,,,,,,,,,,,,,,,,,,,,,,,,,,,,,,,,,,,,,,,,156.25965354099753,156.2806627909995,156.2806627909995,156.2806627909995,156.2806627909995,156.276106249665,156.2806627909995,156.2806627909995,156.59338345799915,Incorrect! The correct answer is Speaker2. نادرست! پاسخ صحیح گوینده۲ است,1,0.30989833299827296,None,0,30,156.59726008299913,156.6095244579992,158.5962226249976,158.61996583299697,,,,,,,,,,,,,,,,,,,,,,,,,,,,,,,,,,,,,,,,,,,,,,,,,634374,001,2024-06-30_21h15.14.464,5-24,2024.1.4,None,2024-06-30 21h15.19.363816 +0900,
Images/Speaker1.jpg,Images/Speaker2.jpg,Images/Speaker3.jpg,Images/Speaker4.jpg,Audio/Speaker2_En/P2-20-En.wav,Speaker2,گوینده۲,,,,,,,,,,,,,,,,0,30,30,39,,,,,,,,,,,,,158.61996583299697,,,,,,,,,,,,,,,,,,,,,,,,,,,,,,,,,,,,,,,,,,,,,158.59706991599887,158.61996583299697,158.61996583299697,158.61996583299697,158.61996583299697,158.6287490413311,158.61996583299697,158.61996583299697,158.83199591599987,Incorrect! The correct answer is Speaker2. نادرست! پاسخ صحیح گوینده۲ است,1,0.20937824999782606,None,0,31,158.83576012499907,158.84911108300003,160.83166479099964,160.85316687500017,,,,,,,,,,,,,,,,,,,,,,,,,,,,,,,,,,,,,,,,,,,,,,,,,634374,001,2024-06-30_21h15.14.464,5-24,2024.1.4,None,2024-06-30 21h15.19.363816 +0900,
Images/Speaker1.jpg,Images/Speaker2.jpg,Images/Speaker3.jpg,Images/Speaker4.jpg,Audio/Speaker3_En/P3-19-En.wav,Speaker3,گوینده۳,,,,,,,,,,,,,,,,0,31,31,58,,,,,,,,,,,,,160.85316687500017,,,,,,,,,,,,,,,,,,,,,,,,,,,,,,,,,,,,,,,,,,,,,160.8318201660004,160.85316687500017,160.85316687500017,160.85316687500017,160.85316687500017,160.84812779166558,160.85316687500017,160.85316687500017,161.1538610409989,Incorrect! The correct answer is Speaker3. نادرست! پاسخ صحیح گوینده۳ است,1,0.28667558300003293,None,0,32,161.1576580410001,161.17019170799904,163.15464741599862,163.1758105409972,,,,,,,,,,,,,,,,,,,,,,,,,,,,,,,,,,,,,,,,,,,,,,,,,634374,001,2024-06-30_21h15.14.464,5-24,2024.1.4,None,2024-06-30 21h15.19.363816 +0900,
Images/Speaker1.jpg,Images/Speaker2.jpg,Images/Speaker3.jpg,Images/Speaker4.jpg,Audio/Speaker1_En/P1-12-En.wav,Speaker1,گوینده ۱,,,,,,,,,,,,,,,,0,32,32,11,,,,,,,,,,,,,163.1758105409972,,,,,,,,,,,,,,,,,,,,,,,,,,,,,,,,,,,,,,,,,,,,,163.15481424999962,163.1758105409972,163.1758105409972,163.1758105409972,163.1758105409972,163.17108462466447,163.1758105409972,163.1758105409972,163.60847775000002,Correct! صحیح است,1,0.4309315829996194,None,0,33,163.61236949999875,163.6238602079975,165.6081690409992,165.62933662499927,,,,,,,,,,,,,,,,,,,,,,,,,,,,,,,,,,,,,,,,,,,,,,,,,634374,001,2024-06-30_21h15.14.464,5-24,2024.1.4,None,2024-06-30 21h15.19.363816 +0900,
Images/Speaker1.jpg,Images/Speaker2.jpg,Images/Speaker3.jpg,Images/Speaker4.jpg,Audio/Speaker3_En/P3-18-En.wav,Speaker3,گوینده۳,,,,,,,,,,,,,,,,0,33,33,57,,,,,,,,,,,,,165.62933662499927,,,,,,,,,,,,,,,,,,,,,,,,,,,,,,,,,,,,,,,,,,,,,165.6083382500001,165.62933662499927,165.62933662499927,165.62933662499927,165.62933662499927,165.62462508266643,165.62933662499927,165.62933662499927,165.80943695799942,Incorrect! The correct answer is Speaker3. نادرست! پاسخ صحیح گوینده۳ است,1,0.179088959001092,None,0,34,165.8135671659984,165.82666999999856,167.81220383300024,167.83367179099878,,,,,,,,,,,,,,,,,,,,,,,,,,,,,,,,,,,,,,,,,,,,,,,,,634374,001,2024-06-30_21h15.14.464,5-24,2024.1.4,None,2024-06-30 21h15.19.363816 +0900,
Images/Speaker1.jpg,Images/Speaker2.jpg,Images/Speaker3.jpg,Images/Speaker4.jpg,Audio/Speaker4_En/P4-1-En.wav,Speaker4,گوینده۴,,,,,,,,,,,,,,,,0,34,34,60,,,,,,,,,,,,,167.83367179099878,,,,,,,,,,,,,,,,,,,,,,,,,,,,,,,,,,,,,,,,,,,,,167.81237274999876,167.83367179099878,167.83367179099878,167.83367179099878,167.83367179099878,167.8286171666662,167.83367179099878,167.83367179099878,168.1905327079985,Incorrect! The correct answer is Speaker4. نادرست! پاسخ صحیح گوینده۴ است,1,0.3535542079989682,None,0,35,168.1945859999978,168.20735887499904,170.19329549999748,170.2136738329973,,,,,,,,,,,,,,,,,,,,,,,,,,,,,,,,,,,,,,,,,,,,,,,,,634374,001,2024-06-30_21h15.14.464,5-24,2024.1.4,None,2024-06-30 21h15.19.363816 +0900,
Images/Speaker1.jpg,Images/Speaker2.jpg,Images/Speaker3.jpg,Images/Speaker4.jpg,Audio/Speaker3_En/P3-17-En.wav,Speaker3,گوینده۳,,,,,,,,,,,,,,,,0,35,35,56,,,,,,,,,,,,,170.2136738329973,,,,,,,,,,,,,,,,,,,,,,,,,,,,,,,,,,,,,,,,,,,,,170.19346983299693,170.2136738329973,170.2136738329973,170.2136738329973,170.2136738329973,170.20977191666705,170.2136738329973,170.2136738329973,170.3910127909985,Incorrect! The correct answer is Speaker3. نادرست! پاسخ صحیح گوینده۳ است,1,0.17086970799937262,None,0,36,170.39484491599796,170.408019915998,172.40431312500004,,,,,,,,,,,,,,,,,,,,,,,,,,,,,,,,,,,,,,,,,,,,,,,,,,634374,001,2024-06-30_21h15.14.464,5-24,2024.1.4,None,2024-06-30 21h15.19.363816 +0900,
Images/Speaker1.jpg,Images/Speaker2.jpg,Images/Speaker3.jpg,Images/Speaker4.jpg,Audio/Speaker2_En/P2-11-En.wav,Speaker2,گوینده۲,,,,,,,,,,,,,,,,0,36,36,30,,,,,,,,,,,,,172.4307203749995,,,,,,,,,,,,,,,,,,,,,,,,,,,,,,,,,,,,,,,,,,,,,172.40493379100008,172.4307203749995,172.4307203749995,172.4307203749995,172.4307203749995,172.4374492493303,172.4307203749995,172.4307203749995,172.6584280829993,Incorrect! The correct answer is Speaker2. نادرست! پاسخ صحیح گوینده۲ است,1,0.2158846669990453,None,0,37,172.66270466599963,172.6753974159983,174.6592189999974,174.68036833299993,,,,,,,,,,,,,,,,,,,,,,,,,,,,,,,,,,,,,,,,,,,,,,,,,634374,001,2024-06-30_21h15.14.464,5-24,2024.1.4,None,2024-06-30 21h15.19.363816 +0900,
Images/Speaker1.jpg,Images/Speaker2.jpg,Images/Speaker3.jpg,Images/Speaker4.jpg,Audio/Speaker2_En/P2-10-En.wav,Speaker2,گوینده۲,,,,,,,,,,,,,,,,0,37,37,29,,,,,,,,,,,,,174.68036833299993,,,,,,,,,,,,,,,,,,,,,,,,,,,,,,,,,,,,,,,,,,,,,174.65938599999936,174.68036833299993,174.68036833299993,174.68036833299993,174.68036833299993,174.67562637466497,174.68036833299993,174.68036833299993,174.9023795409994,Incorrect! The correct answer is Speaker2. نادرست! پاسخ صحیح گوینده۲ است,1,0.21885091699732584,None,0,38,174.90643887499755,174.9191530829994,176.9053175409972,176.93047404099707,,,,,,,,,,,,,,,,,,,,,,,,,,,,,,,,,,,,,,,,,,,,,,,,,634374,001,2024-06-30_21h15.14.464,5-24,2024.1.4,None,2024-06-30 21h15.19.363816 +0900,
Images/Speaker1.jpg,Images/Speaker2.jpg,Images/Speaker3.jpg,Images/Speaker4.jpg,Audio/Speaker4_En/P4-14-En.wav,Speaker4,گوینده۴,,,,,,,,,,,,,,,,0,38,38,73,,,,,,,,,,,,,176.93047404099707,,,,,,,,,,,,,,,,,,,,,,,,,,,,,,,,,,,,,,,,,,,,,176.9062141659997,176.93047404099707,176.93047404099707,176.93047404099707,176.93047404099707,176.937806458333,176.93047404099707,176.93047404099707,177.42663433299822,Incorrect! The correct answer is Speaker4. نادرست! پاسخ صحیح گوینده۴ است,1,0.49486566700215917,None,0,39,177.43086587499783,177.44356395799696,179.43028933299865,179.45426316599696,,,,,,,,,,,,,,,,,,,,,,,,,,,,,,,,,,,,,,,,,,,,,,,,,634374,001,2024-06-30_21h15.14.464,5-24,2024.1.4,None,2024-06-30 21h15.19.363816 +0900,
Images/Speaker1.jpg,Images/Speaker2.jpg,Images/Speaker3.jpg,Images/Speaker4.jpg,Audio/Speaker1_En/P1-1-En.wav,Speaker1,گوینده ۱,,,,,,,,,,,,,,,,0,39,39,0,,,,,,,,,,,,,179.45426316599696,,,,,,,,,,,,,,,,,,,,,,,,,,,,,,,,,,,,,,,,,,,,,179.43099604099916,179.45426316599696,179.45426316599696,179.45426316599696,179.45426316599696,179.4631553333316,179.45426316599696,179.45426316599696,179.82616874999803,Correct! صحیح است,1,0.3608851249991858,None,0,40,179.830233916,179.84102441600044,181.82908012500047,181.85449858299762,,,,,,,,,,,,,,,,,,,,,,,,,,,,,,,,,,,,,,,,,,,,,,,,,634374,001,2024-06-30_21h15.14.464,5-24,2024.1.4,None,2024-06-30 21h15.19.363816 +0900,
Images/Speaker1.jpg,Images/Speaker2.jpg,Images/Speaker3.jpg,Images/Speaker4.jpg,Audio/Speaker3_En/P3-13-En.wav,Speaker3,گوینده۳,,,,,,,,,,,,,,,,0,40,40,52,,,,,,,,,,,,,181.85449858299762,,,,,,,,,,,,,,,,,,,,,,,,,,,,,,,,,,,,,,,,,,,,,181.82972249999875,181.85449858299762,181.85449858299762,181.85449858299762,181.85449858299762,181.86145216633355,181.85449858299762,181.85449858299762,200.05254312499892,Incorrect! The correct answer is Speaker3. نادرست! پاسخ صحیح گوینده۳ است,1,18.194467583001824,None,0,41,200.0528057499978,200.0667019579996,202.0601275409972,,,,,,,,,,,,,,,,,,,,,,,,,,,,,,,,,,,,,,,,,,,,,,,,,,634374,001,2024-06-30_21h15.14.464,5-24,2024.1.4,None,2024-06-30 21h15.19.363816 +0900,
Images/Speaker1.jpg,Images/Speaker2.jpg,Images/Speaker3.jpg,Images/Speaker4.jpg,Audio/Speaker2_En/P2-14-En.wav,Speaker2,گوینده۲,,,,,,,,,,,,,,,,0,41,41,33,,,,,,,,,,,,,202.0817000829993,,,,,,,,,,,,,,,,,,,,,,,,,,,,,,,,,,,,,,,,,,,,,202.0602817910003,202.0817000829993,202.0817000829993,202.0817000829993,202.0817000829993,202.0767580826653,202.0817000829993,202.0817000829993,202.0823605409969,Incorrect! The correct answer is Speaker2. نادرست! پاسخ صحیح گوینده۲ است,1,20.13333629200133,None,0,42,202.08654575000037,202.095810625,204.08067370799836,204.1023734579976,,,,,,,,,,,,,,,,,,,,,,,,,,,,,,,,,,,,,,,,,,,,,,,,,634374,001,2024-06-30_21h15.14.464,5-24,2024.1.4,None,2024-06-30 21h15.19.363816 +0900,
Images/Speaker1.jpg,Images/Speaker2.jpg,Images/Speaker3.jpg,Images/Speaker4.jpg,Audio/Speaker3_En/P3-1-En.wav,Speaker3,گوینده۳,,,,,,,,,,,,,,,,0,42,42,40,,,,,,,,,,,,,204.1023734579976,,,,,,,,,,,,,,,,,,,,,,,,,,,,,,,,,,,,,,,,,,,,,204.08081816599952,204.1023734579976,204.1023734579976,204.1023734579976,204.1023734579976,204.09713166666577,204.1023734579976,204.1023734579976,204.39571908299695,Incorrect! The correct answer is Speaker3. نادرست! پاسخ صحیح گوینده۳ است,1,0.29098275000069407,None,0,43,204.40005316599854,204.41306133299804,206.40171637499952,,,,,,,,,,,,,,,,,,,,,,,,,,,,,,,,,,,,,,,,,,,,,,,,,,634374,001,2024-06-30_21h15.14.464,5-24,2024.1.4,None,2024-06-30 21h15.19.363816 +0900,
Images/Speaker1.jpg,Images/Speaker2.jpg,Images/Speaker3.jpg,Images/Speaker4.jpg,Audio/Speaker2_En/P2-17-En.wav,Speaker2,گوینده۲,,,,,,,,,,,,,,,,0,43,43,36,,,,,,,,,,,,,206.42320520799694,,,,,,,,,,,,,,,,,,,,,,,,,,,,,,,,,,,,,,,,,,,,,206.40188779099844,206.42320520799694,206.42320520799694,206.42320520799694,206.42320520799694,206.4183248326665,206.42320520799694,206.42320520799694,206.65148475000024,Incorrect! The correct answer is Speaker2. نادرست! پاسخ صحیح گوینده۲ است,1,0.2200829999965208,None,0,44,206.65562750000026,206.66837183299867,208.66073649999817,,,,,,,,,,,,,,,,,,,,,,,,,,,,,,,,,,,,,,,,,,,,,,,,,,634374,001,2024-06-30_21h15.14.464,5-24,2024.1.4,None,2024-06-30 21h15.19.363816 +0900,
Images/Speaker1.jpg,Images/Speaker2.jpg,Images/Speaker3.jpg,Images/Speaker4.jpg,Audio/Speaker1_En/P1-6-En.wav,Speaker1,گوینده ۱,,,,,,,,,,,,,,,,0,44,44,5,,,,,,,,,,,,,208.6835587909991,,,,,,,,,,,,,,,,,,,,,,,,,,,,,,,,,,,,,,,,,,,,,208.66139358299915,208.6835587909991,208.6835587909991,208.6835587909991,208.6835587909991,208.69389312433174,208.6835587909991,208.6835587909991,209.02297912499853,Correct! صحیح است,1,0.33465016600166564,None,0,45,209.02726516599796,209.03846625000006,211.02805737499875,,,,,,,,,,,,,,,,,,,,,,,,,,,,,,,,,,,,,,,,,,,,,,,,,,634374,001,2024-06-30_21h15.14.464,5-24,2024.1.4,None,2024-06-30 21h15.19.363816 +0900,
Images/Speaker1.jpg,Images/Speaker2.jpg,Images/Speaker3.jpg,Images/Speaker4.jpg,Audio/Speaker2_En/P2-19-En.wav,Speaker2,گوینده۲,,,,,,,,,,,,,,,,0,45,45,38,,,,,,,,,,,,,211.04873920799946,,,,,,,,,,,,,,,,,,,,,,,,,,,,,,,,,,,,,,,,,,,,,211.02824154100017,211.04873920799946,211.04873920799946,211.04873920799946,211.04873920799946,211.0446733746651,211.04873920799946,211.04873920799946,211.2688764159975,Incorrect! The correct answer is Speaker2. نادرست! پاسخ صحیح گوینده۲ است,1,0.21030754199819057,None,0,46,211.27319279099902,211.28661154099973,213.27148841599774,213.29313208299936,,,,,,,,,,,,,,,,,,,,,,,,,,,,,,,,,,,,,,,,,,,,,,,,,634374,001,2024-06-30_21h15.14.464,5-24,2024.1.4,None,2024-06-30 21h15.19.363816 +0900,
Images/Speaker1.jpg,Images/Speaker2.jpg,Images/Speaker3.jpg,Images/Speaker4.jpg,Audio/Speaker1_En/P1-2-En.wav,Speaker1,گوینده ۱,,,,,,,,,,,,,,,,0,46,46,1,,,,,,,,,,,,,213.29313208299936,,,,,,,,,,,,,,,,,,,,,,,,,,,,,,,,,,,,,,,,,,,,,213.27164337499926,213.29313208299936,213.29313208299936,213.29313208299936,213.29313208299936,213.2879473746655,213.29313208299936,213.29313208299936,213.78496566600006,Correct! صحیح است,1,0.4836639169989212,None,0,47,213.78888649999863,213.79985170799773,215.7964094159979,,,,,,,,,,,,,,,,,,,,,,,,,,,,,,,,,,,,,,,,,,,,,,,,,,634374,001,2024-06-30_21h15.14.464,5-24,2024.1.4,None,2024-06-30 21h15.19.363816 +0900,
Images/Speaker1.jpg,Images/Speaker2.jpg,Images/Speaker3.jpg,Images/Speaker4.jpg,Audio/Speaker4_En/P4-15-En.wav,Speaker4,گوینده۴,,,,,,,,,,,,,,,,0,47,47,74,,,,,,,,,,,,,215.82332849999875,,,,,,,,,,,,,,,,,,,,,,,,,,,,,,,,,,,,,,,,,,,,,215.79709829099738,215.82332849999875,215.82332849999875,215.82332849999875,215.82332849999875,215.8295437913335,215.82332849999875,215.82332849999875,216.12335687499944,Incorrect! The correct answer is Speaker4. نادرست! پاسخ صحیح گوینده۴ است,1,0.29549945799954,None,0,48,216.1272923329998,216.1403723330004,218.13460191599734,,,,,,,,,,,,,,,,,,,,,,,,,,,,,,,,,,,,,,,,,,,,,,,,,,634374,001,2024-06-30_21h15.14.464,5-24,2024.1.4,None,2024-06-30 21h15.19.363816 +0900,
Images/Speaker1.jpg,Images/Speaker2.jpg,Images/Speaker3.jpg,Images/Speaker4.jpg,Audio/Speaker4_En/P4-16-En.wav,Speaker4,گوینده۴,,,,,,,,,,,,,,,,0,48,48,75,,,,,,,,,,,,,218.15644145799888,,,,,,,,,,,,,,,,,,,,,,,,,,,,,,,,,,,,,,,,,,,,,218.13477874999808,218.15644145799888,218.15644145799888,218.15644145799888,218.15644145799888,218.15123512466405,218.15644145799888,218.15644145799888,218.26638679099779,Incorrect! The correct answer is Speaker4. نادرست! پاسخ صحیح گوینده۴ است,1,0.10886737500186427,None,0,49,218.27008695800032,218.28294783299862,220.2770294999973,,,,,,,,,,,,,,,,,,,,,,,,,,,,,,,,,,,,,,,,,,,,,,,,,,634374,001,2024-06-30_21h15.14.464,5-24,2024.1.4,None,2024-06-30 21h15.19.363816 +0900,
Images/Speaker1.jpg,Images/Speaker2.jpg,Images/Speaker3.jpg,Images/Speaker4.jpg,Audio/Speaker1_En/P1-4-En.wav,Speaker1,گوینده ۱,,,,,,,,,,,,,,,,0,49,49,13,,,,,,,,,,,,,220.2984074579981,,,,,,,,,,,,,,,,,,,,,,,,,,,,,,,,,,,,,,,,,,,,,220.27719270799935,220.2984074579981,220.2984074579981,220.2984074579981,220.2984074579981,220.29365774966598,220.2984074579981,220.2984074579981,220.65335916599724,Correct! صحیح است,1,0.35162237500117044,None,0,50,220.6572912499978,220.66817554099907,222.66154466599983,,,,,,,,,,,,,,,,,,,,,,,,,,,,,,,,,,,,,,,,,,,,,,,,,,634374,001,2024-06-30_21h15.14.464,5-24,2024.1.4,None,2024-06-30 21h15.19.363816 +0900,
Images/Speaker1.jpg,Images/Speaker2.jpg,Images/Speaker3.jpg,Images/Speaker4.jpg,Audio/Speaker3_En/P3-14-En.wav,Speaker3,گوینده۳,,,,,,,,,,,,,,,,0,50,50,53,,,,,,,,,,,,,222.68732195799748,,,,,,,,,,,,,,,,,,,,,,,,,,,,,,,,,,,,,,,,,,,,,222.6621314160002,222.68732195799748,222.68732195799748,222.68732195799748,222.68732195799748,222.69470245833196,222.68732195799748,222.68732195799748,223.00557504099925,Incorrect! The correct answer is Speaker3. نادرست! پاسخ صحیح گوینده۳ است,1,0.3116385409994109,None,0,51,223.01049837499886,223.0249648329991,225.01275879099921,,,,,,,,,,,,,,,,,,,,,,,,,,,,,,,,,,,,,,,,,,,,,,,,,,634374,001,2024-06-30_21h15.14.464,5-24,2024.1.4,None,2024-06-30 21h15.19.363816 +0900,
Images/Speaker1.jpg,Images/Speaker2.jpg,Images/Speaker3.jpg,Images/Speaker4.jpg,Audio/Speaker1_En/P1-8-En.wav,Speaker1,گوینده ۱,,,,,,,,,,,,,,,,0,51,51,7,,,,,,,,,,,,,225.0341188329985,,,,,,,,,,,,,,,,,,,,,,,,,,,,,,,,,,,,,,,,,,,,,225.01295712499996,225.0341188329985,225.0341188329985,225.0341188329985,225.0341188329985,225.02936149966652,225.0341188329985,225.0341188329985,225.21921054099948,Correct! صحیح است,1,0.17334712500087335,None,0,52,225.22325633299988,225.23380008299864,227.216562374997,227.23731483299707,,,,,,,,,,,,,,,,,,,,,,,,,,,,,,,,,,,,,,,,,,,,,,,,,634374,001,2024-06-30_21h15.14.464,5-24,2024.1.4,None,2024-06-30 21h15.19.363816 +0900,
Images/Speaker1.jpg,Images/Speaker2.jpg,Images/Speaker3.jpg,Images/Speaker4.jpg,Audio/Speaker1_En/P1-17-En.wav,Speaker1,گوینده ۱,,,,,,,,,,,,,,,,0,52,52,16,,,,,,,,,,,,,227.23731483299707,,,,,,,,,,,,,,,,,,,,,,,,,,,,,,,,,,,,,,,,,,,,,227.2167407909983,227.23731483299707,227.23731483299707,227.23731483299707,227.23731483299707,227.23295649966556,227.23731483299707,227.23731483299707,236.61633049999728,Correct! صحیح است,1,9.376192208001157,None,0,53,236.61655070800043,236.6280850410003,238.61866649999865,,,,,,,,,,,,,,,,,,,,,,,,,,,,,,,,,,,,,,,,,,,,,,,,,,634374,001,2024-06-30_21h15.14.464,5-24,2024.1.4,None,2024-06-30 21h15.19.363816 +0900,
Images/Speaker1.jpg,Images/Speaker2.jpg,Images/Speaker3.jpg,Images/Speaker4.jpg,Audio/Speaker4_En/P4-17-En.wav,Speaker4,گوینده۴,,,,,,,,,,,,,,,,0,53,53,76,,,,,,,,,,,,,238.64192470799753,,,,,,,,,,,,,,,,,,,,,,,,,,,,,,,,,,,,,,,,,,,,,238.6192094580001,238.64192470799753,238.64192470799753,238.64192470799753,238.64192470799753,238.65184120833197,238.64192470799753,238.64192470799753,239.6049669999993,Incorrect! The correct answer is Speaker4. نادرست! پاسخ صحیح گوینده۴ است,1,0.9554554169990297,None,0,54,239.60897295799805,239.62175645800016,241.60538258299857,241.6265312079995,,,,,,,,,,,,,,,,,,,,,,,,,,,,,,,,,,,,,,,,,,,,,,,,,634374,001,2024-06-30_21h15.14.464,5-24,2024.1.4,None,2024-06-30 21h15.19.363816 +0900,
Images/Speaker1.jpg,Images/Speaker2.jpg,Images/Speaker3.jpg,Images/Speaker4.jpg,Audio/Speaker3_En/P3-12-En.wav,Speaker3,گوینده۳,,,,,,,,,,,,,,,,0,54,54,51,,,,,,,,,,,,,241.6265312079995,,,,,,,,,,,,,,,,,,,,,,,,,,,,,,,,,,,,,,,,,,,,,241.6055424160004,241.6265312079995,241.6265312079995,241.6265312079995,241.6265312079995,241.62180262466453,241.6265312079995,241.6265312079995,242.6371690829983,Incorrect! The correct answer is Speaker3. نادرست! پاسخ صحیح گوینده۳ است,1,1.0047851670024102,None,0,55,242.64118274999782,242.6539503749991,244.64405249999982,,,,,,,,,,,,,,,,,,,,,,,,,,,,,,,,,,,,,,,,,,,,,,,,,,634374,001,2024-06-30_21h15.14.464,5-24,2024.1.4,None,2024-06-30 21h15.19.363816 +0900,
Images/Speaker1.jpg,Images/Speaker2.jpg,Images/Speaker3.jpg,Images/Speaker4.jpg,Audio/Speaker2_En/P2-6-En.wav,Speaker2,گوینده۲,,,,,,,,,,,,,,,,0,55,55,25,,,,,,,,,,,,,244.66756995799733,,,,,,,,,,,,,,,,,,,,,,,,,,,,,,,,,,,,,,,,,,,,,244.64473291600007,244.66756995799733,244.66756995799733,244.66756995799733,244.66756995799733,244.67719987433208,244.66756995799733,244.66756995799733,245.0016627499972,Incorrect! The correct answer is Speaker2. نادرست! پاسخ صحیح گوینده۲ است,1,0.32473816700075986,None,0,56,245.00655266600006,245.0207861659983,247.0122921660004,,,,,,,,,,,,,,,,,,,,,,,,,,,,,,,,,,,,,,,,,,,,,,,,,,634374,001,2024-06-30_21h15.14.464,5-24,2024.1.4,None,2024-06-30 21h15.19.363816 +0900,
Images/Speaker1.jpg,Images/Speaker2.jpg,Images/Speaker3.jpg,Images/Speaker4.jpg,Audio/Speaker2_En/P2-18-En.wav,Speaker2,گوینده۲,,,,,,,,,,,,,,,,0,56,56,37,,,,,,,,,,,,,247.03280429099686,,,,,,,,,,,,,,,,,,,,,,,,,,,,,,,,,,,,,,,,,,,,,247.0124542079975,247.03280429099686,247.03280429099686,247.03280429099686,247.03280429099686,247.0289219166664,247.03280429099686,247.03280429099686,247.30228654099847,Incorrect! The correct answer is Speaker2. نادرست! پاسخ صحیح گوینده۲ است,1,0.2654522500015446,None,0,57,247.3061711249975,247.3181365829987,249.30133745799685,249.32289899999887,,,,,,,,,,,,,,,,,,,,,,,,,,,,,,,,,,,,,,,,,,,,,,,,,634374,001,2024-06-30_21h15.14.464,5-24,2024.1.4,None,2024-06-30 21h15.19.363816 +0900,
Images/Speaker1.jpg,Images/Speaker2.jpg,Images/Speaker3.jpg,Images/Speaker4.jpg,Audio/Speaker4_En/P4-6-En.wav,Speaker4,گوینده۴,,,,,,,,,,,,,,,,0,57,57,65,,,,,,,,,,,,,249.32289899999887,,,,,,,,,,,,,,,,,,,,,,,,,,,,,,,,,,,,,,,,,,,,,249.30151337499774,249.32289899999887,249.32289899999887,249.32289899999887,249.32289899999887,249.31773799966712,249.32289899999887,249.32289899999887,250.34243429100025,Incorrect! The correct answer is Speaker4. نادرست! پاسخ صحیح گوینده۴ است,1,1.0168337920003978,None,0,58,250.3462453329994,250.35946558299838,252.35409916599747,,,,,,,,,,,,,,,,,,,,,,,,,,,,,,,,,,,,,,,,,,,,,,,,,,634374,001,2024-06-30_21h15.14.464,5-24,2024.1.4,None,2024-06-30 21h15.19.363816 +0900,
Images/Speaker1.jpg,Images/Speaker2.jpg,Images/Speaker3.jpg,Images/Speaker4.jpg,Audio/Speaker4_En/P4-4-En.wav,Speaker4,گوینده۴,,,,,,,,,,,,,,,,0,58,58,63,,,,,,,,,,,,,252.37829174999933,,,,,,,,,,,,,,,,,,,,,,,,,,,,,,,,,,,,,,,,,,,,,252.354654666,252.37829174999933,252.37829174999933,252.37829174999933,252.37829174999933,252.38728604133263,252.37829174999933,252.37829174999933,254.09283616599714,Incorrect! The correct answer is Speaker4. نادرست! پاسخ صحیح گوینده۴ است,1,1.7064061670025694,None,0,59,254.09690583299744,254.11005012500027,256.09423254099966,256.1156589159982,,,,,,,,,,,,,,,,,,,,,,,,,,,,,,,,,,,,,,,,,,,,,,,,,634374,001,2024-06-30_21h15.14.464,5-24,2024.1.4,None,2024-06-30 21h15.19.363816 +0900,
Images/Speaker1.jpg,Images/Speaker2.jpg,Images/Speaker3.jpg,Images/Speaker4.jpg,Audio/Speaker1_En/P1-10-En.wav,Speaker1,گوینده ۱,,,,,,,,,,,,,,,,0,59,59,9,,,,,,,,,,,,,256.1156589159982,,,,,,,,,,,,,,,,,,,,,,,,,,,,,,,,,,,,,,,,,,,,,256.09440320799695,256.1156589159982,256.1156589159982,256.1156589159982,256.1156589159982,256.1106725826651,256.1156589159982,256.1156589159982,257.00737283299895,Correct! صحیح است,1,0.8904889170007664,None,0,60,257.0112374579985,257.0224567080004,259.0065477499993,259.02745237499767,,,,,,,,,,,,,,,,,,,,,,,,,,,,,,,,,,,,,,,,,,,,,,,,,634374,001,2024-06-30_21h15.14.464,5-24,2024.1.4,None,2024-06-30 21h15.19.363816 +0900,
Images/Speaker1.jpg,Images/Speaker2.jpg,Images/Speaker3.jpg,Images/Speaker4.jpg,Audio/Speaker3_En/P3-8-En.wav,Speaker3,گوینده۳,,,,,,,,,,,,,,,,0,60,60,47,,,,,,,,,,,,,259.02745237499767,,,,,,,,,,,,,,,,,,,,,,,,,,,,,,,,,,,,,,,,,,,,,259.0067367499978,259.02745237499767,259.02745237499767,259.02745237499767,259.02745237499767,259.0229924576636,259.02745237499767,259.02745237499767,259.44152674999714,Incorrect! The correct answer is Speaker3. نادرست! پاسخ صحیح گوینده۳ است,1,0.41137650000018766,None,0,61,259.44530312499774,259.45844762499837,261.44524358299896,261.4673199579993,,,,,,,,,,,,,,,,,,,,,,,,,,,,,,,,,,,,,,,,,,,,,,,,,634374,001,2024-06-30_21h15.14.464,5-24,2024.1.4,None,2024-06-30 21h15.19.363816 +0900,
Images/Speaker1.jpg,Images/Speaker2.jpg,Images/Speaker3.jpg,Images/Speaker4.jpg,Audio/Speaker2_En/P2-9-En.wav,Speaker2,گوینده۲,,,,,,,,,,,,,,,,0,61,61,28,,,,,,,,,,,,,261.4673199579993,,,,,,,,,,,,,,,,,,,,,,,,,,,,,,,,,,,,,,,,,,,,,261.4458020409984,261.4673199579993,261.4673199579993,261.4673199579993,261.4673199579993,261.46097766666594,261.4673199579993,261.4673199579993,261.87021133300004,Incorrect! The correct answer is Speaker2. نادرست! پاسخ صحیح گوینده۲ است,1,0.3957958339997276,None,0,62,261.8740952499975,261.8869136249996,263.8779903329996,,,,,,,,,,,,,,,,,,,,,,,,,,,,,,,,,,,,,,,,,,,,,,,,,,634374,001,2024-06-30_21h15.14.464,5-24,2024.1.4,None,2024-06-30 21h15.19.363816 +0900,
Images/Speaker1.jpg,Images/Speaker2.jpg,Images/Speaker3.jpg,Images/Speaker4.jpg,Audio/Speaker4_En/P4-5-En.wav,Speaker4,گوینده۴,,,,,,,,,,,,,,,,0,62,62,64,,,,,,,,,,,,,263.9019562499998,,,,,,,,,,,,,,,,,,,,,,,,,,,,,,,,,,,,,,,,,,,,,263.8786522079972,263.9019562499998,263.9019562499998,263.9019562499998,263.9019562499998,263.91113904133135,263.9019562499998,263.9019562499998,263.92356020799707,Incorrect! The correct answer is Speaker4. نادرست! پاسخ صحیح گوینده۴ است,1,0.02039370900092763,None,0,63,263.92781320799986,263.94062366599974,265.9268247500004,265.9483507499972,,,,,,,,,,,,,,,,,,,,,,,,,,,,,,,,,,,,,,,,,,,,,,,,,634374,001,2024-06-30_21h15.14.464,5-24,2024.1.4,None,2024-06-30 21h15.19.363816 +0900,
Images/Speaker1.jpg,Images/Speaker2.jpg,Images/Speaker3.jpg,Images/Speaker4.jpg,Audio/Speaker3_En/P3-16-En.wav,Speaker3,گوینده۳,,,,,,,,,,,,,,,,0,63,63,55,,,,,,,,,,,,,265.9483507499972,,,,,,,,,,,,,,,,,,,,,,,,,,,,,,,,,,,,,,,,,,,,,265.92699216599794,265.9483507499972,265.9483507499972,265.9483507499972,265.9483507499972,265.9432394166654,265.9483507499972,265.9483507499972,266.03992870799993,Incorrect! The correct answer is Speaker3. نادرست! پاسخ صحیح گوینده۳ است,1,0.09054054200169048,None,0,64,266.04406029099846,266.0564284579996,268.04163499999777,268.062985665998,,,,,,,,,,,,,,,,,,,,,,,,,,,,,,,,,,,,,,,,,,,,,,,,,634374,001,2024-06-30_21h15.14.464,5-24,2024.1.4,None,2024-06-30 21h15.19.363816 +0900,
Images/Speaker1.jpg,Images/Speaker2.jpg,Images/Speaker3.jpg,Images/Speaker4.jpg,Audio/Speaker4_En/P4-7-En.wav,Speaker4,گوینده۴,,,,,,,,,,,,,,,,0,64,64,66,,,,,,,,,,,,,268.062985665998,,,,,,,,,,,,,,,,,,,,,,,,,,,,,,,,,,,,,,,,,,,,,268.04181699999754,268.062985665998,268.062985665998,268.062985665998,268.062985665998,268.05802549966415,268.062985665998,268.062985665998,268.0637816249982,Incorrect! The correct answer is Speaker4. نادرست! پاسخ صحیح گوینده۴ است,1,2.0668364580014895,None,0,65,268.06753345799734,268.0773168329979,270.06635866599754,270.0869095829985,,,,,,,,,,,,,,,,,,,,,,,,,,,,,,,,,,,,,,,,,,,,,,,,,634374,001,2024-06-30_21h15.14.464,5-24,2024.1.4,None,2024-06-30 21h15.19.363816 +0900,
Images/Speaker1.jpg,Images/Speaker2.jpg,Images/Speaker3.jpg,Images/Speaker4.jpg,Audio/Speaker3_En/P3-20-En.wav,Speaker3,گوینده۳,,,,,,,,,,,,,,,,0,65,65,59,,,,,,,,,,,,,270.0869095829985,,,,,,,,,,,,,,,,,,,,,,,,,,,,,,,,,,,,,,,,,,,,,270.06653266599824,270.0869095829985,270.0869095829985,270.0869095829985,270.0869095829985,270.08281591666696,270.0869095829985,270.0869095829985,270.13615091599786,Incorrect! The correct answer is Speaker3. نادرست! پاسخ صحیح گوینده۳ است,1,0.043656750000081956,None,0,66,270.1400419999991,270.1529249159976,272.1430232499988,,,,,,,,,,,,,,,,,,,,,,,,,,,,,,,,,,,,,,,,,,,,,,,,,,634374,001,2024-06-30_21h15.14.464,5-24,2024.1.4,None,2024-06-30 21h15.19.363816 +0900,
Images/Speaker1.jpg,Images/Speaker2.jpg,Images/Speaker3.jpg,Images/Speaker4.jpg,Audio/Speaker3_En/P3-3-En.wav,Speaker3,گوینده۳,,,,,,,,,,,,,,,,0,66,66,42,,,,,,,,,,,,,272.16428087500026,,,,,,,,,,,,,,,,,,,,,,,,,,,,,,,,,,,,,,,,,,,,,272.1431762079992,272.16428087500026,272.16428087500026,272.16428087500026,272.16428087500026,272.159654999665,272.16428087500026,272.16428087500026,272.16489658299906,Incorrect! The correct answer is Speaker3. نادرست! پاسخ صحیح گوینده۳ است,1,1.9275421249985811,None,0,67,272.1690956659986,272.1790001249974,274.1708407909973,,,,,,,,,,,,,,,,,,,,,,,,,,,,,,,,,,,,,,,,,,,,,,,,,,634374,001,2024-06-30_21h15.14.464,5-24,2024.1.4,None,2024-06-30 21h15.19.363816 +0900,
Images/Speaker1.jpg,Images/Speaker2.jpg,Images/Speaker3.jpg,Images/Speaker4.jpg,Audio/Speaker2_En/P2-7-En.wav,Speaker2,گوینده۲,,,,,,,,,,,,,,,,0,67,67,26,,,,,,,,,,,,,274.191826708,,,,,,,,,,,,,,,,,,,,,,,,,,,,,,,,,,,,,,,,,,,,,274.17100766599833,274.191826708,274.191826708,274.191826708,274.191826708,274.18747524966625,274.191826708,274.191826708,274.6319962079979,Incorrect! The correct answer is Speaker2. نادرست! پاسخ صحیح گوینده۲ است,1,0.4359450839983765,None,0,68,274.635697791,274.6485218329981,276.6361975,276.65846883300037,,,,,,,,,,,,,,,,,,,,,,,,,,,,,,,,,,,,,,,,,,,,,,,,,634374,001,2024-06-30_21h15.14.464,5-24,2024.1.4,None,2024-06-30 21h15.19.363816 +0900,
Images/Speaker1.jpg,Images/Speaker2.jpg,Images/Speaker3.jpg,Images/Speaker4.jpg,Audio/Speaker1_En/P1-9-En.wav,Speaker1,گوینده ۱,,,,,,,,,,,,,,,,0,68,68,8,,,,,,,,,,,,,276.65846883300037,,,,,,,,,,,,,,,,,,,,,,,,,,,,,,,,,,,,,,,,,,,,,276.63707670799704,276.65846883300037,276.65846883300037,276.65846883300037,276.65846883300037,276.66841162433093,276.65846883300037,276.65846883300037,276.7763132500004,Correct! صحیح است,1,0.11493387500013341,None,0,69,276.7800350409998,276.79119737499786,278.78564258299957,,,,,,,,,,,,,,,,,,,,,,,,,,,,,,,,,,,,,,,,,,,,,,,,,,634374,001,2024-06-30_21h15.14.464,5-24,2024.1.4,None,2024-06-30 21h15.19.363816 +0900,
Images/Speaker1.jpg,Images/Speaker2.jpg,Images/Speaker3.jpg,Images/Speaker4.jpg,Audio/Speaker3_En/P3-7-En.wav,Speaker3,گوینده۳,,,,,,,,,,,,,,,,0,69,69,46,,,,,,,,,,,,,278.80636437499925,,,,,,,,,,,,,,,,,,,,,,,,,,,,,,,,,,,,,,,,,,,,,278.78578904099777,278.80636437499925,278.80636437499925,278.80636437499925,278.80636437499925,278.80227845766444,278.80636437499925,278.80636437499925,279.43544754100003,Incorrect! The correct answer is Speaker3. نادرست! پاسخ صحیح گوینده۳ است,1,0.6189254579985572,None,0,70,279.4391798329998,279.45214958299766,281.4459600409973,,,,,,,,,,,,,,,,,,,,,,,,,,,,,,,,,,,,,,,,,,,,,,,,,,634374,001,2024-06-30_21h15.14.464,5-24,2024.1.4,None,2024-06-30 21h15.19.363816 +0900,
Images/Speaker1.jpg,Images/Speaker2.jpg,Images/Speaker3.jpg,Images/Speaker4.jpg,Audio/Speaker1_En/P1-7-En.wav,Speaker1,گوینده ۱,,,,,,,,,,,,,,,,0,70,70,6,,,,,,,,,,,,,281.4710513329992,,,,,,,,,,,,,,,,,,,,,,,,,,,,,,,,,,,,,,,,,,,,,281.44657066599757,281.4710513329992,281.4710513329992,281.4710513329992,281.4710513329992,281.47912995833076,281.4710513329992,281.4710513329992,281.7231270409975,Correct! صحیح است,1,0.24861700000110432,None,0,71,281.72729249999975,281.7388207909971,283.72818679099873,,,,,,,,,,,,,,,,,,,,,,,,,,,,,,,,,,,,,,,,,,,,,,,,,,634374,001,2024-06-30_21h15.14.464,5-24,2024.1.4,None,2024-06-30 21h15.19.363816 +0900,
Images/Speaker1.jpg,Images/Speaker2.jpg,Images/Speaker3.jpg,Images/Speaker4.jpg,Audio/Speaker3_En/P3-2-En.wav,Speaker3,گوینده۳,,,,,,,,,,,,,,,,0,71,71,41,,,,,,,,,,,,,283.75188404099754,,,,,,,,,,,,,,,,,,,,,,,,,,,,,,,,,,,,,,,,,,,,,283.7283715829981,283.75188404099754,283.75188404099754,283.75188404099754,283.75188404099754,283.761472666331,283.75188404099754,283.75188404099754,283.95982670800004,Incorrect! The correct answer is Speaker3. نادرست! پاسخ صحیح گوینده۳ است,1,0.20515974999943865,None,0,72,283.96355374999985,283.9763952079993,285.96275445799984,285.98352474999774,,,,,,,,,,,,,,,,,,,,,,,,,,,,,,,,,,,,,,,,,,,,,,,,,634374,001,2024-06-30_21h15.14.464,5-24,2024.1.4,None,2024-06-30 21h15.19.363816 +0900,
Images/Speaker1.jpg,Images/Speaker2.jpg,Images/Speaker3.jpg,Images/Speaker4.jpg,Audio/Speaker4_En/P4-9-En.wav,Speaker4,گوینده۴,,,,,,,,,,,,,,,,0,72,72,68,,,,,,,,,,,,,285.98352474999774,,,,,,,,,,,,,,,,,,,,,,,,,,,,,,,,,,,,,,,,,,,,,285.96291916599876,285.98352474999774,285.98352474999774,285.98352474999774,285.98352474999774,285.9791833746642,285.98352474999774,285.98352474999774,286.3690307079996,Incorrect! The correct answer is Speaker4. نادرست! پاسخ صحیح گوینده۴ است,1,0.3821874999994179,None,0,73,286.37308766599745,286.38652295799693,288.37290762499833,288.39604320799845,,,,,,,,,,,,,,,,,,,,,,,,,,,,,,,,,,,,,,,,,,,,,,,,,634374,001,2024-06-30_21h15.14.464,5-24,2024.1.4,None,2024-06-30 21h15.19.363816 +0900,
Images/Speaker1.jpg,Images/Speaker2.jpg,Images/Speaker3.jpg,Images/Speaker4.jpg,Audio/Speaker2_En/P2-5-En.wav,Speaker2,گوینده۲,,,,,,,,,,,,,,,,0,73,73,24,,,,,,,,,,,,,288.39604320799845,,,,,,,,,,,,,,,,,,,,,,,,,,,,,,,,,,,,,,,,,,,,,288.3739335829996,288.39604320799845,288.39604320799845,288.39604320799845,288.39604320799845,288.40522016633304,288.39604320799845,288.39604320799845,288.7067041249975,Incorrect! The correct answer is Speaker2. نادرست! پاسخ صحیح گوینده۲ است,1,0.3094915410001704,None,0,74,288.71074583299924,288.7230347909972,290.71088070800033,,,,,,,,,,,,,,,,,,,,,,,,,,,,,,,,,,,,,,,,,,,,,,,,,,634374,001,2024-06-30_21h15.14.464,5-24,2024.1.4,None,2024-06-30 21h15.19.363816 +0900,
Images/Speaker1.jpg,Images/Speaker2.jpg,Images/Speaker3.jpg,Images/Speaker4.jpg,Audio/Speaker2_En/P2-13-En.wav,Speaker2,گوینده۲,,,,,,,,,,,,,,,,0,74,74,32,,,,,,,,,,,,,290.73395295799855,,,,,,,,,,,,,,,,,,,,,,,,,,,,,,,,,,,,,,,,,,,,,290.7115562910003,290.73395295799855,290.73395295799855,290.73395295799855,290.73395295799855,290.7440749163329,290.73395295799855,290.73395295799855,291.16540349999923,Incorrect! The correct answer is Speaker2. نادرست! پاسخ صحیح گوینده۲ است,1,0.42858412499845144,None,0,75,291.16938645799746,291.18201754099937,293.1647512499985,293.18674404099875,,,,,,,,,,,,,,,,,,,,,,,,,,,,,,,,,,,,,,,,,,,,,,,,,634374,001,2024-06-30_21h15.14.464,5-24,2024.1.4,None,2024-06-30 21h15.19.363816 +0900,
Images/Speaker1.jpg,Images/Speaker2.jpg,Images/Speaker3.jpg,Images/Speaker4.jpg,Audio/Speaker1_En/P1-15-En.wav,Speaker1,گوینده ۱,,,,,,,,,,,,,,,,0,75,75,14,,,,,,,,,,,,,293.18674404099875,,,,,,,,,,,,,,,,,,,,,,,,,,,,,,,,,,,,,,,,,,,,,293.1649145829979,293.18674404099875,293.18674404099875,293.18674404099875,293.18674404099875,293.1810868746654,293.18674404099875,293.18674404099875,293.5181005409977,Correct! صحیح است,1,0.3207599580018723,None,0,76,293.52204329099914,293.53329816599944,295.5266622499985,,,,,,,,,,,,,,,,,,,,,,,,,,,,,,,,,,,,,,,,,,,,,,,,,,634374,001,2024-06-30_21h15.14.464,5-24,2024.1.4,None,2024-06-30 21h15.19.363816 +0900,
Images/Speaker1.jpg,Images/Speaker2.jpg,Images/Speaker3.jpg,Images/Speaker4.jpg,Audio/Speaker4_En/P4-11-En.wav,Speaker4,گوینده۴,,,,,,,,,,,,,,,,0,76,76,70,,,,,,,,,,,,,295.54812916599985,,,,,,,,,,,,,,,,,,,,,,,,,,,,,,,,,,,,,,,,,,,,,295.5268299999989,295.54812916599985,295.54812916599985,295.54812916599985,295.54812916599985,295.5432959576649,295.54812916599985,295.54812916599985,295.90920883299987,Incorrect! The correct answer is Speaker4. نادرست! پاسخ صحیح گوینده۴ است,1,0.35683508300280664,None,0,77,295.91297912499795,295.92585016599696,297.91044662499917,297.93148262499744,,,,,,,,,,,,,,,,,,,,,,,,,,,,,,,,,,,,,,,,,,,,,,,,,634374,001,2024-06-30_21h15.14.464,5-24,2024.1.4,None,2024-06-30 21h15.19.363816 +0900,
Images/Speaker1.jpg,Images/Speaker2.jpg,Images/Speaker3.jpg,Images/Speaker4.jpg,Audio/Speaker1_En/P1-18-En.wav,Speaker1,گوینده ۱,,,,,,,,,,,,,,,,0,77,77,17,,,,,,,,,,,,,297.93148262499744,,,,,,,,,,,,,,,,,,,,,,,,,,,,,,,,,,,,,,,,,,,,,297.9106140829972,297.93148262499744,297.93148262499744,297.93148262499744,297.93148262499744,297.92691324966677,297.93148262499744,297.93148262499744,298.2184775409987,Correct! صحیح است,1,0.28490237499863724,None,0,78,298.2223781249995,298.23417208299725,300.2206672079992,300.24461662499743,,,,,,,,,,,,,,,,,,,,,,,,,,,,,,,,,,,,,,,,,,,,,,,,,634374,001,2024-06-30_21h15.14.464,5-24,2024.1.4,None,2024-06-30 21h15.19.363816 +0900,
Images/Speaker1.jpg,Images/Speaker2.jpg,Images/Speaker3.jpg,Images/Speaker4.jpg,Audio/Speaker3_En/P3-5-En.wav,Speaker3,گوینده۳,,,,,,,,,,,,,,,,0,78,78,44,,,,,,,,,,,,,300.24461662499743,,,,,,,,,,,,,,,,,,,,,,,,,,,,,,,,,,,,,,,,,,,,,300.22135462499864,300.24461662499743,300.24461662499743,300.24461662499743,300.24461662499743,300.2529777083332,300.24461662499743,300.24461662499743,301.29402229100015,Incorrect! The correct answer is Speaker3. نادرست! پاسخ صحیح گوینده۳ است,1,1.0405075829985435,None,0,79,301.2980304579978,301.3111575829971,303.30515699999887,,,,,,,,,,,,,,,,,,,,,,,,,,,,,,,,,,,,,,,,,,,,,,,,,,634374,001,2024-06-30_21h15.14.464,5-24,2024.1.4,None,2024-06-30 21h15.19.363816 +0900,
Images/Speaker1.jpg,Images/Speaker2.jpg,Images/Speaker3.jpg,Images/Speaker4.jpg,Audio/Speaker4_En/P4-8-En.wav,Speaker4,گوینده۴,,,,,,,,,,,,,,,,0,79,79,67,,,,,,,,,,,,,303.33049287500035,,,,,,,,,,,,,,,,,,,,,,,,,,,,,,,,,,,,,,,,,,,,,303.30579320799734,303.33049287500035,303.33049287500035,303.33049287500035,303.33049287500035,303.33831112433154,303.33049287500035,303.33049287500035,304.7319744999986,Incorrect! The correct answer is Speaker4. نادرست! پاسخ صحیح گوینده۴ است,1,1.4004838340006245,None,0,80,304.735857165997,304.7493377079991,306.7354877910002,306.7388297079997,,,,,,,,,,,,,,,,,,,,,,,,,,,,,,,,,,,,,,,,,,,,,,,,,634374,001,2024-06-30_21h15.14.464,5-24,2024.1.4,None,2024-06-30 21h15.19.363816 +0900,
,,,,,,,,,,,,,,,,,,,,,,,,,,,,,,,,,,,,,,,,,,,,,,,,,,,,,,,,,,,,,,,,,,,,,,,,,,,,,,,,,,,,,,,,,,,,,,,,,,,,,,306.735527290999,0,0,0.0,False,306.735694832998,,,,,,,,,,,,,,,,,,,,,,,,,,,,,,,,,,,,,,,,,,,634374,001,2024-06-30_21h15.14.464,5-24,2024.1.4,None,2024-06-30 21h15.19.363816 +0900,
,,,,,,,,,,,,,,,,,,,,,,,,,,,,,,,,,,,,,,,,,,,,,,,,,,,,,,,,,,,,,,,,,,,,,,,,,,,,,,,,,,,,,,,,,,,,,,,,,,,,,,,,,,,,306.73570633299823,306.7388297079997,313.5105282909972,311.73150424999767,,,,,,,,,,,,,,,,,,,,,,,,,,,,,,,,,,,,,,,634374,001,2024-06-30_21h15.14.464,5-24,2024.1.4,None,2024-06-30 21h15.19.363816 +0900,
,,,,,,,Images/Speaker1.jpg,Images/Speaker2.jpg,Images/Speaker3.jpg,Images/Speaker4.jpg,Audio/Speaker3_Per/P3-20-Per.wav,Speaker3,گوینده۳,,,,,,,,,,,,,0,0,0,59,,,,,,,,,313.5105282909972,,,,,,,,,,,,,,,,,,,,,,,,,,,,,,,,,,,,,,,,,,,,,,,,,,,,,,,,,,,,,,,,,,,,,,,,,,311.7509704160002,311.7672162909985,None,No response,Images/Speaker1.jpg,Images/Speaker2.jpg,Images/Speaker3.jpg,Images/Speaker4.jpg,Audio/Speaker3_Per/P3-20-Per.wav,Speaker4,گوینده۴,,,,,,,,,,,,,,,,,,,,,,,,,,,,634374,001,2024-06-30_21h15.14.464,5-24,2024.1.4,None,2024-06-30 21h15.19.363816 +0900,
,,,,,,,Images/Speaker1.jpg,Images/Speaker2.jpg,Images/Speaker3.jpg,Images/Speaker4.jpg,Audio/Speaker4_Per/P4-3-Per.wav,Speaker4,گوینده۴,,,,,,,,,,,,,0,1,1,62,,,,,,,,,313.5105282909972,,,,,,,,,,,,,,,,,,,,,,,,,,,,,,,,,,,,,,,,,,,,,,,,,,,,,,,,,,,,,,,,,,,,,,,,,,311.76752320800006,311.7800496659984,None,No response,Images/Speaker1.jpg,Images/Speaker2.jpg,Images/Speaker3.jpg,Images/Speaker4.jpg,Audio/Speaker4_Per/P4-3-Per.wav,Speaker4,گوینده۴,,,,,,,,,,,,,,,,,,,,,,,,,,,,634374,001,2024-06-30_21h15.14.464,5-24,2024.1.4,None,2024-06-30 21h15.19.363816 +0900,
,,,,,,,Images/Speaker1.jpg,Images/Speaker2.jpg,Images/Speaker3.jpg,Images/Speaker4.jpg,Audio/Speaker3_Per/P3-19-Per.wav,Speaker3,گوینده۳,,,,,,,,,,,,,0,2,2,58,,,,,,,,,313.5105282909972,,,,,,,,,,,,,,,,,,,,,,,,,,,,,,,,,,,,,,,,,,,,,,,,,,,,,,,,,,,,,,,,,,,,,,,,,,311.78023499999836,311.79307879099724,None,No response,Images/Speaker1.jpg,Images/Speaker2.jpg,Images/Speaker3.jpg,Images/Speaker4.jpg,Audio/Speaker3_Per/P3-19-Per.wav,Speaker4,گوینده۴,,,,,,,,,,,,,,,,,,,,,,,,,,,,634374,001,2024-06-30_21h15.14.464,5-24,2024.1.4,None,2024-06-30 21h15.19.363816 +0900,
,,,,,,,Images/Speaker1.jpg,Images/Speaker2.jpg,Images/Speaker3.jpg,Images/Speaker4.jpg,Audio/Speaker3_Per/P3-18-Per.wav,Speaker3,گوینده۳,,,,,,,,,,,,,0,3,3,57,,,,,,,,,313.5105282909972,,,,,,,,,,,,,,,,,,,,,,,,,,,,,,,,,,,,,,,,,,,,,,,,,,,,,,,,,,,,,,,,,,,,,,,,,,311.79326029099684,311.8050016249981,None,No response,Images/Speaker1.jpg,Images/Speaker2.jpg,Images/Speaker3.jpg,Images/Speaker4.jpg,Audio/Speaker3_Per/P3-18-Per.wav,Speaker4,گوینده۴,,,,,,,,,,,,,,,,,,,,,,,,,,,,634374,001,2024-06-30_21h15.14.464,5-24,2024.1.4,None,2024-06-30 21h15.19.363816 +0900,
,,,,,,,Images/Speaker1.jpg,Images/Speaker2.jpg,Images/Speaker3.jpg,Images/Speaker4.jpg,Audio/Speaker4_Per/P4-19-Per.wav,Speaker4,گوینده۴,,,,,,,,,,,,,0,4,4,78,,,,,,,,,313.5105282909972,,,,,,,,,,,,,,,,,,,,,,,,,,,,,,,,,,,,,,,,,,,,,,,,,,,,,,,,,,,,,,,,,,,,,,,,,,311.8051702499979,311.81724870799735,None,No response,Images/Speaker1.jpg,Images/Speaker2.jpg,Images/Speaker3.jpg,Images/Speaker4.jpg,Audio/Speaker4_Per/P4-19-Per.wav,Speaker4,گوینده۴,,,,,,,,,,,,,,,,,,,,,,,,,,,,634374,001,2024-06-30_21h15.14.464,5-24,2024.1.4,None,2024-06-30 21h15.19.363816 +0900,
,,,,,,,Images/Speaker1.jpg,Images/Speaker2.jpg,Images/Speaker3.jpg,Images/Speaker4.jpg,Audio/Speaker3_Per/P3-4-Per.wav,Speaker3,گوینده۳,,,,,,,,,,,,,0,5,5,43,,,,,,,,,313.5105282909972,,,,,,,,,,,,,,,,,,,,,,,,,,,,,,,,,,,,,,,,,,,,,,,,,,,,,,,,,,,,,,,,,,,,,,,,,,311.81741883299765,311.8291710409976,None,No response,Images/Speaker1.jpg,Images/Speaker2.jpg,Images/Speaker3.jpg,Images/Speaker4.jpg,Audio/Speaker3_Per/P3-4-Per.wav,Speaker4,گوینده۴,,,,,,,,,,,,,,,,,,,,,,,,,,,,634374,001,2024-06-30_21h15.14.464,5-24,2024.1.4,None,2024-06-30 21h15.19.363816 +0900,
,,,,,,,Images/Speaker1.jpg,Images/Speaker2.jpg,Images/Speaker3.jpg,Images/Speaker4.jpg,Audio/Speaker2_Per/P2-13-Per.wav,Speaker2,گوینده۲,,,,,,,,,,,,,0,6,6,32,,,,,,,,,313.5105282909972,,,,,,,,,,,,,,,,,,,,,,,,,,,,,,,,,,,,,,,,,,,,,,,,,,,,,,,,,,,,,,,,,,,,,,,,,,311.82933333300025,311.8405305829983,None,No response,Images/Speaker1.jpg,Images/Speaker2.jpg,Images/Speaker3.jpg,Images/Speaker4.jpg,Audio/Speaker2_Per/P2-13-Per.wav,Speaker4,گوینده۴,,,,,,,,,,,,,,,,,,,,,,,,,,,,634374,001,2024-06-30_21h15.14.464,5-24,2024.1.4,None,2024-06-30 21h15.19.363816 +0900,
,,,,,,,Images/Speaker1.jpg,Images/Speaker2.jpg,Images/Speaker3.jpg,Images/Speaker4.jpg,Audio/Speaker2_Per/P2-3-Per.wav,Speaker2,گوینده۲,,,,,,,,,,,,,0,7,7,22,,,,,,,,,313.5105282909972,,,,,,,,,,,,,,,,,,,,,,,,,,,,,,,,,,,,,,,,,,,,,,,,,,,,,,,,,,,,,,,,,,,,,,,,,,311.8406815829985,311.85104783299903,None,No response,Images/Speaker1.jpg,Images/Speaker2.jpg,Images/Speaker3.jpg,Images/Speaker4.jpg,Audio/Speaker2_Per/P2-3-Per.wav,Speaker4,گوینده۴,,,,,,,,,,,,,,,,,,,,,,,,,,,,634374,001,2024-06-30_21h15.14.464,5-24,2024.1.4,None,2024-06-30 21h15.19.363816 +0900,
,,,,,,,Images/Speaker1.jpg,Images/Speaker2.jpg,Images/Speaker3.jpg,Images/Speaker4.jpg,Audio/Speaker1_Per/P1-4-Per.wav,Speaker1,گوینده ۱,,,,,,,,,,,,,0,8,8,3,,,,,,,,,313.5105282909972,,,,,,,,,,,,,,,,,,,,,,,,,,,,,,,,,,,,,,,,,,,,,,,,,,,,,,,,,,,,,,,,,,,,,,,,,,311.8511907909997,311.8622057499997,None,No response,Images/Speaker1.jpg,Images/Speaker2.jpg,Images/Speaker3.jpg,Images/Speaker4.jpg,Audio/Speaker1_Per/P1-4-Per.wav,Speaker4,گوینده۴,,,,,,,,,,,,,,,,,,,,,,,,,,,,634374,001,2024-06-30_21h15.14.464,5-24,2024.1.4,None,2024-06-30 21h15.19.363816 +0900,
,,,,,,,Images/Speaker1.jpg,Images/Speaker2.jpg,Images/Speaker3.jpg,Images/Speaker4.jpg,Audio/Speaker1_Per/P1-10-Per.wav,Speaker1,گوینده ۱,,,,,,,,,,,,,0,9,9,9,,,,,,,,,313.5105282909972,,,,,,,,,,,,,,,,,,,,,,,,,,,,,,,,,,,,,,,,,,,,,,,,,,,,,,,,,,,,,,,,,,,,,,,,,,311.86235129099805,311.8738917499977,None,No response,Images/Speaker1.jpg,Images/Speaker2.jpg,Images/Speaker3.jpg,Images/Speaker4.jpg,Audio/Speaker1_Per/P1-10-Per.wav,Speaker4,گوینده۴,,,,,,,,,,,,,,,,,,,,,,,,,,,,634374,001,2024-06-30_21h15.14.464,5-24,2024.1.4,None,2024-06-30 21h15.19.363816 +0900,
,,,,,,,Images/Speaker1.jpg,Images/Speaker2.jpg,Images/Speaker3.jpg,Images/Speaker4.jpg,Audio/Speaker1_Per/P1-5-Per.wav,Speaker1,گوینده ۱,,,,,,,,,,,,,0,10,10,4,,,,,,,,,313.5105282909972,,,,,,,,,,,,,,,,,,,,,,,,,,,,,,,,,,,,,,,,,,,,,,,,,,,,,,,,,,,,,,,,,,,,,,,,,,311.87403691599684,311.884864165997,None,No response,Images/Speaker1.jpg,Images/Speaker2.jpg,Images/Speaker3.jpg,Images/Speaker4.jpg,Audio/Speaker1_Per/P1-5-Per.wav,Speaker4,گوینده۴,,,,,,,,,,,,,,,,,,,,,,,,,,,,634374,001,2024-06-30_21h15.14.464,5-24,2024.1.4,None,2024-06-30 21h15.19.363816 +0900,
,,,,,,,Images/Speaker1.jpg,Images/Speaker2.jpg,Images/Speaker3.jpg,Images/Speaker4.jpg,Audio/Speaker2_Per/P2-12-Per.wav,Speaker2,گوینده۲,,,,,,,,,,,,,0,11,11,31,,,,,,,,,313.5105282909972,,,,,,,,,,,,,,,,,,,,,,,,,,,,,,,,,,,,,,,,,,,,,,,,,,,,,,,,,,,,,,,,,,,,,,,,,,311.8850125829995,311.8956575409975,None,No response,Images/Speaker1.jpg,Images/Speaker2.jpg,Images/Speaker3.jpg,Images/Speaker4.jpg,Audio/Speaker2_Per/P2-12-Per.wav,Speaker4,گوینده۴,,,,,,,,,,,,,,,,,,,,,,,,,,,,634374,001,2024-06-30_21h15.14.464,5-24,2024.1.4,None,2024-06-30 21h15.19.363816 +0900,
,,,,,,,Images/Speaker1.jpg,Images/Speaker2.jpg,Images/Speaker3.jpg,Images/Speaker4.jpg,Audio/Speaker1_Per/P1-15-Per.wav,Speaker1,گوینده ۱,,,,,,,,,,,,,0,12,12,14,,,,,,,,,313.5105282909972,,,,,,,,,,,,,,,,,,,,,,,,,,,,,,,,,,,,,,,,,,,,,,,,,,,,,,,,,,,,,,,,,,,,,,,,,,311.89581633299895,311.90677745799985,None,No response,Images/Speaker1.jpg,Images/Speaker2.jpg,Images/Speaker3.jpg,Images/Speaker4.jpg,Audio/Speaker1_Per/P1-15-Per.wav,Speaker4,گوینده۴,,,,,,,,,,,,,,,,,,,,,,,,,,,,634374,001,2024-06-30_21h15.14.464,5-24,2024.1.4,None,2024-06-30 21h15.19.363816 +0900,
,,,,,,,Images/Speaker1.jpg,Images/Speaker2.jpg,Images/Speaker3.jpg,Images/Speaker4.jpg,Audio/Speaker1_Per/P1-2-Per.wav,Speaker1,گوینده ۱,,,,,,,,,,,,,0,13,13,1,,,,,,,,,313.5105282909972,,,,,,,,,,,,,,,,,,,,,,,,,,,,,,,,,,,,,,,,,,,,,,,,,,,,,,,,,,,,,,,,,,,,,,,,,,311.9069288749997,311.9177263329984,None,No response,Images/Speaker1.jpg,Images/Speaker2.jpg,Images/Speaker3.jpg,Images/Speaker4.jpg,Audio/Speaker1_Per/P1-2-Per.wav,Speaker4,گوینده۴,,,,,,,,,,,,,,,,,,,,,,,,,,,,634374,001,2024-06-30_21h15.14.464,5-24,2024.1.4,None,2024-06-30 21h15.19.363816 +0900,
,,,,,,,Images/Speaker1.jpg,Images/Speaker2.jpg,Images/Speaker3.jpg,Images/Speaker4.jpg,Audio/Speaker3_Per/P3-17-Per.wav,Speaker3,گوینده۳,,,,,,,,,,,,,0,14,14,56,,,,,,,,,313.5105282909972,,,,,,,,,,,,,,,,,,,,,,,,,,,,,,,,,,,,,,,,,,,,,,,,,,,,,,,,,,,,,,,,,,,,,,,,,,311.9178775829969,311.92816008299997,None,No response,Images/Speaker1.jpg,Images/Speaker2.jpg,Images/Speaker3.jpg,Images/Speaker4.jpg,Audio/Speaker3_Per/P3-17-Per.wav,Speaker4,گوینده۴,,,,,,,,,,,,,,,,,,,,,,,,,,,,634374,001,2024-06-30_21h15.14.464,5-24,2024.1.4,None,2024-06-30 21h15.19.363816 +0900,
,,,,,,,Images/Speaker1.jpg,Images/Speaker2.jpg,Images/Speaker3.jpg,Images/Speaker4.jpg,Audio/Speaker3_Per/P3-1-Per.wav,Speaker3,گوینده۳,,,,,,,,,,,,,0,15,15,40,,,,,,,,,313.5105282909972,,,,,,,,,,,,,,,,,,,,,,,,,,,,,,,,,,,,,,,,,,,,,,,,,,,,,,,,,,,,,,,,,,,,,,,,,,311.928303875,311.9388326659973,None,No response,Images/Speaker1.jpg,Images/Speaker2.jpg,Images/Speaker3.jpg,Images/Speaker4.jpg,Audio/Speaker3_Per/P3-1-Per.wav,Speaker4,گوینده۴,,,,,,,,,,,,,,,,,,,,,,,,,,,,634374,001,2024-06-30_21h15.14.464,5-24,2024.1.4,None,2024-06-30 21h15.19.363816 +0900,
,,,,,,,Images/Speaker1.jpg,Images/Speaker2.jpg,Images/Speaker3.jpg,Images/Speaker4.jpg,Audio/Speaker2_Per/P2-17-Per.wav,Speaker2,گوینده۲,,,,,,,,,,,,,0,16,16,36,,,,,,,,,313.5105282909972,,,,,,,,,,,,,,,,,,,,,,,,,,,,,,,,,,,,,,,,,,,,,,,,,,,,,,,,,,,,,,,,,,,,,,,,,,311.93897520799874,311.9489165829982,None,No response,Images/Speaker1.jpg,Images/Speaker2.jpg,Images/Speaker3.jpg,Images/Speaker4.jpg,Audio/Speaker2_Per/P2-17-Per.wav,Speaker4,گوینده۴,,,,,,,,,,,,,,,,,,,,,,,,,,,,634374,001,2024-06-30_21h15.14.464,5-24,2024.1.4,None,2024-06-30 21h15.19.363816 +0900,
,,,,,,,Images/Speaker1.jpg,Images/Speaker2.jpg,Images/Speaker3.jpg,Images/Speaker4.jpg,Audio/Speaker2_Per/P2-8-Per.wav,Speaker2,گوینده۲,,,,,,,,,,,,,0,17,17,27,,,,,,,,,313.5105282909972,,,,,,,,,,,,,,,,,,,,,,,,,,,,,,,,,,,,,,,,,,,,,,,,,,,,,,,,,,,,,,,,,,,,,,,,,,311.9490632499983,311.95960108299914,None,No response,Images/Speaker1.jpg,Images/Speaker2.jpg,Images/Speaker3.jpg,Images/Speaker4.jpg,Audio/Speaker2_Per/P2-8-Per.wav,Speaker4,گوینده۴,,,,,,,,,,,,,,,,,,,,,,,,,,,,634374,001,2024-06-30_21h15.14.464,5-24,2024.1.4,None,2024-06-30 21h15.19.363816 +0900,
,,,,,,,Images/Speaker1.jpg,Images/Speaker2.jpg,Images/Speaker3.jpg,Images/Speaker4.jpg,Audio/Speaker4_Per/P4-9-Per.wav,Speaker4,گوینده۴,,,,,,,,,,,,,0,18,18,68,,,,,,,,,313.5105282909972,,,,,,,,,,,,,,,,,,,,,,,,,,,,,,,,,,,,,,,,,,,,,,,,,,,,,,,,,,,,,,,,,,,,,,,,,,311.959749499998,311.97012062499925,None,No response,Images/Speaker1.jpg,Images/Speaker2.jpg,Images/Speaker3.jpg,Images/Speaker4.jpg,Audio/Speaker4_Per/P4-9-Per.wav,Speaker4,گوینده۴,,,,,,,,,,,,,,,,,,,,,,,,,,,,634374,001,2024-06-30_21h15.14.464,5-24,2024.1.4,None,2024-06-30 21h15.19.363816 +0900,
,,,,,,,Images/Speaker1.jpg,Images/Speaker2.jpg,Images/Speaker3.jpg,Images/Speaker4.jpg,Audio/Speaker2_Per/P2-1-Per.wav,Speaker2,گوینده۲,,,,,,,,,,,,,0,19,19,20,,,,,,,,,313.5105282909972,,,,,,,,,,,,,,,,,,,,,,,,,,,,,,,,,,,,,,,,,,,,,,,,,,,,,,,,,,,,,,,,,,,,,,,,,,311.97026129099686,311.98059937499784,None,No response,Images/Speaker1.jpg,Images/Speaker2.jpg,Images/Speaker3.jpg,Images/Speaker4.jpg,Audio/Speaker2_Per/P2-1-Per.wav,Speaker4,گوینده۴,,,,,,,,,,,,,,,,,,,,,,,,,,,,634374,001,2024-06-30_21h15.14.464,5-24,2024.1.4,None,2024-06-30 21h15.19.363816 +0900,
,,,,,,,Images/Speaker1.jpg,Images/Speaker2.jpg,Images/Speaker3.jpg,Images/Speaker4.jpg,Audio/Speaker3_Per/P3-7-Per.wav,Speaker3,گوینده۳,,,,,,,,,,,,,0,20,20,46,,,,,,,,,313.5105282909972,,,,,,,,,,,,,,,,,,,,,,,,,,,,,,,,,,,,,,,,,,,,,,,,,,,,,,,,,,,,,,,,,,,,,,,,,,311.9807511250001,311.99107662499955,None,No response,Images/Speaker1.jpg,Images/Speaker2.jpg,Images/Speaker3.jpg,Images/Speaker4.jpg,Audio/Speaker3_Per/P3-7-Per.wav,Speaker4,گوینده۴,,,,,,,,,,,,,,,,,,,,,,,,,,,,634374,001,2024-06-30_21h15.14.464,5-24,2024.1.4,None,2024-06-30 21h15.19.363816 +0900,
,,,,,,,Images/Speaker1.jpg,Images/Speaker2.jpg,Images/Speaker3.jpg,Images/Speaker4.jpg,Audio/Speaker4_Per/P4-15-Per.wav,Speaker4,گوینده۴,,,,,,,,,,,,,0,21,21,74,,,,,,,,,313.5105282909972,,,,,,,,,,,,,,,,,,,,,,,,,,,,,,,,,,,,,,,,,,,,,,,,,,,,,,,,,,,,,,,,,,,,,,,,,,311.9912174579986,312.00184516599984,None,No response,Images/Speaker1.jpg,Images/Speaker2.jpg,Images/Speaker3.jpg,Images/Speaker4.jpg,Audio/Speaker4_Per/P4-15-Per.wav,Speaker4,گوینده۴,,,,,,,,,,,,,,,,,,,,,,,,,,,,634374,001,2024-06-30_21h15.14.464,5-24,2024.1.4,None,2024-06-30 21h15.19.363816 +0900,
,,,,,,,Images/Speaker1.jpg,Images/Speaker2.jpg,Images/Speaker3.jpg,Images/Speaker4.jpg,Audio/Speaker2_Per/P2-15-Per.wav,Speaker2,گوینده۲,,,,,,,,,,,,,0,22,22,34,,,,,,,,,313.5105282909972,,,,,,,,,,,,,,,,,,,,,,,,,,,,,,,,,,,,,,,,,,,,,,,,,,,,,,,,,,,,,,,,,,,,,,,,,,312.0020057909969,312.0128056659996,None,No response,Images/Speaker1.jpg,Images/Speaker2.jpg,Images/Speaker3.jpg,Images/Speaker4.jpg,Audio/Speaker2_Per/P2-15-Per.wav,Speaker4,گوینده۴,,,,,,,,,,,,,,,,,,,,,,,,,,,,634374,001,2024-06-30_21h15.14.464,5-24,2024.1.4,None,2024-06-30 21h15.19.363816 +0900,
,,,,,,,Images/Speaker1.jpg,Images/Speaker2.jpg,Images/Speaker3.jpg,Images/Speaker4.jpg,Audio/Speaker4_Per/P4-6-Per.wav,Speaker4,گوینده۴,,,,,,,,,,,,,0,23,23,65,,,,,,,,,313.5105282909972,,,,,,,,,,,,,,,,,,,,,,,,,,,,,,,,,,,,,,,,,,,,,,,,,,,,,,,,,,,,,,,,,,,,,,,,,,312.0129584999995,312.0234813329989,None,No response,Images/Speaker1.jpg,Images/Speaker2.jpg,Images/Speaker3.jpg,Images/Speaker4.jpg,Audio/Speaker4_Per/P4-6-Per.wav,Speaker4,گوینده۴,,,,,,,,,,,,,,,,,,,,,,,,,,,,634374,001,2024-06-30_21h15.14.464,5-24,2024.1.4,None,2024-06-30 21h15.19.363816 +0900,
,,,,,,,Images/Speaker1.jpg,Images/Speaker2.jpg,Images/Speaker3.jpg,Images/Speaker4.jpg,Audio/Speaker4_Per/P4-12-Per.wav,Speaker4,گوینده۴,,,,,,,,,,,,,0,24,24,71,,,,,,,,,313.5105282909972,,,,,,,,,,,,,,,,,,,,,,,,,,,,,,,,,,,,,,,,,,,,,,,,,,,,,,,,,,,,,,,,,,,,,,,,,,312.02362020799774,312.0341825409996,None,No response,Images/Speaker1.jpg,Images/Speaker2.jpg,Images/Speaker3.jpg,Images/Speaker4.jpg,Audio/Speaker4_Per/P4-12-Per.wav,Speaker4,گوینده۴,,,,,,,,,,,,,,,,,,,,,,,,,,,,634374,001,2024-06-30_21h15.14.464,5-24,2024.1.4,None,2024-06-30 21h15.19.363816 +0900,
,,,,,,,Images/Speaker1.jpg,Images/Speaker2.jpg,Images/Speaker3.jpg,Images/Speaker4.jpg,Audio/Speaker2_Per/P2-2-Per.wav,Speaker2,گوینده۲,,,,,,,,,,,,,0,25,25,21,,,,,,,,,313.5105282909972,,,,,,,,,,,,,,,,,,,,,,,,,,,,,,,,,,,,,,,,,,,,,,,,,,,,,,,,,,,,,,,,,,,,,,,,,,312.034328791,312.04495358299755,None,No response,Images/Speaker1.jpg,Images/Speaker2.jpg,Images/Speaker3.jpg,Images/Speaker4.jpg,Audio/Speaker2_Per/P2-2-Per.wav,Speaker4,گوینده۴,,,,,,,,,,,,,,,,,,,,,,,,,,,,634374,001,2024-06-30_21h15.14.464,5-24,2024.1.4,None,2024-06-30 21h15.19.363816 +0900,
,,,,,,,Images/Speaker1.jpg,Images/Speaker2.jpg,Images/Speaker3.jpg,Images/Speaker4.jpg,Audio/Speaker1_Per/P1-11-Per.wav,Speaker1,گوینده ۱,,,,,,,,,,,,,0,26,26,10,,,,,,,,,313.5105282909972,,,,,,,,,,,,,,,,,,,,,,,,,,,,,,,,,,,,,,,,,,,,,,,,,,,,,,,,,,,,,,,,,,,,,,,,,,312.0450989159981,312.0559509159975,None,No response,Images/Speaker1.jpg,Images/Speaker2.jpg,Images/Speaker3.jpg,Images/Speaker4.jpg,Audio/Speaker1_Per/P1-11-Per.wav,Speaker4,گوینده۴,,,,,,,,,,,,,,,,,,,,,,,,,,,,634374,001,2024-06-30_21h15.14.464,5-24,2024.1.4,None,2024-06-30 21h15.19.363816 +0900,
,,,,,,,Images/Speaker1.jpg,Images/Speaker2.jpg,Images/Speaker3.jpg,Images/Speaker4.jpg,Audio/Speaker2_Per/P2-5-Per.wav,Speaker2,گوینده۲,,,,,,,,,,,,,0,27,27,24,,,,,,,,,313.5105282909972,,,,,,,,,,,,,,,,,,,,,,,,,,,,,,,,,,,,,,,,,,,,,,,,,,,,,,,,,,,,,,,,,,,,,,,,,,312.0560868329994,312.0663552499973,None,No response,Images/Speaker1.jpg,Images/Speaker2.jpg,Images/Speaker3.jpg,Images/Speaker4.jpg,Audio/Speaker2_Per/P2-5-Per.wav,Speaker4,گوینده۴,,,,,,,,,,,,,,,,,,,,,,,,,,,,634374,001,2024-06-30_21h15.14.464,5-24,2024.1.4,None,2024-06-30 21h15.19.363816 +0900,
,,,,,,,Images/Speaker1.jpg,Images/Speaker2.jpg,Images/Speaker3.jpg,Images/Speaker4.jpg,Audio/Speaker2_Per/P2-4-Per.wav,Speaker2,گوینده۲,,,,,,,,,,,,,0,28,28,23,,,,,,,,,313.5105282909972,,,,,,,,,,,,,,,,,,,,,,,,,,,,,,,,,,,,,,,,,,,,,,,,,,,,,,,,,,,,,,,,,,,,,,,,,,312.0664993749997,312.0765831659992,None,No response,Images/Speaker1.jpg,Images/Speaker2.jpg,Images/Speaker3.jpg,Images/Speaker4.jpg,Audio/Speaker2_Per/P2-4-Per.wav,Speaker4,گوینده۴,,,,,,,,,,,,,,,,,,,,,,,,,,,,634374,001,2024-06-30_21h15.14.464,5-24,2024.1.4,None,2024-06-30 21h15.19.363816 +0900,
,,,,,,,Images/Speaker1.jpg,Images/Speaker2.jpg,Images/Speaker3.jpg,Images/Speaker4.jpg,Audio/Speaker1_Per/P1-13-Per.wav,Speaker1,گوینده ۱,,,,,,,,,,,,,0,29,29,12,,,,,,,,,313.5105282909972,,,,,,,,,,,,,,,,,,,,,,,,,,,,,,,,,,,,,,,,,,,,,,,,,,,,,,,,,,,,,,,,,,,,,,,,,,312.07672641599856,312.0873317080004,None,No response,Images/Speaker1.jpg,Images/Speaker2.jpg,Images/Speaker3.jpg,Images/Speaker4.jpg,Audio/Speaker1_Per/P1-13-Per.wav,Speaker4,گوینده۴,,,,,,,,,,,,,,,,,,,,,,,,,,,,634374,001,2024-06-30_21h15.14.464,5-24,2024.1.4,None,2024-06-30 21h15.19.363816 +0900,
,,,,,,,Images/Speaker1.jpg,Images/Speaker2.jpg,Images/Speaker3.jpg,Images/Speaker4.jpg,Audio/Speaker3_Per/P3-14-Per.wav,Speaker3,گوینده۳,,,,,,,,,,,,,0,30,30,53,,,,,,,,,313.5105282909972,,,,,,,,,,,,,,,,,,,,,,,,,,,,,,,,,,,,,,,,,,,,,,,,,,,,,,,,,,,,,,,,,,,,,,,,,,312.0874828749984,312.0985833329978,None,No response,Images/Speaker1.jpg,Images/Speaker2.jpg,Images/Speaker3.jpg,Images/Speaker4.jpg,Audio/Speaker3_Per/P3-14-Per.wav,Speaker4,گوینده۴,,,,,,,,,,,,,,,,,,,,,,,,,,,,634374,001,2024-06-30_21h15.14.464,5-24,2024.1.4,None,2024-06-30 21h15.19.363816 +0900,
,,,,,,,Images/Speaker1.jpg,Images/Speaker2.jpg,Images/Speaker3.jpg,Images/Speaker4.jpg,Audio/Speaker2_Per/P2-10-Per.wav,Speaker2,گوینده۲,,,,,,,,,,,,,0,31,31,29,,,,,,,,,313.5105282909972,,,,,,,,,,,,,,,,,,,,,,,,,,,,,,,,,,,,,,,,,,,,,,,,,,,,,,,,,,,,,,,,,,,,,,,,,,312.0987502909993,312.10922741600007,None,No response,Images/Speaker1.jpg,Images/Speaker2.jpg,Images/Speaker3.jpg,Images/Speaker4.jpg,Audio/Speaker2_Per/P2-10-Per.wav,Speaker4,گوینده۴,,,,,,,,,,,,,,,,,,,,,,,,,,,,634374,001,2024-06-30_21h15.14.464,5-24,2024.1.4,None,2024-06-30 21h15.19.363816 +0900,
,,,,,,,Images/Speaker1.jpg,Images/Speaker2.jpg,Images/Speaker3.jpg,Images/Speaker4.jpg,Audio/Speaker2_Per/P2-16-Per.wav,Speaker2,گوینده۲,,,,,,,,,,,,,0,32,32,35,,,,,,,,,313.5105282909972,,,,,,,,,,,,,,,,,,,,,,,,,,,,,,,,,,,,,,,,,,,,,,,,,,,,,,,,,,,,,,,,,,,,,,,,,,312.1093688330002,312.11949520800044,None,No response,Images/Speaker1.jpg,Images/Speaker2.jpg,Images/Speaker3.jpg,Images/Speaker4.jpg,Audio/Speaker2_Per/P2-16-Per.wav,Speaker4,گوینده۴,,,,,,,,,,,,,,,,,,,,,,,,,,,,634374,001,2024-06-30_21h15.14.464,5-24,2024.1.4,None,2024-06-30 21h15.19.363816 +0900,
,,,,,,,Images/Speaker1.jpg,Images/Speaker2.jpg,Images/Speaker3.jpg,Images/Speaker4.jpg,Audio/Speaker4_Per/P4-2-Per.wav,Speaker4,گوینده۴,,,,,,,,,,,,,0,33,33,61,,,,,,,,,313.5105282909972,,,,,,,,,,,,,,,,,,,,,,,,,,,,,,,,,,,,,,,,,,,,,,,,,,,,,,,,,,,,,,,,,,,,,,,,,,312.1196413329999,312.1305918750004,None,No response,Images/Speaker1.jpg,Images/Speaker2.jpg,Images/Speaker3.jpg,Images/Speaker4.jpg,Audio/Speaker4_Per/P4-2-Per.wav,Speaker4,گوینده۴,,,,,,,,,,,,,,,,,,,,,,,,,,,,634374,001,2024-06-30_21h15.14.464,5-24,2024.1.4,None,2024-06-30 21h15.19.363816 +0900,
,,,,,,,Images/Speaker1.jpg,Images/Speaker2.jpg,Images/Speaker3.jpg,Images/Speaker4.jpg,Audio/Speaker2_Per/P2-14-Per.wav,Speaker2,گوینده۲,,,,,,,,,,,,,0,34,34,33,,,,,,,,,313.5105282909972,,,,,,,,,,,,,,,,,,,,,,,,,,,,,,,,,,,,,,,,,,,,,,,,,,,,,,,,,,,,,,,,,,,,,,,,,,312.13073308299863,312.1418295000003,None,No response,Images/Speaker1.jpg,Images/Speaker2.jpg,Images/Speaker3.jpg,Images/Speaker4.jpg,Audio/Speaker2_Per/P2-14-Per.wav,Speaker4,گوینده۴,,,,,,,,,,,,,,,,,,,,,,,,,,,,634374,001,2024-06-30_21h15.14.464,5-24,2024.1.4,None,2024-06-30 21h15.19.363816 +0900,
,,,,,,,Images/Speaker1.jpg,Images/Speaker2.jpg,Images/Speaker3.jpg,Images/Speaker4.jpg,Audio/Speaker3_Per/P3-3-Per.wav,Speaker3,گوینده۳,,,,,,,,,,,,,0,35,35,42,,,,,,,,,313.5105282909972,,,,,,,,,,,,,,,,,,,,,,,,,,,,,,,,,,,,,,,,,,,,,,,,,,,,,,,,,,,,,,,,,,,,,,,,,,312.1419829160004,312.15217699999994,None,No response,Images/Speaker1.jpg,Images/Speaker2.jpg,Images/Speaker3.jpg,Images/Speaker4.jpg,Audio/Speaker3_Per/P3-3-Per.wav,Speaker4,گوینده۴,,,,,,,,,,,,,,,,,,,,,,,,,,,,634374,001,2024-06-30_21h15.14.464,5-24,2024.1.4,None,2024-06-30 21h15.19.363816 +0900,
,,,,,,,Images/Speaker1.jpg,Images/Speaker2.jpg,Images/Speaker3.jpg,Images/Speaker4.jpg,Audio/Speaker3_Per/P3-10-Per.wav,Speaker3,گوینده۳,,,,,,,,,,,,,0,36,36,49,,,,,,,,,313.5105282909972,,,,,,,,,,,,,,,,,,,,,,,,,,,,,,,,,,,,,,,,,,,,,,,,,,,,,,,,,,,,,,,,,,,,,,,,,,312.15231670799767,312.1629731659996,None,No response,Images/Speaker1.jpg,Images/Speaker2.jpg,Images/Speaker3.jpg,Images/Speaker4.jpg,Audio/Speaker3_Per/P3-10-Per.wav,Speaker4,گوینده۴,,,,,,,,,,,,,,,,,,,,,,,,,,,,634374,001,2024-06-30_21h15.14.464,5-24,2024.1.4,None,2024-06-30 21h15.19.363816 +0900,
,,,,,,,Images/Speaker1.jpg,Images/Speaker2.jpg,Images/Speaker3.jpg,Images/Speaker4.jpg,Audio/Speaker3_Per/P3-15-Per.wav,Speaker3,گوینده۳,,,,,,,,,,,,,0,37,37,54,,,,,,,,,313.5105282909972,,,,,,,,,,,,,,,,,,,,,,,,,,,,,,,,,,,,,,,,,,,,,,,,,,,,,,,,,,,,,,,,,,,,,,,,,,312.16311570799735,312.1739700830003,None,No response,Images/Speaker1.jpg,Images/Speaker2.jpg,Images/Speaker3.jpg,Images/Speaker4.jpg,Audio/Speaker3_Per/P3-15-Per.wav,Speaker4,گوینده۴,,,,,,,,,,,,,,,,,,,,,,,,,,,,634374,001,2024-06-30_21h15.14.464,5-24,2024.1.4,None,2024-06-30 21h15.19.363816 +0900,
,,,,,,,Images/Speaker1.jpg,Images/Speaker2.jpg,Images/Speaker3.jpg,Images/Speaker4.jpg,Audio/Speaker4_Per/P4-20-Per.wav,Speaker4,گوینده۴,,,,,,,,,,,,,0,38,38,79,,,,,,,,,313.5105282909972,,,,,,,,,,,,,,,,,,,,,,,,,,,,,,,,,,,,,,,,,,,,,,,,,,,,,,,,,,,,,,,,,,,,,,,,,,312.1741198749987,312.1842654579996,None,No response,Images/Speaker1.jpg,Images/Speaker2.jpg,Images/Speaker3.jpg,Images/Speaker4.jpg,Audio/Speaker4_Per/P4-20-Per.wav,Speaker4,گوینده۴,,,,,,,,,,,,,,,,,,,,,,,,,,,,634374,001,2024-06-30_21h15.14.464,5-24,2024.1.4,None,2024-06-30 21h15.19.363816 +0900,
,,,,,,,Images/Speaker1.jpg,Images/Speaker2.jpg,Images/Speaker3.jpg,Images/Speaker4.jpg,Audio/Speaker1_Per/P1-16-Per.wav,Speaker1,گوینده ۱,,,,,,,,,,,,,0,39,39,15,,,,,,,,,313.5105282909972,,,,,,,,,,,,,,,,,,,,,,,,,,,,,,,,,,,,,,,,,,,,,,,,,,,,,,,,,,,,,,,,,,,,,,,,,,312.1844110409984,312.1947989580003,None,No response,Images/Speaker1.jpg,Images/Speaker2.jpg,Images/Speaker3.jpg,Images/Speaker4.jpg,Audio/Speaker1_Per/P1-16-Per.wav,Speaker4,گوینده۴,,,,,,,,,,,,,,,,,,,,,,,,,,,,634374,001,2024-06-30_21h15.14.464,5-24,2024.1.4,None,2024-06-30 21h15.19.363816 +0900,
,,,,,,,Images/Speaker1.jpg,Images/Speaker2.jpg,Images/Speaker3.jpg,Images/Speaker4.jpg,Audio/Speaker4_Per/P4-17-Per.wav,Speaker4,گوینده۴,,,,,,,,,,,,,0,40,40,76,,,,,,,,,313.5105282909972,,,,,,,,,,,,,,,,,,,,,,,,,,,,,,,,,,,,,,,,,,,,,,,,,,,,,,,,,,,,,,,,,,,,,,,,,,312.194941791,312.2049123750003,None,No response,Images/Speaker1.jpg,Images/Speaker2.jpg,Images/Speaker3.jpg,Images/Speaker4.jpg,Audio/Speaker4_Per/P4-17-Per.wav,Speaker4,گوینده۴,,,,,,,,,,,,,,,,,,,,,,,,,,,,634374,001,2024-06-30_21h15.14.464,5-24,2024.1.4,None,2024-06-30 21h15.19.363816 +0900,
,,,,,,,Images/Speaker1.jpg,Images/Speaker2.jpg,Images/Speaker3.jpg,Images/Speaker4.jpg,Audio/Speaker2_Per/P2-20-Per.wav,Speaker2,گوینده۲,,,,,,,,,,,,,0,41,41,39,,,,,,,,,313.5105282909972,,,,,,,,,,,,,,,,,,,,,,,,,,,,,,,,,,,,,,,,,,,,,,,,,,,,,,,,,,,,,,,,,,,,,,,,,,312.2050575409994,312.2150663749999,None,No response,Images/Speaker1.jpg,Images/Speaker2.jpg,Images/Speaker3.jpg,Images/Speaker4.jpg,Audio/Speaker2_Per/P2-20-Per.wav,Speaker4,گوینده۴,,,,,,,,,,,,,,,,,,,,,,,,,,,,634374,001,2024-06-30_21h15.14.464,5-24,2024.1.4,None,2024-06-30 21h15.19.363816 +0900,
,,,,,,,Images/Speaker1.jpg,Images/Speaker2.jpg,Images/Speaker3.jpg,Images/Speaker4.jpg,Audio/Speaker1_Per/P1-1-Per.wav,Speaker1,گوینده ۱,,,,,,,,,,,,,0,42,42,0,,,,,,,,,313.5105282909972,,,,,,,,,,,,,,,,,,,,,,,,,,,,,,,,,,,,,,,,,,,,,,,,,,,,,,,,,,,,,,,,,,,,,,,,,,312.21520558299744,312.22543270799724,None,No response,Images/Speaker1.jpg,Images/Speaker2.jpg,Images/Speaker3.jpg,Images/Speaker4.jpg,Audio/Speaker1_Per/P1-1-Per.wav,Speaker4,گوینده۴,,,,,,,,,,,,,,,,,,,,,,,,,,,,634374,001,2024-06-30_21h15.14.464,5-24,2024.1.4,None,2024-06-30 21h15.19.363816 +0900,
,,,,,,,Images/Speaker1.jpg,Images/Speaker2.jpg,Images/Speaker3.jpg,Images/Speaker4.jpg,Audio/Speaker2_Per/P2-7-Per.wav,Speaker2,گوینده۲,,,,,,,,,,,,,0,43,43,26,,,,,,,,,313.5105282909972,,,,,,,,,,,,,,,,,,,,,,,,,,,,,,,,,,,,,,,,,,,,,,,,,,,,,,,,,,,,,,,,,,,,,,,,,,312.2255739579996,312.2357008750005,None,No response,Images/Speaker1.jpg,Images/Speaker2.jpg,Images/Speaker3.jpg,Images/Speaker4.jpg,Audio/Speaker2_Per/P2-7-Per.wav,Speaker4,گوینده۴,,,,,,,,,,,,,,,,,,,,,,,,,,,,634374,001,2024-06-30_21h15.14.464,5-24,2024.1.4,None,2024-06-30 21h15.19.363816 +0900,
,,,,,,,Images/Speaker1.jpg,Images/Speaker2.jpg,Images/Speaker3.jpg,Images/Speaker4.jpg,Audio/Speaker2_Per/P2-19-Per.wav,Speaker2,گوینده۲,,,,,,,,,,,,,0,44,44,38,,,,,,,,,313.5105282909972,,,,,,,,,,,,,,,,,,,,,,,,,,,,,,,,,,,,,,,,,,,,,,,,,,,,,,,,,,,,,,,,,,,,,,,,,,312.235836541,312.24630712499857,None,No response,Images/Speaker1.jpg,Images/Speaker2.jpg,Images/Speaker3.jpg,Images/Speaker4.jpg,Audio/Speaker2_Per/P2-19-Per.wav,Speaker4,گوینده۴,,,,,,,,,,,,,,,,,,,,,,,,,,,,634374,001,2024-06-30_21h15.14.464,5-24,2024.1.4,None,2024-06-30 21h15.19.363816 +0900,
,,,,,,,Images/Speaker1.jpg,Images/Speaker2.jpg,Images/Speaker3.jpg,Images/Speaker4.jpg,Audio/Speaker1_Per/P1-6-Per.wav,Speaker1,گوینده ۱,,,,,,,,,,,,,0,45,45,5,,,,,,,,,313.5105282909972,,,,,,,,,,,,,,,,,,,,,,,,,,,,,,,,,,,,,,,,,,,,,,,,,,,,,,,,,,,,,,,,,,,,,,,,,,312.246448165999,312.2570157909977,None,No response,Images/Speaker1.jpg,Images/Speaker2.jpg,Images/Speaker3.jpg,Images/Speaker4.jpg,Audio/Speaker1_Per/P1-6-Per.wav,Speaker4,گوینده۴,,,,,,,,,,,,,,,,,,,,,,,,,,,,634374,001,2024-06-30_21h15.14.464,5-24,2024.1.4,None,2024-06-30 21h15.19.363816 +0900,
,,,,,,,Images/Speaker1.jpg,Images/Speaker2.jpg,Images/Speaker3.jpg,Images/Speaker4.jpg,Audio/Speaker1_Per/P1-7-Per.wav,Speaker1,گوینده ۱,,,,,,,,,,,,,0,46,46,6,,,,,,,,,313.5105282909972,,,,,,,,,,,,,,,,,,,,,,,,,,,,,,,,,,,,,,,,,,,,,,,,,,,,,,,,,,,,,,,,,,,,,,,,,,312.2571540829995,312.2672098749972,None,No response,Images/Speaker1.jpg,Images/Speaker2.jpg,Images/Speaker3.jpg,Images/Speaker4.jpg,Audio/Speaker1_Per/P1-7-Per.wav,Speaker4,گوینده۴,,,,,,,,,,,,,,,,,,,,,,,,,,,,634374,001,2024-06-30_21h15.14.464,5-24,2024.1.4,None,2024-06-30 21h15.19.363816 +0900,
,,,,,,,Images/Speaker1.jpg,Images/Speaker2.jpg,Images/Speaker3.jpg,Images/Speaker4.jpg,Audio/Speaker4_Per/P4-11-Per.wav,Speaker4,گوینده۴,,,,,,,,,,,,,0,47,47,70,,,,,,,,,313.5105282909972,,,,,,,,,,,,,,,,,,,,,,,,,,,,,,,,,,,,,,,,,,,,,,,,,,,,,,,,,,,,,,,,,,,,,,,,,,312.2673501249992,312.27774804100045,None,No response,Images/Speaker1.jpg,Images/Speaker2.jpg,Images/Speaker3.jpg,Images/Speaker4.jpg,Audio/Speaker4_Per/P4-11-Per.wav,Speaker4,گوینده۴,,,,,,,,,,,,,,,,,,,,,,,,,,,,634374,001,2024-06-30_21h15.14.464,5-24,2024.1.4,None,2024-06-30 21h15.19.363816 +0900,
,,,,,,,Images/Speaker1.jpg,Images/Speaker2.jpg,Images/Speaker3.jpg,Images/Speaker4.jpg,Audio/Speaker1_Per/P1-19-Per.wav,Speaker1,گوینده ۱,,,,,,,,,,,,,0,48,48,18,,,,,,,,,313.5105282909972,,,,,,,,,,,,,,,,,,,,,,,,,,,,,,,,,,,,,,,,,,,,,,,,,,,,,,,,,,,,,,,,,,,,,,,,,,312.2778934579983,312.2885152909985,None,No response,Images/Speaker1.jpg,Images/Speaker2.jpg,Images/Speaker3.jpg,Images/Speaker4.jpg,Audio/Speaker1_Per/P1-19-Per.wav,Speaker4,گوینده۴,,,,,,,,,,,,,,,,,,,,,,,,,,,,634374,001,2024-06-30_21h15.14.464,5-24,2024.1.4,None,2024-06-30 21h15.19.363816 +0900,
,,,,,,,Images/Speaker1.jpg,Images/Speaker2.jpg,Images/Speaker3.jpg,Images/Speaker4.jpg,Audio/Speaker1_Per/P1-12-Per.wav,Speaker1,گوینده ۱,,,,,,,,,,,,,0,49,49,11,,,,,,,,,313.5105282909972,,,,,,,,,,,,,,,,,,,,,,,,,,,,,,,,,,,,,,,,,,,,,,,,,,,,,,,,,,,,,,,,,,,,,,,,,,312.28865683299955,312.2989765829989,None,No response,Images/Speaker1.jpg,Images/Speaker2.jpg,Images/Speaker3.jpg,Images/Speaker4.jpg,Audio/Speaker1_Per/P1-12-Per.wav,Speaker4,گوینده۴,,,,,,,,,,,,,,,,,,,,,,,,,,,,634374,001,2024-06-30_21h15.14.464,5-24,2024.1.4,None,2024-06-30 21h15.19.363816 +0900,
,,,,,,,Images/Speaker1.jpg,Images/Speaker2.jpg,Images/Speaker3.jpg,Images/Speaker4.jpg,Audio/Speaker3_Per/P3-2-Per.wav,Speaker3,گوینده۳,,,,,,,,,,,,,0,50,50,41,,,,,,,,,313.5105282909972,,,,,,,,,,,,,,,,,,,,,,,,,,,,,,,,,,,,,,,,,,,,,,,,,,,,,,,,,,,,,,,,,,,,,,,,,,312.29912262499784,312.31029724999826,None,No response,Images/Speaker1.jpg,Images/Speaker2.jpg,Images/Speaker3.jpg,Images/Speaker4.jpg,Audio/Speaker3_Per/P3-2-Per.wav,Speaker4,گوینده۴,,,,,,,,,,,,,,,,,,,,,,,,,,,,634374,001,2024-06-30_21h15.14.464,5-24,2024.1.4,None,2024-06-30 21h15.19.363816 +0900,
,,,,,,,Images/Speaker1.jpg,Images/Speaker2.jpg,Images/Speaker3.jpg,Images/Speaker4.jpg,Audio/Speaker1_Per/P1-20-Per.wav,Speaker1,گوینده ۱,,,,,,,,,,,,,0,51,51,19,,,,,,,,,313.5105282909972,,,,,,,,,,,,,,,,,,,,,,,,,,,,,,,,,,,,,,,,,,,,,,,,,,,,,,,,,,,,,,,,,,,,,,,,,,312.31044112499876,312.3207517499977,None,No response,Images/Speaker1.jpg,Images/Speaker2.jpg,Images/Speaker3.jpg,Images/Speaker4.jpg,Audio/Speaker1_Per/P1-20-Per.wav,Speaker4,گوینده۴,,,,,,,,,,,,,,,,,,,,,,,,,,,,634374,001,2024-06-30_21h15.14.464,5-24,2024.1.4,None,2024-06-30 21h15.19.363816 +0900,
,,,,,,,Images/Speaker1.jpg,Images/Speaker2.jpg,Images/Speaker3.jpg,Images/Speaker4.jpg,Audio/Speaker2_Per/P2-6-Per.wav,Speaker2,گوینده۲,,,,,,,,,,,,,0,52,52,25,,,,,,,,,313.5105282909972,,,,,,,,,,,,,,,,,,,,,,,,,,,,,,,,,,,,,,,,,,,,,,,,,,,,,,,,,,,,,,,,,,,,,,,,,,312.32089395799994,312.3311486249986,None,No response,Images/Speaker1.jpg,Images/Speaker2.jpg,Images/Speaker3.jpg,Images/Speaker4.jpg,Audio/Speaker2_Per/P2-6-Per.wav,Speaker4,گوینده۴,,,,,,,,,,,,,,,,,,,,,,,,,,,,634374,001,2024-06-30_21h15.14.464,5-24,2024.1.4,None,2024-06-30 21h15.19.363816 +0900,
,,,,,,,Images/Speaker1.jpg,Images/Speaker2.jpg,Images/Speaker3.jpg,Images/Speaker4.jpg,Audio/Speaker4_Per/P4-1-Per.wav,Speaker4,گوینده۴,,,,,,,,,,,,,0,53,53,60,,,,,,,,,313.5105282909972,,,,,,,,,,,,,,,,,,,,,,,,,,,,,,,,,,,,,,,,,,,,,,,,,,,,,,,,,,,,,,,,,,,,,,,,,,312.3312923329977,312.34185745799914,None,No response,Images/Speaker1.jpg,Images/Speaker2.jpg,Images/Speaker3.jpg,Images/Speaker4.jpg,Audio/Speaker4_Per/P4-1-Per.wav,Speaker4,گوینده۴,,,,,,,,,,,,,,,,,,,,,,,,,,,,634374,001,2024-06-30_21h15.14.464,5-24,2024.1.4,None,2024-06-30 21h15.19.363816 +0900,
,,,,,,,Images/Speaker1.jpg,Images/Speaker2.jpg,Images/Speaker3.jpg,Images/Speaker4.jpg,Audio/Speaker3_Per/P3-16-Per.wav,Speaker3,گوینده۳,,,,,,,,,,,,,0,54,54,55,,,,,,,,,313.5105282909972,,,,,,,,,,,,,,,,,,,,,,,,,,,,,,,,,,,,,,,,,,,,,,,,,,,,,,,,,,,,,,,,,,,,,,,,,,312.3419981659972,312.3524312499976,None,No response,Images/Speaker1.jpg,Images/Speaker2.jpg,Images/Speaker3.jpg,Images/Speaker4.jpg,Audio/Speaker3_Per/P3-16-Per.wav,Speaker4,گوینده۴,,,,,,,,,,,,,,,,,,,,,,,,,,,,634374,001,2024-06-30_21h15.14.464,5-24,2024.1.4,None,2024-06-30 21h15.19.363816 +0900,
,,,,,,,Images/Speaker1.jpg,Images/Speaker2.jpg,Images/Speaker3.jpg,Images/Speaker4.jpg,Audio/Speaker3_Per/P3-11-Per.wav,Speaker3,گوینده۳,,,,,,,,,,,,,0,55,55,50,,,,,,,,,313.5105282909972,,,,,,,,,,,,,,,,,,,,,,,,,,,,,,,,,,,,,,,,,,,,,,,,,,,,,,,,,,,,,,,,,,,,,,,,,,312.35257595799703,312.36388870799783,None,No response,Images/Speaker1.jpg,Images/Speaker2.jpg,Images/Speaker3.jpg,Images/Speaker4.jpg,Audio/Speaker3_Per/P3-11-Per.wav,Speaker4,گوینده۴,,,,,,,,,,,,,,,,,,,,,,,,,,,,634374,001,2024-06-30_21h15.14.464,5-24,2024.1.4,None,2024-06-30 21h15.19.363816 +0900,
,,,,,,,Images/Speaker1.jpg,Images/Speaker2.jpg,Images/Speaker3.jpg,Images/Speaker4.jpg,Audio/Speaker1_Per/P1-8-Per.wav,Speaker1,گوینده ۱,,,,,,,,,,,,,0,56,56,7,,,,,,,,,313.5105282909972,,,,,,,,,,,,,,,,,,,,,,,,,,,,,,,,,,,,,,,,,,,,,,,,,,,,,,,,,,,,,,,,,,,,,,,,,,312.36402695799916,312.37447004099886,None,No response,Images/Speaker1.jpg,Images/Speaker2.jpg,Images/Speaker3.jpg,Images/Speaker4.jpg,Audio/Speaker1_Per/P1-8-Per.wav,Speaker4,گوینده۴,,,,,,,,,,,,,,,,,,,,,,,,,,,,634374,001,2024-06-30_21h15.14.464,5-24,2024.1.4,None,2024-06-30 21h15.19.363816 +0900,
,,,,,,,Images/Speaker1.jpg,Images/Speaker2.jpg,Images/Speaker3.jpg,Images/Speaker4.jpg,Audio/Speaker1_Per/P1-9-Per.wav,Speaker1,گوینده ۱,,,,,,,,,,,,,0,57,57,8,,,,,,,,,313.5105282909972,,,,,,,,,,,,,,,,,,,,,,,,,,,,,,,,,,,,,,,,,,,,,,,,,,,,,,,,,,,,,,,,,,,,,,,,,,312.374611457999,312.3852167499972,None,No response,Images/Speaker1.jpg,Images/Speaker2.jpg,Images/Speaker3.jpg,Images/Speaker4.jpg,Audio/Speaker1_Per/P1-9-Per.wav,Speaker4,گوینده۴,,,,,,,,,,,,,,,,,,,,,,,,,,,,634374,001,2024-06-30_21h15.14.464,5-24,2024.1.4,None,2024-06-30 21h15.19.363816 +0900,
,,,,,,,Images/Speaker1.jpg,Images/Speaker2.jpg,Images/Speaker3.jpg,Images/Speaker4.jpg,Audio/Speaker4_Per/P4-18-Per.wav,Speaker4,گوینده۴,,,,,,,,,,,,,0,58,58,77,,,,,,,,,313.5105282909972,,,,,,,,,,,,,,,,,,,,,,,,,,,,,,,,,,,,,,,,,,,,,,,,,,,,,,,,,,,,,,,,,,,,,,,,,,312.3853678329979,312.3953992079987,None,No response,Images/Speaker1.jpg,Images/Speaker2.jpg,Images/Speaker3.jpg,Images/Speaker4.jpg,Audio/Speaker4_Per/P4-18-Per.wav,Speaker4,گوینده۴,,,,,,,,,,,,,,,,,,,,,,,,,,,,634374,001,2024-06-30_21h15.14.464,5-24,2024.1.4,None,2024-06-30 21h15.19.363816 +0900,
,,,,,,,Images/Speaker1.jpg,Images/Speaker2.jpg,Images/Speaker3.jpg,Images/Speaker4.jpg,Audio/Speaker4_Per/P4-4-Per.wav,Speaker4,گوینده۴,,,,,,,,,,,,,0,59,59,63,,,,,,,,,313.5105282909972,,,,,,,,,,,,,,,,,,,,,,,,,,,,,,,,,,,,,,,,,,,,,,,,,,,,,,,,,,,,,,,,,,,,,,,,,,312.3955344999995,312.40620429099727,None,No response,Images/Speaker1.jpg,Images/Speaker2.jpg,Images/Speaker3.jpg,Images/Speaker4.jpg,Audio/Speaker4_Per/P4-4-Per.wav,Speaker4,گوینده۴,,,,,,,,,,,,,,,,,,,,,,,,,,,,634374,001,2024-06-30_21h15.14.464,5-24,2024.1.4,None,2024-06-30 21h15.19.363816 +0900,
,,,,,,,Images/Speaker1.jpg,Images/Speaker2.jpg,Images/Speaker3.jpg,Images/Speaker4.jpg,Audio/Speaker3_Per/P3-12-Per.wav,Speaker3,گوینده۳,,,,,,,,,,,,,0,60,60,51,,,,,,,,,313.5105282909972,,,,,,,,,,,,,,,,,,,,,,,,,,,,,,,,,,,,,,,,,,,,,,,,,,,,,,,,,,,,,,,,,,,,,,,,,,312.4063627079995,312.41650599999775,None,No response,Images/Speaker1.jpg,Images/Speaker2.jpg,Images/Speaker3.jpg,Images/Speaker4.jpg,Audio/Speaker3_Per/P3-12-Per.wav,Speaker4,گوینده۴,,,,,,,,,,,,,,,,,,,,,,,,,,,,634374,001,2024-06-30_21h15.14.464,5-24,2024.1.4,None,2024-06-30 21h15.19.363816 +0900,
,,,,,,,Images/Speaker1.jpg,Images/Speaker2.jpg,Images/Speaker3.jpg,Images/Speaker4.jpg,Audio/Speaker3_Per/P3-9-Per.wav,Speaker3,گوینده۳,,,,,,,,,,,,,0,61,61,48,,,,,,,,,313.5105282909972,,,,,,,,,,,,,,,,,,,,,,,,,,,,,,,,,,,,,,,,,,,,,,,,,,,,,,,,,,,,,,,,,,,,,,,,,,312.416656915997,312.42708566599686,None,No response,Images/Speaker1.jpg,Images/Speaker2.jpg,Images/Speaker3.jpg,Images/Speaker4.jpg,Audio/Speaker3_Per/P3-9-Per.wav,Speaker4,گوینده۴,,,,,,,,,,,,,,,,,,,,,,,,,,,,634374,001,2024-06-30_21h15.14.464,5-24,2024.1.4,None,2024-06-30 21h15.19.363816 +0900,
,,,,,,,Images/Speaker1.jpg,Images/Speaker2.jpg,Images/Speaker3.jpg,Images/Speaker4.jpg,Audio/Speaker3_Per/P3-5-Per.wav,Speaker3,گوینده۳,,,,,,,,,,,,,0,62,62,44,,,,,,,,,313.5105282909972,,,,,,,,,,,,,,,,,,,,,,,,,,,,,,,,,,,,,,,,,,,,,,,,,,,,,,,,,,,,,,,,,,,,,,,,,,312.42723374999696,312.43778879099773,None,No response,Images/Speaker1.jpg,Images/Speaker2.jpg,Images/Speaker3.jpg,Images/Speaker4.jpg,Audio/Speaker3_Per/P3-5-Per.wav,Speaker4,گوینده۴,,,,,,,,,,,,,,,,,,,,,,,,,,,,634374,001,2024-06-30_21h15.14.464,5-24,2024.1.4,None,2024-06-30 21h15.19.363816 +0900,
,,,,,,,Images/Speaker1.jpg,Images/Speaker2.jpg,Images/Speaker3.jpg,Images/Speaker4.jpg,Audio/Speaker3_Per/P3-13-Per.wav,Speaker3,گوینده۳,,,,,,,,,,,,,0,63,63,52,,,,,,,,,313.5105282909972,,,,,,,,,,,,,,,,,,,,,,,,,,,,,,,,,,,,,,,,,,,,,,,,,,,,,,,,,,,,,,,,,,,,,,,,,,312.43793529100003,312.44862983299754,None,No response,Images/Speaker1.jpg,Images/Speaker2.jpg,Images/Speaker3.jpg,Images/Speaker4.jpg,Audio/Speaker3_Per/P3-13-Per.wav,Speaker4,گوینده۴,,,,,,,,,,,,,,,,,,,,,,,,,,,,634374,001,2024-06-30_21h15.14.464,5-24,2024.1.4,None,2024-06-30 21h15.19.363816 +0900,
,,,,,,,Images/Speaker1.jpg,Images/Speaker2.jpg,Images/Speaker3.jpg,Images/Speaker4.jpg,Audio/Speaker1_Per/P1-4-Per.wav,Speaker1,گوینده ۱,,,,,,,,,,,,,0,64,64,13,,,,,,,,,313.5105282909972,,,,,,,,,,,,,,,,,,,,,,,,,,,,,,,,,,,,,,,,,,,,,,,,,,,,,,,,,,,,,,,,,,,,,,,,,,312.4487734159993,312.45939958300005,None,No response,Images/Speaker1.jpg,Images/Speaker2.jpg,Images/Speaker3.jpg,Images/Speaker4.jpg,Audio/Speaker1_Per/P1-4-Per.wav,Speaker4,گوینده۴,,,,,,,,,,,,,,,,,,,,,,,,,,,,634374,001,2024-06-30_21h15.14.464,5-24,2024.1.4,None,2024-06-30 21h15.19.363816 +0900,
,,,,,,,Images/Speaker1.jpg,Images/Speaker2.jpg,Images/Speaker3.jpg,Images/Speaker4.jpg,Audio/Speaker4_Per/P4-14-Per.wav,Speaker4,گوینده۴,,,,,,,,,,,,,0,65,65,73,,,,,,,,,313.5105282909972,,,,,,,,,,,,,,,,,,,,,,,,,,,,,,,,,,,,,,,,,,,,,,,,,,,,,,,,,,,,,,,,,,,,,,,,,,312.4595405,312.470372374999,None,No response,Images/Speaker1.jpg,Images/Speaker2.jpg,Images/Speaker3.jpg,Images/Speaker4.jpg,Audio/Speaker4_Per/P4-14-Per.wav,Speaker4,گوینده۴,,,,,,,,,,,,,,,,,,,,,,,,,,,,634374,001,2024-06-30_21h15.14.464,5-24,2024.1.4,None,2024-06-30 21h15.19.363816 +0900,
,,,,,,,Images/Speaker1.jpg,Images/Speaker2.jpg,Images/Speaker3.jpg,Images/Speaker4.jpg,Audio/Speaker2_Per/P2-9-Per.wav,Speaker2,گوینده۲,,,,,,,,,,,,,0,66,66,28,,,,,,,,,313.5105282909972,,,,,,,,,,,,,,,,,,,,,,,,,,,,,,,,,,,,,,,,,,,,,,,,,,,,,,,,,,,,,,,,,,,,,,,,,,312.47051016600017,312.4806849159977,None,No response,Images/Speaker1.jpg,Images/Speaker2.jpg,Images/Speaker3.jpg,Images/Speaker4.jpg,Audio/Speaker2_Per/P2-9-Per.wav,Speaker4,گوینده۴,,,,,,,,,,,,,,,,,,,,,,,,,,,,634374,001,2024-06-30_21h15.14.464,5-24,2024.1.4,None,2024-06-30 21h15.19.363816 +0900,
,,,,,,,Images/Speaker1.jpg,Images/Speaker2.jpg,Images/Speaker3.jpg,Images/Speaker4.jpg,Audio/Speaker2_Per/P2-11-Per.wav,Speaker2,گوینده۲,,,,,,,,,,,,,0,67,67,30,,,,,,,,,313.5105282909972,,,,,,,,,,,,,,,,,,,,,,,,,,,,,,,,,,,,,,,,,,,,,,,,,,,,,,,,,,,,,,,,,,,,,,,,,,312.4808232079995,312.49136999999973,None,No response,Images/Speaker1.jpg,Images/Speaker2.jpg,Images/Speaker3.jpg,Images/Speaker4.jpg,Audio/Speaker2_Per/P2-11-Per.wav,Speaker4,گوینده۴,,,,,,,,,,,,,,,,,,,,,,,,,,,,634374,001,2024-06-30_21h15.14.464,5-24,2024.1.4,None,2024-06-30 21h15.19.363816 +0900,
,,,,,,,Images/Speaker1.jpg,Images/Speaker2.jpg,Images/Speaker3.jpg,Images/Speaker4.jpg,Audio/Speaker2_Per/P2-18-Per.wav,Speaker2,گوینده۲,,,,,,,,,,,,,0,68,68,37,,,,,,,,,313.5105282909972,,,,,,,,,,,,,,,,,,,,,,,,,,,,,,,,,,,,,,,,,,,,,,,,,,,,,,,,,,,,,,,,,,,,,,,,,,312.4915089999995,312.50156858300033,None,No response,Images/Speaker1.jpg,Images/Speaker2.jpg,Images/Speaker3.jpg,Images/Speaker4.jpg,Audio/Speaker2_Per/P2-18-Per.wav,Speaker4,گوینده۴,,,,,,,,,,,,,,,,,,,,,,,,,,,,634374,001,2024-06-30_21h15.14.464,5-24,2024.1.4,None,2024-06-30 21h15.19.363816 +0900,
,,,,,,,Images/Speaker1.jpg,Images/Speaker2.jpg,Images/Speaker3.jpg,Images/Speaker4.jpg,Audio/Speaker4_Per/P4-13-Per.wav,Speaker4,گوینده۴,,,,,,,,,,,,,0,69,69,72,,,,,,,,,313.5105282909972,,,,,,,,,,,,,,,,,,,,,,,,,,,,,,,,,,,,,,,,,,,,,,,,,,,,,,,,,,,,,,,,,,,,,,,,,,312.5017096659976,312.5124260409975,None,No response,Images/Speaker1.jpg,Images/Speaker2.jpg,Images/Speaker3.jpg,Images/Speaker4.jpg,Audio/Speaker4_Per/P4-13-Per.wav,Speaker4,گوینده۴,,,,,,,,,,,,,,,,,,,,,,,,,,,,634374,001,2024-06-30_21h15.14.464,5-24,2024.1.4,None,2024-06-30 21h15.19.363816 +0900,
,,,,,,,Images/Speaker1.jpg,Images/Speaker2.jpg,Images/Speaker3.jpg,Images/Speaker4.jpg,Audio/Speaker3_Per/P3-8-Per.wav,Speaker3,گوینده۳,,,,,,,,,,,,,0,70,70,47,,,,,,,,,313.5105282909972,,,,,,,,,,,,,,,,,,,,,,,,,,,,,,,,,,,,,,,,,,,,,,,,,,,,,,,,,,,,,,,,,,,,,,,,,,312.5125780829985,312.5230870409978,None,No response,Images/Speaker1.jpg,Images/Speaker2.jpg,Images/Speaker3.jpg,Images/Speaker4.jpg,Audio/Speaker3_Per/P3-8-Per.wav,Speaker4,گوینده۴,,,,,,,,,,,,,,,,,,,,,,,,,,,,634374,001,2024-06-30_21h15.14.464,5-24,2024.1.4,None,2024-06-30 21h15.19.363816 +0900,
