SpeakerImage1,SpeakerImage2,SpeakerImage3,SpeakerImage4,TrainingSound,EnglishCorrectAnswer,PersianCorrectAnswer,repeated_TrainingLoopGroup1.thisRepN,repeated_TrainingLoopGroup1.thisTrialN,repeated_TrainingLoopGroup1.thisN,repeated_TrainingLoopGroup1.thisIndex,TrainingLoopGroup1.thisRepN,TrainingLoopGroup1.thisTrialN,TrainingLoopGroup1.thisN,TrainingLoopGroup1.thisIndex,thisRow.t,notes,trial.started,trial.stopped,GroupSelection.started,GroupInstructions.started,key_resp.started,GroupSelection.stopped,key_resp.keys,key_resp.rt,key_resp.duration,Introduction.started,text_2.started,image.started,sound_7.started,text_4.started,text_2.stopped,sound_8.started,image.stopped,text_4.stopped,image_7.started,sound_9.started,text_5.started,sound_10.started,image_7.stopped,text_5.stopped,image_8.started,sound_11.started,text_6.started,sound_12.started,image_8.stopped,text_6.stopped,image_9.started,sound_13.started,text_7.started,sound_14.started,image_9.stopped,text_7.stopped,Introduction.stopped,InitializeExperiment.started,InitializeExperiment.stopped,CheckAccuracy1.started,accuracy_group1,proceed_to_test_group1,CheckAccuracy1.stopped,participant,session,date,expName,psychopyVersion,frameRate,expStart,
,,,,,,,,,,,,,,,,,0.009924624999257503,0.010286999997333623,,,,,,,,,,,,,,,,,,,,,,,,,,,,,,,,,,,,,,,,,,675099,001,2024-07-02_08h54.31.566,5-29,2024.1.4,None,2024-07-02 08h54.36.822740 +0900,
,,,,,,,,,,,,,,,,,,,0.010307124997780193,0.014612249997298932,0.014612249997298932,2.30864712499897,2,2.2527236669993727,None,,,,,,,,,,,,,,,,,,,,,,,,,,,,,,,,,,,675099,001,2024-07-02_08h54.31.566,5-29,2024.1.4,None,2024-07-02 08h54.36.822740 +0900,
,,,,,,,,,,,,,,,,,,,,,,,,,,2.3086753329989733,2.362136499999906,7.305817707998358,7.309981874663451,7.305817707998358,7.351648832998762,12.317565416666428,17.294553916999575,17.294553916999575,17.305204332998983,17.31122058366624,17.305204332998983,22.312141791666605,27.292855374998908,27.292855374998908,27.308345833000203,27.309522041665574,27.308345833000203,32.31400249966488,37.301404416997684,37.301404416997684,37.301404416997684,37.30908195866529,37.301404416997684,42.31377991666547,55.24566454199885,55.24566454199885,47.28900833299849,,,,,,,675099,001,2024-07-02_08h54.31.566,5-29,2024.1.4,None,2024-07-02 08h54.36.822740 +0900,
,,,,,,,,,,,,,,,,,,,,,,,,,,,,,,,,,,,,,,,,,,,,,,,,,,,,,,47.28907066699685,47.28944941699956,,,,,675099,001,2024-07-02_08h54.31.566,5-29,2024.1.4,None,2024-07-02 08h54.36.822740 +0900,
Images/Speaker1.jpg,Images/Speaker2.jpg,Images/Speaker3.jpg,Images/Speaker4.jpg,Audio/Speaker2_Per/P2-1-Per.wav,Speaker2,گوینده۲,0,0,0,20,,,,,55.24566454199885,,,,,,,,,,,,,,,,,,,,,,,,,,,,,,,,,,,,,,,,,47.342281833000015,0.0,False,47.34264508299748,675099,001,2024-07-02_08h54.31.566,5-29,2024.1.4,None,2024-07-02 08h54.36.822740 +0900,
Images/Speaker1.jpg,Images/Speaker2.jpg,Images/Speaker3.jpg,Images/Speaker4.jpg,Audio/Speaker1_Per/P1-4-Per.wav,Speaker1,گوینده ۱,0,1,1,3,,,,,55.24566454199885,,,,,,,,,,,,,,,,,,,,,,,,,,,,,,,,,,,,,,,,,47.3614017079999,0.0,False,47.36162254199735,675099,001,2024-07-02_08h54.31.566,5-29,2024.1.4,None,2024-07-02 08h54.36.822740 +0900,
Images/Speaker1.jpg,Images/Speaker2.jpg,Images/Speaker3.jpg,Images/Speaker4.jpg,Audio/Speaker1_Per/P1-20-Per.wav,Speaker1,گوینده ۱,0,2,2,19,,,,,55.24566454199885,,,,,,,,,,,,,,,,,,,,,,,,,,,,,,,,,,,,,,,,,47.37951170799715,0.0,False,47.37972091699703,675099,001,2024-07-02_08h54.31.566,5-29,2024.1.4,None,2024-07-02 08h54.36.822740 +0900,
Images/Speaker1.jpg,Images/Speaker2.jpg,Images/Speaker3.jpg,Images/Speaker4.jpg,Audio/Speaker3_Per/P3-7-Per.wav,Speaker3,گوینده۳,0,3,3,46,,,,,55.24566454199885,,,,,,,,,,,,,,,,,,,,,,,,,,,,,,,,,,,,,,,,,47.39669170799971,0.0,False,47.396873666999454,675099,001,2024-07-02_08h54.31.566,5-29,2024.1.4,None,2024-07-02 08h54.36.822740 +0900,
Images/Speaker1.jpg,Images/Speaker2.jpg,Images/Speaker3.jpg,Images/Speaker4.jpg,Audio/Speaker4_Per/P4-10-Per.wav,Speaker4,گوینده۴,0,4,4,69,,,,,55.24566454199885,,,,,,,,,,,,,,,,,,,,,,,,,,,,,,,,,,,,,,,,,47.41300333300023,0.0,False,47.41319391700017,675099,001,2024-07-02_08h54.31.566,5-29,2024.1.4,None,2024-07-02 08h54.36.822740 +0900,
Images/Speaker1.jpg,Images/Speaker2.jpg,Images/Speaker3.jpg,Images/Speaker4.jpg,Audio/Speaker2_Per/P2-12-Per.wav,Speaker2,گوینده۲,0,5,5,31,,,,,55.24566454199885,,,,,,,,,,,,,,,,,,,,,,,,,,,,,,,,,,,,,,,,,47.42905441699986,0.0,False,47.42923479199817,675099,001,2024-07-02_08h54.31.566,5-29,2024.1.4,None,2024-07-02 08h54.36.822740 +0900,
Images/Speaker1.jpg,Images/Speaker2.jpg,Images/Speaker3.jpg,Images/Speaker4.jpg,Audio/Speaker2_Per/P2-7-Per.wav,Speaker2,گوینده۲,0,6,6,26,,,,,55.24566454199885,,,,,,,,,,,,,,,,,,,,,,,,,,,,,,,,,,,,,,,,,47.44505679199938,0.0,False,47.44528949999949,675099,001,2024-07-02_08h54.31.566,5-29,2024.1.4,None,2024-07-02 08h54.36.822740 +0900,
Images/Speaker1.jpg,Images/Speaker2.jpg,Images/Speaker3.jpg,Images/Speaker4.jpg,Audio/Speaker3_Per/P3-4-Per.wav,Speaker3,گوینده۳,0,7,7,43,,,,,55.24566454199885,,,,,,,,,,,,,,,,,,,,,,,,,,,,,,,,,,,,,,,,,47.461565582998446,0.0,False,47.46173220799756,675099,001,2024-07-02_08h54.31.566,5-29,2024.1.4,None,2024-07-02 08h54.36.822740 +0900,
Images/Speaker1.jpg,Images/Speaker2.jpg,Images/Speaker3.jpg,Images/Speaker4.jpg,Audio/Speaker4_Per/P4-11-Per.wav,Speaker4,گوینده۴,0,8,8,70,,,,,55.24566454199885,,,,,,,,,,,,,,,,,,,,,,,,,,,,,,,,,,,,,,,,,47.47743687499678,0.0,False,47.47762362499998,675099,001,2024-07-02_08h54.31.566,5-29,2024.1.4,None,2024-07-02 08h54.36.822740 +0900,
Images/Speaker1.jpg,Images/Speaker2.jpg,Images/Speaker3.jpg,Images/Speaker4.jpg,Audio/Speaker1_Per/P1-4-Per.wav,Speaker1,گوینده ۱,0,9,9,13,,,,,55.24566454199885,,,,,,,,,,,,,,,,,,,,,,,,,,,,,,,,,,,,,,,,,47.493346916999144,0.0,False,47.49351037499946,675099,001,2024-07-02_08h54.31.566,5-29,2024.1.4,None,2024-07-02 08h54.36.822740 +0900,
Images/Speaker1.jpg,Images/Speaker2.jpg,Images/Speaker3.jpg,Images/Speaker4.jpg,Audio/Speaker4_Per/P4-6-Per.wav,Speaker4,گوینده۴,0,10,10,65,,,,,55.24566454199885,,,,,,,,,,,,,,,,,,,,,,,,,,,,,,,,,,,,,,,,,47.50943937499687,0.0,False,47.50958924999941,675099,001,2024-07-02_08h54.31.566,5-29,2024.1.4,None,2024-07-02 08h54.36.822740 +0900,
Images/Speaker1.jpg,Images/Speaker2.jpg,Images/Speaker3.jpg,Images/Speaker4.jpg,Audio/Speaker3_Per/P3-9-Per.wav,Speaker3,گوینده۳,0,11,11,48,,,,,55.24566454199885,,,,,,,,,,,,,,,,,,,,,,,,,,,,,,,,,,,,,,,,,47.52594274999865,0.0,False,47.52610312499746,675099,001,2024-07-02_08h54.31.566,5-29,2024.1.4,None,2024-07-02 08h54.36.822740 +0900,
Images/Speaker1.jpg,Images/Speaker2.jpg,Images/Speaker3.jpg,Images/Speaker4.jpg,Audio/Speaker3_Per/P3-10-Per.wav,Speaker3,گوینده۳,0,12,12,49,,,,,55.24566454199885,,,,,,,,,,,,,,,,,,,,,,,,,,,,,,,,,,,,,,,,,47.54172633299822,0.0,False,47.541898124996806,675099,001,2024-07-02_08h54.31.566,5-29,2024.1.4,None,2024-07-02 08h54.36.822740 +0900,
Images/Speaker1.jpg,Images/Speaker2.jpg,Images/Speaker3.jpg,Images/Speaker4.jpg,Audio/Speaker2_Per/P2-2-Per.wav,Speaker2,گوینده۲,0,13,13,21,,,,,55.24566454199885,,,,,,,,,,,,,,,,,,,,,,,,,,,,,,,,,,,,,,,,,47.557736249997106,0.0,False,47.55798424999739,675099,001,2024-07-02_08h54.31.566,5-29,2024.1.4,None,2024-07-02 08h54.36.822740 +0900,
Images/Speaker1.jpg,Images/Speaker2.jpg,Images/Speaker3.jpg,Images/Speaker4.jpg,Audio/Speaker2_Per/P2-20-Per.wav,Speaker2,گوینده۲,0,14,14,39,,,,,55.24566454199885,,,,,,,,,,,,,,,,,,,,,,,,,,,,,,,,,,,,,,,,,47.57402741699843,0.0,False,47.57421158299985,675099,001,2024-07-02_08h54.31.566,5-29,2024.1.4,None,2024-07-02 08h54.36.822740 +0900,
Images/Speaker1.jpg,Images/Speaker2.jpg,Images/Speaker3.jpg,Images/Speaker4.jpg,Audio/Speaker1_Per/P1-9-Per.wav,Speaker1,گوینده ۱,0,15,15,8,,,,,55.24566454199885,,,,,,,,,,,,,,,,,,,,,,,,,,,,,,,,,,,,,,,,,47.59057287500036,0.0,False,47.5907535419974,675099,001,2024-07-02_08h54.31.566,5-29,2024.1.4,None,2024-07-02 08h54.36.822740 +0900,
Images/Speaker1.jpg,Images/Speaker2.jpg,Images/Speaker3.jpg,Images/Speaker4.jpg,Audio/Speaker1_Per/P1-17-Per.wav,Speaker1,گوینده ۱,0,16,16,16,,,,,55.24566454199885,,,,,,,,,,,,,,,,,,,,,,,,,,,,,,,,,,,,,,,,,47.60642920799728,0.0,False,47.60663999999815,675099,001,2024-07-02_08h54.31.566,5-29,2024.1.4,None,2024-07-02 08h54.36.822740 +0900,
Images/Speaker1.jpg,Images/Speaker2.jpg,Images/Speaker3.jpg,Images/Speaker4.jpg,Audio/Speaker1_Per/P1-8-Per.wav,Speaker1,گوینده ۱,0,17,17,7,,,,,55.24566454199885,,,,,,,,,,,,,,,,,,,,,,,,,,,,,,,,,,,,,,,,,47.622384041998885,0.0,False,47.62261279199811,675099,001,2024-07-02_08h54.31.566,5-29,2024.1.4,None,2024-07-02 08h54.36.822740 +0900,
Images/Speaker1.jpg,Images/Speaker2.jpg,Images/Speaker3.jpg,Images/Speaker4.jpg,Audio/Speaker4_Per/P4-20-Per.wav,Speaker4,گوینده۴,0,18,18,79,,,,,55.24566454199885,,,,,,,,,,,,,,,,,,,,,,,,,,,,,,,,,,,,,,,,,47.638322625,0.0,False,47.638493208,675099,001,2024-07-02_08h54.31.566,5-29,2024.1.4,None,2024-07-02 08h54.36.822740 +0900,
Images/Speaker1.jpg,Images/Speaker2.jpg,Images/Speaker3.jpg,Images/Speaker4.jpg,Audio/Speaker3_Per/P3-13-Per.wav,Speaker3,گوینده۳,0,19,19,52,,,,,55.24566454199885,,,,,,,,,,,,,,,,,,,,,,,,,,,,,,,,,,,,,,,,,47.65485312499732,0.0,False,47.65502579199892,675099,001,2024-07-02_08h54.31.566,5-29,2024.1.4,None,2024-07-02 08h54.36.822740 +0900,
Images/Speaker1.jpg,Images/Speaker2.jpg,Images/Speaker3.jpg,Images/Speaker4.jpg,Audio/Speaker4_Per/P4-8-Per.wav,Speaker4,گوینده۴,0,20,20,67,,,,,55.24566454199885,,,,,,,,,,,,,,,,,,,,,,,,,,,,,,,,,,,,,,,,,47.67091829199853,0.0,False,47.671085874997516,675099,001,2024-07-02_08h54.31.566,5-29,2024.1.4,None,2024-07-02 08h54.36.822740 +0900,
Images/Speaker1.jpg,Images/Speaker2.jpg,Images/Speaker3.jpg,Images/Speaker4.jpg,Audio/Speaker4_Per/P4-17-Per.wav,Speaker4,گوینده۴,0,21,21,76,,,,,55.24566454199885,,,,,,,,,,,,,,,,,,,,,,,,,,,,,,,,,,,,,,,,,47.686783166998794,0.0,False,47.68696679200002,675099,001,2024-07-02_08h54.31.566,5-29,2024.1.4,None,2024-07-02 08h54.36.822740 +0900,
Images/Speaker1.jpg,Images/Speaker2.jpg,Images/Speaker3.jpg,Images/Speaker4.jpg,Audio/Speaker3_Per/P3-16-Per.wav,Speaker3,گوینده۳,0,22,22,55,,,,,55.24566454199885,,,,,,,,,,,,,,,,,,,,,,,,,,,,,,,,,,,,,,,,,47.70277262499803,0.0,False,47.702963874999114,675099,001,2024-07-02_08h54.31.566,5-29,2024.1.4,None,2024-07-02 08h54.36.822740 +0900,
Images/Speaker1.jpg,Images/Speaker2.jpg,Images/Speaker3.jpg,Images/Speaker4.jpg,Audio/Speaker2_Per/P2-8-Per.wav,Speaker2,گوینده۲,0,23,23,27,,,,,55.24566454199885,,,,,,,,,,,,,,,,,,,,,,,,,,,,,,,,,,,,,,,,,47.71928441699856,0.0,False,47.71947120799814,675099,001,2024-07-02_08h54.31.566,5-29,2024.1.4,None,2024-07-02 08h54.36.822740 +0900,
Images/Speaker1.jpg,Images/Speaker2.jpg,Images/Speaker3.jpg,Images/Speaker4.jpg,Audio/Speaker2_Per/P2-9-Per.wav,Speaker2,گوینده۲,0,24,24,28,,,,,55.24566454199885,,,,,,,,,,,,,,,,,,,,,,,,,,,,,,,,,,,,,,,,,47.73526187499738,0.0,False,47.735419666998496,675099,001,2024-07-02_08h54.31.566,5-29,2024.1.4,None,2024-07-02 08h54.36.822740 +0900,
Images/Speaker1.jpg,Images/Speaker2.jpg,Images/Speaker3.jpg,Images/Speaker4.jpg,Audio/Speaker4_Per/P4-7-Per.wav,Speaker4,گوینده۴,0,25,25,66,,,,,55.24566454199885,,,,,,,,,,,,,,,,,,,,,,,,,,,,,,,,,,,,,,,,,47.75118870799997,0.0,False,47.75139387499803,675099,001,2024-07-02_08h54.31.566,5-29,2024.1.4,None,2024-07-02 08h54.36.822740 +0900,
Images/Speaker1.jpg,Images/Speaker2.jpg,Images/Speaker3.jpg,Images/Speaker4.jpg,Audio/Speaker1_Per/P1-5-Per.wav,Speaker1,گوینده ۱,0,26,26,4,,,,,55.24566454199885,,,,,,,,,,,,,,,,,,,,,,,,,,,,,,,,,,,,,,,,,47.7670232499986,0.0,False,47.767222291997314,675099,001,2024-07-02_08h54.31.566,5-29,2024.1.4,None,2024-07-02 08h54.36.822740 +0900,
Images/Speaker1.jpg,Images/Speaker2.jpg,Images/Speaker3.jpg,Images/Speaker4.jpg,Audio/Speaker4_Per/P4-12-Per.wav,Speaker4,گوینده۴,0,27,27,71,,,,,55.24566454199885,,,,,,,,,,,,,,,,,,,,,,,,,,,,,,,,,,,,,,,,,47.78388766699936,0.0,False,47.78410712499681,675099,001,2024-07-02_08h54.31.566,5-29,2024.1.4,None,2024-07-02 08h54.36.822740 +0900,
Images/Speaker1.jpg,Images/Speaker2.jpg,Images/Speaker3.jpg,Images/Speaker4.jpg,Audio/Speaker1_Per/P1-1-Per.wav,Speaker1,گوینده ۱,0,28,28,0,,,,,55.24566454199885,,,,,,,,,,,,,,,,,,,,,,,,,,,,,,,,,,,,,,,,,47.799681874999806,0.0,False,47.799864707998495,675099,001,2024-07-02_08h54.31.566,5-29,2024.1.4,None,2024-07-02 08h54.36.822740 +0900,
Images/Speaker1.jpg,Images/Speaker2.jpg,Images/Speaker3.jpg,Images/Speaker4.jpg,Audio/Speaker2_Per/P2-5-Per.wav,Speaker2,گوینده۲,0,29,29,24,,,,,55.24566454199885,,,,,,,,,,,,,,,,,,,,,,,,,,,,,,,,,,,,,,,,,47.8155964999969,0.0,False,47.815816541999084,675099,001,2024-07-02_08h54.31.566,5-29,2024.1.4,None,2024-07-02 08h54.36.822740 +0900,
Images/Speaker1.jpg,Images/Speaker2.jpg,Images/Speaker3.jpg,Images/Speaker4.jpg,Audio/Speaker4_Per/P4-2-Per.wav,Speaker4,گوینده۴,0,30,30,61,,,,,55.24566454199885,,,,,,,,,,,,,,,,,,,,,,,,,,,,,,,,,,,,,,,,,47.831500416999916,0.0,False,47.83168599999772,675099,001,2024-07-02_08h54.31.566,5-29,2024.1.4,None,2024-07-02 08h54.36.822740 +0900,
Images/Speaker1.jpg,Images/Speaker2.jpg,Images/Speaker3.jpg,Images/Speaker4.jpg,Audio/Speaker4_Per/P4-14-Per.wav,Speaker4,گوینده۴,0,31,31,73,,,,,55.24566454199885,,,,,,,,,,,,,,,,,,,,,,,,,,,,,,,,,,,,,,,,,47.84827420799775,0.0,False,47.84843166700011,675099,001,2024-07-02_08h54.31.566,5-29,2024.1.4,None,2024-07-02 08h54.36.822740 +0900,
Images/Speaker1.jpg,Images/Speaker2.jpg,Images/Speaker3.jpg,Images/Speaker4.jpg,Audio/Speaker4_Per/P4-4-Per.wav,Speaker4,گوینده۴,0,32,32,63,,,,,55.24566454199885,,,,,,,,,,,,,,,,,,,,,,,,,,,,,,,,,,,,,,,,,47.86402858299698,0.0,False,47.864210249997996,675099,001,2024-07-02_08h54.31.566,5-29,2024.1.4,None,2024-07-02 08h54.36.822740 +0900,
Images/Speaker1.jpg,Images/Speaker2.jpg,Images/Speaker3.jpg,Images/Speaker4.jpg,Audio/Speaker3_Per/P3-12-Per.wav,Speaker3,گوینده۳,0,33,33,51,,,,,55.24566454199885,,,,,,,,,,,,,,,,,,,,,,,,,,,,,,,,,,,,,,,,,47.87992458299777,0.0,False,47.88009579199934,675099,001,2024-07-02_08h54.31.566,5-29,2024.1.4,None,2024-07-02 08h54.36.822740 +0900,
Images/Speaker1.jpg,Images/Speaker2.jpg,Images/Speaker3.jpg,Images/Speaker4.jpg,Audio/Speaker1_Per/P1-19-Per.wav,Speaker1,گوینده ۱,0,34,34,18,,,,,55.24566454199885,,,,,,,,,,,,,,,,,,,,,,,,,,,,,,,,,,,,,,,,,47.89598537499842,0.0,False,47.89617783299764,675099,001,2024-07-02_08h54.31.566,5-29,2024.1.4,None,2024-07-02 08h54.36.822740 +0900,
Images/Speaker1.jpg,Images/Speaker2.jpg,Images/Speaker3.jpg,Images/Speaker4.jpg,Audio/Speaker4_Per/P4-3-Per.wav,Speaker4,گوینده۴,0,35,35,62,,,,,55.24566454199885,,,,,,,,,,,,,,,,,,,,,,,,,,,,,,,,,,,,,,,,,47.91268199999831,0.0,False,47.912859207997826,675099,001,2024-07-02_08h54.31.566,5-29,2024.1.4,None,2024-07-02 08h54.36.822740 +0900,
Images/Speaker1.jpg,Images/Speaker2.jpg,Images/Speaker3.jpg,Images/Speaker4.jpg,Audio/Speaker3_Per/P3-17-Per.wav,Speaker3,گوینده۳,0,36,36,56,,,,,55.24566454199885,,,,,,,,,,,,,,,,,,,,,,,,,,,,,,,,,,,,,,,,,47.92876066699682,0.0,False,47.92892779199974,675099,001,2024-07-02_08h54.31.566,5-29,2024.1.4,None,2024-07-02 08h54.36.822740 +0900,
Images/Speaker1.jpg,Images/Speaker2.jpg,Images/Speaker3.jpg,Images/Speaker4.jpg,Audio/Speaker4_Per/P4-5-Per.wav,Speaker4,گوینده۴,0,37,37,64,,,,,55.24566454199885,,,,,,,,,,,,,,,,,,,,,,,,,,,,,,,,,,,,,,,,,47.94469124999887,0.0,False,47.944877874997474,675099,001,2024-07-02_08h54.31.566,5-29,2024.1.4,None,2024-07-02 08h54.36.822740 +0900,
Images/Speaker1.jpg,Images/Speaker2.jpg,Images/Speaker3.jpg,Images/Speaker4.jpg,Audio/Speaker3_Per/P3-3-Per.wav,Speaker3,گوینده۳,0,38,38,42,,,,,55.24566454199885,,,,,,,,,,,,,,,,,,,,,,,,,,,,,,,,,,,,,,,,,47.96059649999734,0.0,False,47.96079454199935,675099,001,2024-07-02_08h54.31.566,5-29,2024.1.4,None,2024-07-02 08h54.36.822740 +0900,
Images/Speaker1.jpg,Images/Speaker2.jpg,Images/Speaker3.jpg,Images/Speaker4.jpg,Audio/Speaker1_Per/P1-12-Per.wav,Speaker1,گوینده ۱,0,39,39,11,,,,,55.24566454199885,,,,,,,,,,,,,,,,,,,,,,,,,,,,,,,,,,,,,,,,,47.97736687499855,0.0,False,47.977547124999546,675099,001,2024-07-02_08h54.31.566,5-29,2024.1.4,None,2024-07-02 08h54.36.822740 +0900,
Images/Speaker1.jpg,Images/Speaker2.jpg,Images/Speaker3.jpg,Images/Speaker4.jpg,Audio/Speaker2_Per/P2-6-Per.wav,Speaker2,گوینده۲,0,40,40,25,,,,,55.24566454199885,,,,,,,,,,,,,,,,,,,,,,,,,,,,,,,,,,,,,,,,,47.99329808299808,0.0,False,47.99348108299819,675099,001,2024-07-02_08h54.31.566,5-29,2024.1.4,None,2024-07-02 08h54.36.822740 +0900,
Images/Speaker1.jpg,Images/Speaker2.jpg,Images/Speaker3.jpg,Images/Speaker4.jpg,Audio/Speaker2_Per/P2-4-Per.wav,Speaker2,گوینده۲,0,41,41,23,,,,,55.24566454199885,,,,,,,,,,,,,,,,,,,,,,,,,,,,,,,,,,,,,,,,,48.00935374999972,0.0,False,48.009527916998195,675099,001,2024-07-02_08h54.31.566,5-29,2024.1.4,None,2024-07-02 08h54.36.822740 +0900,
Images/Speaker1.jpg,Images/Speaker2.jpg,Images/Speaker3.jpg,Images/Speaker4.jpg,Audio/Speaker3_Per/P3-5-Per.wav,Speaker3,گوینده۳,0,42,42,44,,,,,55.24566454199885,,,,,,,,,,,,,,,,,,,,,,,,,,,,,,,,,,,,,,,,,48.02535095799976,0.0,False,48.02551958299955,675099,001,2024-07-02_08h54.31.566,5-29,2024.1.4,None,2024-07-02 08h54.36.822740 +0900,
Images/Speaker1.jpg,Images/Speaker2.jpg,Images/Speaker3.jpg,Images/Speaker4.jpg,Audio/Speaker3_Per/P3-20-Per.wav,Speaker3,گوینده۳,0,43,43,59,,,,,55.24566454199885,,,,,,,,,,,,,,,,,,,,,,,,,,,,,,,,,,,,,,,,,48.04191799999899,0.0,False,48.0420850829978,675099,001,2024-07-02_08h54.31.566,5-29,2024.1.4,None,2024-07-02 08h54.36.822740 +0900,
Images/Speaker1.jpg,Images/Speaker2.jpg,Images/Speaker3.jpg,Images/Speaker4.jpg,Audio/Speaker2_Per/P2-16-Per.wav,Speaker2,گوینده۲,0,44,44,35,,,,,55.24566454199885,,,,,,,,,,,,,,,,,,,,,,,,,,,,,,,,,,,,,,,,,48.05780458299705,0.0,False,48.05797658299707,675099,001,2024-07-02_08h54.31.566,5-29,2024.1.4,None,2024-07-02 08h54.36.822740 +0900,
Images/Speaker1.jpg,Images/Speaker2.jpg,Images/Speaker3.jpg,Images/Speaker4.jpg,Audio/Speaker3_Per/P3-15-Per.wav,Speaker3,گوینده۳,0,45,45,54,,,,,55.24566454199885,,,,,,,,,,,,,,,,,,,,,,,,,,,,,,,,,,,,,,,,,48.07362287499927,0.0,False,48.07383695799945,675099,001,2024-07-02_08h54.31.566,5-29,2024.1.4,None,2024-07-02 08h54.36.822740 +0900,
Images/Speaker1.jpg,Images/Speaker2.jpg,Images/Speaker3.jpg,Images/Speaker4.jpg,Audio/Speaker1_Per/P1-15-Per.wav,Speaker1,گوینده ۱,0,46,46,14,,,,,55.24566454199885,,,,,,,,,,,,,,,,,,,,,,,,,,,,,,,,,,,,,,,,,48.08968158299831,0.0,False,48.08987774999696,675099,001,2024-07-02_08h54.31.566,5-29,2024.1.4,None,2024-07-02 08h54.36.822740 +0900,
Images/Speaker1.jpg,Images/Speaker2.jpg,Images/Speaker3.jpg,Images/Speaker4.jpg,Audio/Speaker2_Per/P2-19-Per.wav,Speaker2,گوینده۲,0,47,47,38,,,,,55.24566454199885,,,,,,,,,,,,,,,,,,,,,,,,,,,,,,,,,,,,,,,,,48.10616208299689,0.0,False,48.10633287499877,675099,001,2024-07-02_08h54.31.566,5-29,2024.1.4,None,2024-07-02 08h54.36.822740 +0900,
Images/Speaker1.jpg,Images/Speaker2.jpg,Images/Speaker3.jpg,Images/Speaker4.jpg,Audio/Speaker2_Per/P2-11-Per.wav,Speaker2,گوینده۲,0,48,48,30,,,,,55.24566454199885,,,,,,,,,,,,,,,,,,,,,,,,,,,,,,,,,,,,,,,,,48.12226579199705,0.0,False,48.12243291699997,675099,001,2024-07-02_08h54.31.566,5-29,2024.1.4,None,2024-07-02 08h54.36.822740 +0900,
Images/Speaker1.jpg,Images/Speaker2.jpg,Images/Speaker3.jpg,Images/Speaker4.jpg,Audio/Speaker1_Per/P1-2-Per.wav,Speaker1,گوینده ۱,0,49,49,1,,,,,55.24566454199885,,,,,,,,,,,,,,,,,,,,,,,,,,,,,,,,,,,,,,,,,48.13814266699774,0.0,False,48.13831929200023,675099,001,2024-07-02_08h54.31.566,5-29,2024.1.4,None,2024-07-02 08h54.36.822740 +0900,
Images/Speaker1.jpg,Images/Speaker2.jpg,Images/Speaker3.jpg,Images/Speaker4.jpg,Audio/Speaker4_Per/P4-16-Per.wav,Speaker4,گوینده۴,0,50,50,75,,,,,55.24566454199885,,,,,,,,,,,,,,,,,,,,,,,,,,,,,,,,,,,,,,,,,48.15423733299758,0.0,False,48.154413332998956,675099,001,2024-07-02_08h54.31.566,5-29,2024.1.4,None,2024-07-02 08h54.36.822740 +0900,
Images/Speaker1.jpg,Images/Speaker2.jpg,Images/Speaker3.jpg,Images/Speaker4.jpg,Audio/Speaker3_Per/P3-6-Per.wav,Speaker3,گوینده۳,0,51,51,45,,,,,55.24566454199885,,,,,,,,,,,,,,,,,,,,,,,,,,,,,,,,,,,,,,,,,48.17075237499739,0.0,False,48.170917624996946,675099,001,2024-07-02_08h54.31.566,5-29,2024.1.4,None,2024-07-02 08h54.36.822740 +0900,
Images/Speaker1.jpg,Images/Speaker2.jpg,Images/Speaker3.jpg,Images/Speaker4.jpg,Audio/Speaker1_Per/P1-16-Per.wav,Speaker1,گوینده ۱,0,52,52,15,,,,,55.24566454199885,,,,,,,,,,,,,,,,,,,,,,,,,,,,,,,,,,,,,,,,,48.18651074999798,0.0,False,48.186739249998936,675099,001,2024-07-02_08h54.31.566,5-29,2024.1.4,None,2024-07-02 08h54.36.822740 +0900,
Images/Speaker1.jpg,Images/Speaker2.jpg,Images/Speaker3.jpg,Images/Speaker4.jpg,Audio/Speaker1_Per/P1-10-Per.wav,Speaker1,گوینده ۱,0,53,53,9,,,,,55.24566454199885,,,,,,,,,,,,,,,,,,,,,,,,,,,,,,,,,,,,,,,,,48.20242558300015,0.0,False,48.20261137499983,675099,001,2024-07-02_08h54.31.566,5-29,2024.1.4,None,2024-07-02 08h54.36.822740 +0900,
Images/Speaker1.jpg,Images/Speaker2.jpg,Images/Speaker3.jpg,Images/Speaker4.jpg,Audio/Speaker2_Per/P2-14-Per.wav,Speaker2,گوینده۲,0,54,54,33,,,,,55.24566454199885,,,,,,,,,,,,,,,,,,,,,,,,,,,,,,,,,,,,,,,,,48.21845070799827,0.0,False,48.21864999999889,675099,001,2024-07-02_08h54.31.566,5-29,2024.1.4,None,2024-07-02 08h54.36.822740 +0900,
Images/Speaker1.jpg,Images/Speaker2.jpg,Images/Speaker3.jpg,Images/Speaker4.jpg,Audio/Speaker1_Per/P1-3-Per.wav,Speaker1,گوینده ۱,0,55,55,2,,,,,55.24566454199885,,,,,,,,,,,,,,,,,,,,,,,,,,,,,,,,,,,,,,,,,48.235058666999976,0.0,False,48.23521945799803,675099,001,2024-07-02_08h54.31.566,5-29,2024.1.4,None,2024-07-02 08h54.36.822740 +0900,
Images/Speaker1.jpg,Images/Speaker2.jpg,Images/Speaker3.jpg,Images/Speaker4.jpg,Audio/Speaker3_Per/P3-19-Per.wav,Speaker3,گوینده۳,0,56,56,58,,,,,55.24566454199885,,,,,,,,,,,,,,,,,,,,,,,,,,,,,,,,,,,,,,,,,48.251145082998846,0.0,False,48.25132174999817,675099,001,2024-07-02_08h54.31.566,5-29,2024.1.4,None,2024-07-02 08h54.36.822740 +0900,
Images/Speaker1.jpg,Images/Speaker2.jpg,Images/Speaker3.jpg,Images/Speaker4.jpg,Audio/Speaker4_Per/P4-9-Per.wav,Speaker4,گوینده۴,0,57,57,68,,,,,55.24566454199885,,,,,,,,,,,,,,,,,,,,,,,,,,,,,,,,,,,,,,,,,48.26716137499898,0.0,False,48.26733283299836,675099,001,2024-07-02_08h54.31.566,5-29,2024.1.4,None,2024-07-02 08h54.36.822740 +0900,
Images/Speaker1.jpg,Images/Speaker2.jpg,Images/Speaker3.jpg,Images/Speaker4.jpg,Audio/Speaker2_Per/P2-15-Per.wav,Speaker2,گوینده۲,0,58,58,34,,,,,55.24566454199885,,,,,,,,,,,,,,,,,,,,,,,,,,,,,,,,,,,,,,,,,48.283199124998646,0.0,False,48.28339899999992,675099,001,2024-07-02_08h54.31.566,5-29,2024.1.4,None,2024-07-02 08h54.36.822740 +0900,
Images/Speaker1.jpg,Images/Speaker2.jpg,Images/Speaker3.jpg,Images/Speaker4.jpg,Audio/Speaker4_Per/P4-1-Per.wav,Speaker4,گوینده۴,0,59,59,60,,,,,55.24566454199885,,,,,,,,,,,,,,,,,,,,,,,,,,,,,,,,,,,,,,,,,48.29982191700037,0.0,False,48.29998895799872,675099,001,2024-07-02_08h54.31.566,5-29,2024.1.4,None,2024-07-02 08h54.36.822740 +0900,
Images/Speaker1.jpg,Images/Speaker2.jpg,Images/Speaker3.jpg,Images/Speaker4.jpg,Audio/Speaker3_Per/P3-2-Per.wav,Speaker3,گوینده۳,0,60,60,41,,,,,55.24566454199885,,,,,,,,,,,,,,,,,,,,,,,,,,,,,,,,,,,,,,,,,48.31589437499861,0.0,False,48.316074082998966,675099,001,2024-07-02_08h54.31.566,5-29,2024.1.4,None,2024-07-02 08h54.36.822740 +0900,
Images/Speaker1.jpg,Images/Speaker2.jpg,Images/Speaker3.jpg,Images/Speaker4.jpg,Audio/Speaker4_Per/P4-19-Per.wav,Speaker4,گوینده۴,0,61,61,78,,,,,55.24566454199885,,,,,,,,,,,,,,,,,,,,,,,,,,,,,,,,,,,,,,,,,48.33192516700001,0.0,False,48.33209383299982,675099,001,2024-07-02_08h54.31.566,5-29,2024.1.4,None,2024-07-02 08h54.36.822740 +0900,
Images/Speaker1.jpg,Images/Speaker2.jpg,Images/Speaker3.jpg,Images/Speaker4.jpg,Audio/Speaker2_Per/P2-13-Per.wav,Speaker2,گوینده۲,0,62,62,32,,,,,55.24566454199885,,,,,,,,,,,,,,,,,,,,,,,,,,,,,,,,,,,,,,,,,48.34786816699852,0.0,False,48.348032207999495,675099,001,2024-07-02_08h54.31.566,5-29,2024.1.4,None,2024-07-02 08h54.36.822740 +0900,
Images/Speaker1.jpg,Images/Speaker2.jpg,Images/Speaker3.jpg,Images/Speaker4.jpg,Audio/Speaker3_Per/P3-11-Per.wav,Speaker3,گوینده۳,0,63,63,50,,,,,55.24566454199885,,,,,,,,,,,,,,,,,,,,,,,,,,,,,,,,,,,,,,,,,48.36452949999875,0.0,False,48.364738666998164,675099,001,2024-07-02_08h54.31.566,5-29,2024.1.4,None,2024-07-02 08h54.36.822740 +0900,
Images/Speaker1.jpg,Images/Speaker2.jpg,Images/Speaker3.jpg,Images/Speaker4.jpg,Audio/Speaker2_Per/P2-3-Per.wav,Speaker2,گوینده۲,0,64,64,22,,,,,55.24566454199885,,,,,,,,,,,,,,,,,,,,,,,,,,,,,,,,,,,,,,,,,48.380486457997904,0.0,False,48.380660999999236,675099,001,2024-07-02_08h54.31.566,5-29,2024.1.4,None,2024-07-02 08h54.36.822740 +0900,
Images/Speaker1.jpg,Images/Speaker2.jpg,Images/Speaker3.jpg,Images/Speaker4.jpg,Audio/Speaker1_Per/P1-11-Per.wav,Speaker1,گوینده ۱,0,65,65,10,,,,,55.24566454199885,,,,,,,,,,,,,,,,,,,,,,,,,,,,,,,,,,,,,,,,,48.39648016699721,0.0,False,48.39672687499842,675099,001,2024-07-02_08h54.31.566,5-29,2024.1.4,None,2024-07-02 08h54.36.822740 +0900,
Images/Speaker1.jpg,Images/Speaker2.jpg,Images/Speaker3.jpg,Images/Speaker4.jpg,Audio/Speaker3_Per/P3-18-Per.wav,Speaker3,گوینده۳,0,66,66,57,,,,,55.24566454199885,,,,,,,,,,,,,,,,,,,,,,,,,,,,,,,,,,,,,,,,,48.4125708749998,0.0,False,48.412731541997346,675099,001,2024-07-02_08h54.31.566,5-29,2024.1.4,None,2024-07-02 08h54.36.822740 +0900,
Images/Speaker1.jpg,Images/Speaker2.jpg,Images/Speaker3.jpg,Images/Speaker4.jpg,Audio/Speaker3_Per/P3-14-Per.wav,Speaker3,گوینده۳,0,67,67,53,,,,,55.24566454199885,,,,,,,,,,,,,,,,,,,,,,,,,,,,,,,,,,,,,,,,,48.42913120799858,0.0,False,48.42930729199725,675099,001,2024-07-02_08h54.31.566,5-29,2024.1.4,None,2024-07-02 08h54.36.822740 +0900,
Images/Speaker1.jpg,Images/Speaker2.jpg,Images/Speaker3.jpg,Images/Speaker4.jpg,Audio/Speaker4_Per/P4-15-Per.wav,Speaker4,گوینده۴,0,68,68,74,,,,,55.24566454199885,,,,,,,,,,,,,,,,,,,,,,,,,,,,,,,,,,,,,,,,,48.445211749996815,0.0,False,48.44537579199823,675099,001,2024-07-02_08h54.31.566,5-29,2024.1.4,None,2024-07-02 08h54.36.822740 +0900,
Images/Speaker1.jpg,Images/Speaker2.jpg,Images/Speaker3.jpg,Images/Speaker4.jpg,Audio/Speaker2_Per/P2-17-Per.wav,Speaker2,گوینده۲,0,69,69,36,,,,,55.24566454199885,,,,,,,,,,,,,,,,,,,,,,,,,,,,,,,,,,,,,,,,,48.46120520799741,0.0,False,48.461373791997175,675099,001,2024-07-02_08h54.31.566,5-29,2024.1.4,None,2024-07-02 08h54.36.822740 +0900,
Images/Speaker1.jpg,Images/Speaker2.jpg,Images/Speaker3.jpg,Images/Speaker4.jpg,Audio/Speaker4_Per/P4-18-Per.wav,Speaker4,گوینده۴,0,70,70,77,,,,,55.24566454199885,,,,,,,,,,,,,,,,,,,,,,,,,,,,,,,,,,,,,,,,,48.477295499997126,0.0,False,48.47747637499924,675099,001,2024-07-02_08h54.31.566,5-29,2024.1.4,None,2024-07-02 08h54.36.822740 +0900,
Images/Speaker1.jpg,Images/Speaker2.jpg,Images/Speaker3.jpg,Images/Speaker4.jpg,Audio/Speaker4_Per/P4-13-Per.wav,Speaker4,گوینده۴,0,71,71,72,,,,,55.24566454199885,,,,,,,,,,,,,,,,,,,,,,,,,,,,,,,,,,,,,,,,,48.493708957998024,0.0,False,48.49387937499705,675099,001,2024-07-02_08h54.31.566,5-29,2024.1.4,None,2024-07-02 08h54.36.822740 +0900,
Images/Speaker1.jpg,Images/Speaker2.jpg,Images/Speaker3.jpg,Images/Speaker4.jpg,Audio/Speaker2_Per/P2-18-Per.wav,Speaker2,گوینده۲,0,72,72,37,,,,,55.24566454199885,,,,,,,,,,,,,,,,,,,,,,,,,,,,,,,,,,,,,,,,,48.50956658299765,0.0,False,48.509757249998074,675099,001,2024-07-02_08h54.31.566,5-29,2024.1.4,None,2024-07-02 08h54.36.822740 +0900,
Images/Speaker1.jpg,Images/Speaker2.jpg,Images/Speaker3.jpg,Images/Speaker4.jpg,Audio/Speaker2_Per/P2-10-Per.wav,Speaker2,گوینده۲,0,73,73,29,,,,,55.24566454199885,,,,,,,,,,,,,,,,,,,,,,,,,,,,,,,,,,,,,,,,,48.52554633299951,0.0,False,48.525714666997374,675099,001,2024-07-02_08h54.31.566,5-29,2024.1.4,None,2024-07-02 08h54.36.822740 +0900,
Images/Speaker1.jpg,Images/Speaker2.jpg,Images/Speaker3.jpg,Images/Speaker4.jpg,Audio/Speaker1_Per/P1-18-Per.wav,Speaker1,گوینده ۱,0,74,74,17,,,,,55.24566454199885,,,,,,,,,,,,,,,,,,,,,,,,,,,,,,,,,,,,,,,,,48.541583624999475,0.0,False,48.541748957999516,675099,001,2024-07-02_08h54.31.566,5-29,2024.1.4,None,2024-07-02 08h54.36.822740 +0900,
Images/Speaker1.jpg,Images/Speaker2.jpg,Images/Speaker3.jpg,Images/Speaker4.jpg,Audio/Speaker1_Per/P1-13-Per.wav,Speaker1,گوینده ۱,0,75,75,12,,,,,55.24566454199885,,,,,,,,,,,,,,,,,,,,,,,,,,,,,,,,,,,,,,,,,48.55800170799921,0.0,False,48.55818100000033,675099,001,2024-07-02_08h54.31.566,5-29,2024.1.4,None,2024-07-02 08h54.36.822740 +0900,
Images/Speaker1.jpg,Images/Speaker2.jpg,Images/Speaker3.jpg,Images/Speaker4.jpg,Audio/Speaker3_Per/P3-8-Per.wav,Speaker3,گوینده۳,0,76,76,47,,,,,55.24566454199885,,,,,,,,,,,,,,,,,,,,,,,,,,,,,,,,,,,,,,,,,48.57406683299996,0.0,False,48.57425641699956,675099,001,2024-07-02_08h54.31.566,5-29,2024.1.4,None,2024-07-02 08h54.36.822740 +0900,
Images/Speaker1.jpg,Images/Speaker2.jpg,Images/Speaker3.jpg,Images/Speaker4.jpg,Audio/Speaker1_Per/P1-7-Per.wav,Speaker1,گوینده ۱,0,77,77,6,,,,,55.24566454199885,,,,,,,,,,,,,,,,,,,,,,,,,,,,,,,,,,,,,,,,,48.590070707999985,0.0,False,48.590284332996816,675099,001,2024-07-02_08h54.31.566,5-29,2024.1.4,None,2024-07-02 08h54.36.822740 +0900,
Images/Speaker1.jpg,Images/Speaker2.jpg,Images/Speaker3.jpg,Images/Speaker4.jpg,Audio/Speaker1_Per/P1-6-Per.wav,Speaker1,گوینده ۱,0,78,78,5,,,,,55.24566454199885,,,,,,,,,,,,,,,,,,,,,,,,,,,,,,,,,,,,,,,,,48.60623837499952,0.0,False,48.60641462499916,675099,001,2024-07-02_08h54.31.566,5-29,2024.1.4,None,2024-07-02 08h54.36.822740 +0900,
Images/Speaker1.jpg,Images/Speaker2.jpg,Images/Speaker3.jpg,Images/Speaker4.jpg,Audio/Speaker3_Per/P3-1-Per.wav,Speaker3,گوینده۳,0,79,79,40,,,,,55.24566454199885,,,,,,,,,,,,,,,,,,,,,,,,,,,,,,,,,,,,,,,,,48.622653791997436,0.0,False,48.62282024999877,675099,001,2024-07-02_08h54.31.566,5-29,2024.1.4,None,2024-07-02 08h54.36.822740 +0900,
Images/Speaker1.jpg,Images/Speaker2.jpg,Images/Speaker3.jpg,Images/Speaker4.jpg,Audio/Speaker4_Per/P4-12-Per.wav,Speaker4,گوینده۴,1,0,80,71,,,,,55.24566454199885,,,,,,,,,,,,,,,,,,,,,,,,,,,,,,,,,,,,,,,,,48.638509749998775,0.0,False,48.63871379199918,675099,001,2024-07-02_08h54.31.566,5-29,2024.1.4,None,2024-07-02 08h54.36.822740 +0900,
Images/Speaker1.jpg,Images/Speaker2.jpg,Images/Speaker3.jpg,Images/Speaker4.jpg,Audio/Speaker1_Per/P1-9-Per.wav,Speaker1,گوینده ۱,1,1,81,8,,,,,55.24566454199885,,,,,,,,,,,,,,,,,,,,,,,,,,,,,,,,,,,,,,,,,48.65470895799808,0.0,False,48.654872749997594,675099,001,2024-07-02_08h54.31.566,5-29,2024.1.4,None,2024-07-02 08h54.36.822740 +0900,
Images/Speaker1.jpg,Images/Speaker2.jpg,Images/Speaker3.jpg,Images/Speaker4.jpg,Audio/Speaker2_Per/P2-4-Per.wav,Speaker2,گوینده۲,1,2,82,23,,,,,55.24566454199885,,,,,,,,,,,,,,,,,,,,,,,,,,,,,,,,,,,,,,,,,48.670593499999086,0.0,False,48.67078024999864,675099,001,2024-07-02_08h54.31.566,5-29,2024.1.4,None,2024-07-02 08h54.36.822740 +0900,
Images/Speaker1.jpg,Images/Speaker2.jpg,Images/Speaker3.jpg,Images/Speaker4.jpg,Audio/Speaker4_Per/P4-17-Per.wav,Speaker4,گوینده۴,1,3,83,76,,,,,55.24566454199885,,,,,,,,,,,,,,,,,,,,,,,,,,,,,,,,,,,,,,,,,48.68708549999792,0.0,False,48.687274374999106,675099,001,2024-07-02_08h54.31.566,5-29,2024.1.4,None,2024-07-02 08h54.36.822740 +0900,
Images/Speaker1.jpg,Images/Speaker2.jpg,Images/Speaker3.jpg,Images/Speaker4.jpg,Audio/Speaker2_Per/P2-18-Per.wav,Speaker2,گوینده۲,1,4,84,37,,,,,55.24566454199885,,,,,,,,,,,,,,,,,,,,,,,,,,,,,,,,,,,,,,,,,48.70331074999922,0.0,False,48.703480374999344,675099,001,2024-07-02_08h54.31.566,5-29,2024.1.4,None,2024-07-02 08h54.36.822740 +0900,
Images/Speaker1.jpg,Images/Speaker2.jpg,Images/Speaker3.jpg,Images/Speaker4.jpg,Audio/Speaker1_Per/P1-4-Per.wav,Speaker1,گوینده ۱,1,5,85,13,,,,,55.24566454199885,,,,,,,,,,,,,,,,,,,,,,,,,,,,,,,,,,,,,,,,,48.71913979199962,0.0,False,48.71931187500013,675099,001,2024-07-02_08h54.31.566,5-29,2024.1.4,None,2024-07-02 08h54.36.822740 +0900,
Images/Speaker1.jpg,Images/Speaker2.jpg,Images/Speaker3.jpg,Images/Speaker4.jpg,Audio/Speaker1_Per/P1-20-Per.wav,Speaker1,گوینده ۱,1,6,86,19,,,,,55.24566454199885,,,,,,,,,,,,,,,,,,,,,,,,,,,,,,,,,,,,,,,,,48.73491583299983,0.0,False,48.73509341699901,675099,001,2024-07-02_08h54.31.566,5-29,2024.1.4,None,2024-07-02 08h54.36.822740 +0900,
Images/Speaker1.jpg,Images/Speaker2.jpg,Images/Speaker3.jpg,Images/Speaker4.jpg,Audio/Speaker4_Per/P4-5-Per.wav,Speaker4,گوینده۴,1,7,87,64,,,,,55.24566454199885,,,,,,,,,,,,,,,,,,,,,,,,,,,,,,,,,,,,,,,,,48.75148999999874,0.0,False,48.75166116699984,675099,001,2024-07-02_08h54.31.566,5-29,2024.1.4,None,2024-07-02 08h54.36.822740 +0900,
Images/Speaker1.jpg,Images/Speaker2.jpg,Images/Speaker3.jpg,Images/Speaker4.jpg,Audio/Speaker4_Per/P4-3-Per.wav,Speaker4,گوینده۴,1,8,88,62,,,,,55.24566454199885,,,,,,,,,,,,,,,,,,,,,,,,,,,,,,,,,,,,,,,,,48.76756949999981,0.0,False,48.76774083299824,675099,001,2024-07-02_08h54.31.566,5-29,2024.1.4,None,2024-07-02 08h54.36.822740 +0900,
Images/Speaker1.jpg,Images/Speaker2.jpg,Images/Speaker3.jpg,Images/Speaker4.jpg,Audio/Speaker3_Per/P3-5-Per.wav,Speaker3,گوینده۳,1,9,89,44,,,,,55.24566454199885,,,,,,,,,,,,,,,,,,,,,,,,,,,,,,,,,,,,,,,,,48.783612999999605,0.0,False,48.783791166999436,675099,001,2024-07-02_08h54.31.566,5-29,2024.1.4,None,2024-07-02 08h54.36.822740 +0900,
Images/Speaker1.jpg,Images/Speaker2.jpg,Images/Speaker3.jpg,Images/Speaker4.jpg,Audio/Speaker1_Per/P1-19-Per.wav,Speaker1,گوینده ۱,1,10,90,18,,,,,55.24566454199885,,,,,,,,,,,,,,,,,,,,,,,,,,,,,,,,,,,,,,,,,48.79967120799847,0.0,False,48.79985745799786,675099,001,2024-07-02_08h54.31.566,5-29,2024.1.4,None,2024-07-02 08h54.36.822740 +0900,
Images/Speaker1.jpg,Images/Speaker2.jpg,Images/Speaker3.jpg,Images/Speaker4.jpg,Audio/Speaker1_Per/P1-1-Per.wav,Speaker1,گوینده ۱,1,11,91,0,,,,,55.24566454199885,,,,,,,,,,,,,,,,,,,,,,,,,,,,,,,,,,,,,,,,,48.8161228329991,0.0,False,48.81629574999897,675099,001,2024-07-02_08h54.31.566,5-29,2024.1.4,None,2024-07-02 08h54.36.822740 +0900,
Images/Speaker1.jpg,Images/Speaker2.jpg,Images/Speaker3.jpg,Images/Speaker4.jpg,Audio/Speaker4_Per/P4-16-Per.wav,Speaker4,گوینده۴,1,12,92,75,,,,,55.24566454199885,,,,,,,,,,,,,,,,,,,,,,,,,,,,,,,,,,,,,,,,,48.83199770799911,0.0,False,48.8321999999971,675099,001,2024-07-02_08h54.31.566,5-29,2024.1.4,None,2024-07-02 08h54.36.822740 +0900,
Images/Speaker1.jpg,Images/Speaker2.jpg,Images/Speaker3.jpg,Images/Speaker4.jpg,Audio/Speaker2_Per/P2-15-Per.wav,Speaker2,گوینده۲,1,13,93,34,,,,,55.24566454199885,,,,,,,,,,,,,,,,,,,,,,,,,,,,,,,,,,,,,,,,,48.84786733299916,0.0,False,48.84807891699893,675099,001,2024-07-02_08h54.31.566,5-29,2024.1.4,None,2024-07-02 08h54.36.822740 +0900,
Images/Speaker1.jpg,Images/Speaker2.jpg,Images/Speaker3.jpg,Images/Speaker4.jpg,Audio/Speaker2_Per/P2-5-Per.wav,Speaker2,گوینده۲,1,14,94,24,,,,,55.24566454199885,,,,,,,,,,,,,,,,,,,,,,,,,,,,,,,,,,,,,,,,,48.863970999998855,0.0,False,48.864145957999426,675099,001,2024-07-02_08h54.31.566,5-29,2024.1.4,None,2024-07-02 08h54.36.822740 +0900,
Images/Speaker1.jpg,Images/Speaker2.jpg,Images/Speaker3.jpg,Images/Speaker4.jpg,Audio/Speaker2_Per/P2-9-Per.wav,Speaker2,گوینده۲,1,15,95,28,,,,,55.24566454199885,,,,,,,,,,,,,,,,,,,,,,,,,,,,,,,,,,,,,,,,,48.88068445799945,0.0,False,48.88086133300021,675099,001,2024-07-02_08h54.31.566,5-29,2024.1.4,None,2024-07-02 08h54.36.822740 +0900,
Images/Speaker1.jpg,Images/Speaker2.jpg,Images/Speaker3.jpg,Images/Speaker4.jpg,Audio/Speaker3_Per/P3-3-Per.wav,Speaker3,گوینده۳,1,16,96,42,,,,,55.24566454199885,,,,,,,,,,,,,,,,,,,,,,,,,,,,,,,,,,,,,,,,,48.89683404199968,0.0,False,48.897019,675099,001,2024-07-02_08h54.31.566,5-29,2024.1.4,None,2024-07-02 08h54.36.822740 +0900,
Images/Speaker1.jpg,Images/Speaker2.jpg,Images/Speaker3.jpg,Images/Speaker4.jpg,Audio/Speaker1_Per/P1-17-Per.wav,Speaker1,گوینده ۱,1,17,97,16,,,,,55.24566454199885,,,,,,,,,,,,,,,,,,,,,,,,,,,,,,,,,,,,,,,,,48.91263520799839,0.0,False,48.91280108299907,675099,001,2024-07-02_08h54.31.566,5-29,2024.1.4,None,2024-07-02 08h54.36.822740 +0900,
Images/Speaker1.jpg,Images/Speaker2.jpg,Images/Speaker3.jpg,Images/Speaker4.jpg,Audio/Speaker1_Per/P1-2-Per.wav,Speaker1,گوینده ۱,1,18,98,1,,,,,55.24566454199885,,,,,,,,,,,,,,,,,,,,,,,,,,,,,,,,,,,,,,,,,48.928753624997626,0.0,False,48.92894737499955,675099,001,2024-07-02_08h54.31.566,5-29,2024.1.4,None,2024-07-02 08h54.36.822740 +0900,
Images/Speaker1.jpg,Images/Speaker2.jpg,Images/Speaker3.jpg,Images/Speaker4.jpg,Audio/Speaker4_Per/P4-10-Per.wav,Speaker4,گوینده۴,1,19,99,69,,,,,55.24566454199885,,,,,,,,,,,,,,,,,,,,,,,,,,,,,,,,,,,,,,,,,48.945459832997585,0.0,False,48.94561537499976,675099,001,2024-07-02_08h54.31.566,5-29,2024.1.4,None,2024-07-02 08h54.36.822740 +0900,
Images/Speaker1.jpg,Images/Speaker2.jpg,Images/Speaker3.jpg,Images/Speaker4.jpg,Audio/Speaker3_Per/P3-6-Per.wav,Speaker3,گوینده۳,1,20,100,45,,,,,55.24566454199885,,,,,,,,,,,,,,,,,,,,,,,,,,,,,,,,,,,,,,,,,48.961213874998066,0.0,False,48.96140833299796,675099,001,2024-07-02_08h54.31.566,5-29,2024.1.4,None,2024-07-02 08h54.36.822740 +0900,
Images/Speaker1.jpg,Images/Speaker2.jpg,Images/Speaker3.jpg,Images/Speaker4.jpg,Audio/Speaker2_Per/P2-13-Per.wav,Speaker2,گوینده۲,1,21,101,32,,,,,55.24566454199885,,,,,,,,,,,,,,,,,,,,,,,,,,,,,,,,,,,,,,,,,48.97713224999825,0.0,False,48.97730833300011,675099,001,2024-07-02_08h54.31.566,5-29,2024.1.4,None,2024-07-02 08h54.36.822740 +0900,
Images/Speaker1.jpg,Images/Speaker2.jpg,Images/Speaker3.jpg,Images/Speaker4.jpg,Audio/Speaker3_Per/P3-11-Per.wav,Speaker3,گوینده۳,1,22,102,50,,,,,55.24566454199885,,,,,,,,,,,,,,,,,,,,,,,,,,,,,,,,,,,,,,,,,48.99322424999991,0.0,False,48.99337812500016,675099,001,2024-07-02_08h54.31.566,5-29,2024.1.4,None,2024-07-02 08h54.36.822740 +0900,
Images/Speaker1.jpg,Images/Speaker2.jpg,Images/Speaker3.jpg,Images/Speaker4.jpg,Audio/Speaker1_Per/P1-16-Per.wav,Speaker1,گوینده ۱,1,23,103,15,,,,,55.24566454199885,,,,,,,,,,,,,,,,,,,,,,,,,,,,,,,,,,,,,,,,,49.0097243329983,0.0,False,49.009906249997584,675099,001,2024-07-02_08h54.31.566,5-29,2024.1.4,None,2024-07-02 08h54.36.822740 +0900,
Images/Speaker1.jpg,Images/Speaker2.jpg,Images/Speaker3.jpg,Images/Speaker4.jpg,Audio/Speaker2_Per/P2-3-Per.wav,Speaker2,گوینده۲,1,24,104,22,,,,,55.24566454199885,,,,,,,,,,,,,,,,,,,,,,,,,,,,,,,,,,,,,,,,,49.025648041999375,0.0,False,49.025803749998886,675099,001,2024-07-02_08h54.31.566,5-29,2024.1.4,None,2024-07-02 08h54.36.822740 +0900,
Images/Speaker1.jpg,Images/Speaker2.jpg,Images/Speaker3.jpg,Images/Speaker4.jpg,Audio/Speaker2_Per/P2-20-Per.wav,Speaker2,گوینده۲,1,25,105,39,,,,,55.24566454199885,,,,,,,,,,,,,,,,,,,,,,,,,,,,,,,,,,,,,,,,,49.04163612499906,0.0,False,49.04183604199716,675099,001,2024-07-02_08h54.31.566,5-29,2024.1.4,None,2024-07-02 08h54.36.822740 +0900,
Images/Speaker1.jpg,Images/Speaker2.jpg,Images/Speaker3.jpg,Images/Speaker4.jpg,Audio/Speaker4_Per/P4-8-Per.wav,Speaker4,گوینده۴,1,26,106,67,,,,,55.24566454199885,,,,,,,,,,,,,,,,,,,,,,,,,,,,,,,,,,,,,,,,,49.05757483299749,0.0,False,49.05775383299988,675099,001,2024-07-02_08h54.31.566,5-29,2024.1.4,None,2024-07-02 08h54.36.822740 +0900,
Images/Speaker1.jpg,Images/Speaker2.jpg,Images/Speaker3.jpg,Images/Speaker4.jpg,Audio/Speaker3_Per/P3-14-Per.wav,Speaker3,گوینده۳,1,27,107,53,,,,,55.24566454199885,,,,,,,,,,,,,,,,,,,,,,,,,,,,,,,,,,,,,,,,,49.074394916999154,0.0,False,49.07455979199949,675099,001,2024-07-02_08h54.31.566,5-29,2024.1.4,None,2024-07-02 08h54.36.822740 +0900,
Images/Speaker1.jpg,Images/Speaker2.jpg,Images/Speaker3.jpg,Images/Speaker4.jpg,Audio/Speaker1_Per/P1-4-Per.wav,Speaker1,گوینده ۱,1,28,108,3,,,,,55.24566454199885,,,,,,,,,,,,,,,,,,,,,,,,,,,,,,,,,,,,,,,,,49.090140082997095,0.0,False,49.0903018329991,675099,001,2024-07-02_08h54.31.566,5-29,2024.1.4,None,2024-07-02 08h54.36.822740 +0900,
Images/Speaker1.jpg,Images/Speaker2.jpg,Images/Speaker3.jpg,Images/Speaker4.jpg,Audio/Speaker4_Per/P4-2-Per.wav,Speaker4,گوینده۴,1,29,109,61,,,,,55.24566454199885,,,,,,,,,,,,,,,,,,,,,,,,,,,,,,,,,,,,,,,,,49.10622404199967,0.0,False,49.10640662500009,675099,001,2024-07-02_08h54.31.566,5-29,2024.1.4,None,2024-07-02 08h54.36.822740 +0900,
Images/Speaker1.jpg,Images/Speaker2.jpg,Images/Speaker3.jpg,Images/Speaker4.jpg,Audio/Speaker3_Per/P3-18-Per.wav,Speaker3,گوینده۳,1,30,110,57,,,,,55.24566454199885,,,,,,,,,,,,,,,,,,,,,,,,,,,,,,,,,,,,,,,,,49.12204637499963,0.0,False,49.122223499998654,675099,001,2024-07-02_08h54.31.566,5-29,2024.1.4,None,2024-07-02 08h54.36.822740 +0900,
Images/Speaker1.jpg,Images/Speaker2.jpg,Images/Speaker3.jpg,Images/Speaker4.jpg,Audio/Speaker1_Per/P1-11-Per.wav,Speaker1,گوینده ۱,1,31,111,10,,,,,55.24566454199885,,,,,,,,,,,,,,,,,,,,,,,,,,,,,,,,,,,,,,,,,49.1388473329971,0.0,False,49.13900937499784,675099,001,2024-07-02_08h54.31.566,5-29,2024.1.4,None,2024-07-02 08h54.36.822740 +0900,
Images/Speaker1.jpg,Images/Speaker2.jpg,Images/Speaker3.jpg,Images/Speaker4.jpg,Audio/Speaker1_Per/P1-15-Per.wav,Speaker1,گوینده ۱,1,32,112,14,,,,,55.24566454199885,,,,,,,,,,,,,,,,,,,,,,,,,,,,,,,,,,,,,,,,,49.15466287500021,0.0,False,49.15484191699943,675099,001,2024-07-02_08h54.31.566,5-29,2024.1.4,None,2024-07-02 08h54.36.822740 +0900,
Images/Speaker1.jpg,Images/Speaker2.jpg,Images/Speaker3.jpg,Images/Speaker4.jpg,Audio/Speaker1_Per/P1-12-Per.wav,Speaker1,گوینده ۱,1,33,113,11,,,,,55.24566454199885,,,,,,,,,,,,,,,,,,,,,,,,,,,,,,,,,,,,,,,,,49.17061733299852,0.0,False,49.170791332999215,675099,001,2024-07-02_08h54.31.566,5-29,2024.1.4,None,2024-07-02 08h54.36.822740 +0900,
Images/Speaker1.jpg,Images/Speaker2.jpg,Images/Speaker3.jpg,Images/Speaker4.jpg,Audio/Speaker4_Per/P4-19-Per.wav,Speaker4,گوینده۴,1,34,114,78,,,,,55.24566454199885,,,,,,,,,,,,,,,,,,,,,,,,,,,,,,,,,,,,,,,,,49.186475374997826,0.0,False,49.18665583300026,675099,001,2024-07-02_08h54.31.566,5-29,2024.1.4,None,2024-07-02 08h54.36.822740 +0900,
Images/Speaker1.jpg,Images/Speaker2.jpg,Images/Speaker3.jpg,Images/Speaker4.jpg,Audio/Speaker4_Per/P4-7-Per.wav,Speaker4,گوینده۴,1,35,115,66,,,,,55.24566454199885,,,,,,,,,,,,,,,,,,,,,,,,,,,,,,,,,,,,,,,,,49.2032129170002,0.0,False,49.20337649999783,675099,001,2024-07-02_08h54.31.566,5-29,2024.1.4,None,2024-07-02 08h54.36.822740 +0900,
Images/Speaker1.jpg,Images/Speaker2.jpg,Images/Speaker3.jpg,Images/Speaker4.jpg,Audio/Speaker3_Per/P3-10-Per.wav,Speaker3,گوینده۳,1,36,116,49,,,,,55.24566454199885,,,,,,,,,,,,,,,,,,,,,,,,,,,,,,,,,,,,,,,,,49.21927379199769,0.0,False,49.219454124999174,675099,001,2024-07-02_08h54.31.566,5-29,2024.1.4,None,2024-07-02 08h54.36.822740 +0900,
Images/Speaker1.jpg,Images/Speaker2.jpg,Images/Speaker3.jpg,Images/Speaker4.jpg,Audio/Speaker3_Per/P3-2-Per.wav,Speaker3,گوینده۳,1,37,117,41,,,,,55.24566454199885,,,,,,,,,,,,,,,,,,,,,,,,,,,,,,,,,,,,,,,,,49.235038124999846,0.0,False,49.2352495419982,675099,001,2024-07-02_08h54.31.566,5-29,2024.1.4,None,2024-07-02 08h54.36.822740 +0900,
Images/Speaker1.jpg,Images/Speaker2.jpg,Images/Speaker3.jpg,Images/Speaker4.jpg,Audio/Speaker3_Per/P3-9-Per.wav,Speaker3,گوینده۳,1,38,118,48,,,,,55.24566454199885,,,,,,,,,,,,,,,,,,,,,,,,,,,,,,,,,,,,,,,,,49.25099091700031,0.0,False,49.25120400000014,675099,001,2024-07-02_08h54.31.566,5-29,2024.1.4,None,2024-07-02 08h54.36.822740 +0900,
Images/Speaker1.jpg,Images/Speaker2.jpg,Images/Speaker3.jpg,Images/Speaker4.jpg,Audio/Speaker1_Per/P1-13-Per.wav,Speaker1,گوینده ۱,1,39,119,12,,,,,55.24566454199885,,,,,,,,,,,,,,,,,,,,,,,,,,,,,,,,,,,,,,,,,49.26757620799981,0.0,False,49.267745207998814,675099,001,2024-07-02_08h54.31.566,5-29,2024.1.4,None,2024-07-02 08h54.36.822740 +0900,
Images/Speaker1.jpg,Images/Speaker2.jpg,Images/Speaker3.jpg,Images/Speaker4.jpg,Audio/Speaker1_Per/P1-10-Per.wav,Speaker1,گوینده ۱,1,40,120,9,,,,,55.24566454199885,,,,,,,,,,,,,,,,,,,,,,,,,,,,,,,,,,,,,,,,,49.28367375000016,0.0,False,49.283855292000226,675099,001,2024-07-02_08h54.31.566,5-29,2024.1.4,None,2024-07-02 08h54.36.822740 +0900,
Images/Speaker1.jpg,Images/Speaker2.jpg,Images/Speaker3.jpg,Images/Speaker4.jpg,Audio/Speaker1_Per/P1-18-Per.wav,Speaker1,گوینده ۱,1,41,121,17,,,,,55.24566454199885,,,,,,,,,,,,,,,,,,,,,,,,,,,,,,,,,,,,,,,,,49.29980820799756,0.0,False,49.29996920799749,675099,001,2024-07-02_08h54.31.566,5-29,2024.1.4,None,2024-07-02 08h54.36.822740 +0900,
Images/Speaker1.jpg,Images/Speaker2.jpg,Images/Speaker3.jpg,Images/Speaker4.jpg,Audio/Speaker3_Per/P3-20-Per.wav,Speaker3,گوینده۳,1,42,122,59,,,,,55.24566454199885,,,,,,,,,,,,,,,,,,,,,,,,,,,,,,,,,,,,,,,,,49.3157502920003,0.0,False,49.315921499997785,675099,001,2024-07-02_08h54.31.566,5-29,2024.1.4,None,2024-07-02 08h54.36.822740 +0900,
Images/Speaker1.jpg,Images/Speaker2.jpg,Images/Speaker3.jpg,Images/Speaker4.jpg,Audio/Speaker4_Per/P4-13-Per.wav,Speaker4,گوینده۴,1,43,123,72,,,,,55.24566454199885,,,,,,,,,,,,,,,,,,,,,,,,,,,,,,,,,,,,,,,,,49.33229508299701,0.0,False,49.33248049999747,675099,001,2024-07-02_08h54.31.566,5-29,2024.1.4,None,2024-07-02 08h54.36.822740 +0900,
Images/Speaker1.jpg,Images/Speaker2.jpg,Images/Speaker3.jpg,Images/Speaker4.jpg,Audio/Speaker4_Per/P4-15-Per.wav,Speaker4,گوینده۴,1,44,124,74,,,,,55.24566454199885,,,,,,,,,,,,,,,,,,,,,,,,,,,,,,,,,,,,,,,,,49.34842187499817,0.0,False,49.348595999999816,675099,001,2024-07-02_08h54.31.566,5-29,2024.1.4,None,2024-07-02 08h54.36.822740 +0900,
Images/Speaker1.jpg,Images/Speaker2.jpg,Images/Speaker3.jpg,Images/Speaker4.jpg,Audio/Speaker3_Per/P3-4-Per.wav,Speaker3,گوینده۳,1,45,125,43,,,,,55.24566454199885,,,,,,,,,,,,,,,,,,,,,,,,,,,,,,,,,,,,,,,,,49.36424704199817,0.0,False,49.36446129199976,675099,001,2024-07-02_08h54.31.566,5-29,2024.1.4,None,2024-07-02 08h54.36.822740 +0900,
Images/Speaker1.jpg,Images/Speaker2.jpg,Images/Speaker3.jpg,Images/Speaker4.jpg,Audio/Speaker1_Per/P1-7-Per.wav,Speaker1,گوینده ۱,1,46,126,6,,,,,55.24566454199885,,,,,,,,,,,,,,,,,,,,,,,,,,,,,,,,,,,,,,,,,49.38029491699854,0.0,False,49.38046116699843,675099,001,2024-07-02_08h54.31.566,5-29,2024.1.4,None,2024-07-02 08h54.36.822740 +0900,
Images/Speaker1.jpg,Images/Speaker2.jpg,Images/Speaker3.jpg,Images/Speaker4.jpg,Audio/Speaker2_Per/P2-7-Per.wav,Speaker2,گوینده۲,1,47,127,26,,,,,55.24566454199885,,,,,,,,,,,,,,,,,,,,,,,,,,,,,,,,,,,,,,,,,49.396762874999695,0.0,False,49.39695891699739,675099,001,2024-07-02_08h54.31.566,5-29,2024.1.4,None,2024-07-02 08h54.36.822740 +0900,
Images/Speaker1.jpg,Images/Speaker2.jpg,Images/Speaker3.jpg,Images/Speaker4.jpg,Audio/Speaker3_Per/P3-12-Per.wav,Speaker3,گوینده۳,1,48,128,51,,,,,55.24566454199885,,,,,,,,,,,,,,,,,,,,,,,,,,,,,,,,,,,,,,,,,49.41263579199949,0.0,False,49.41281091699784,675099,001,2024-07-02_08h54.31.566,5-29,2024.1.4,None,2024-07-02 08h54.36.822740 +0900,
Images/Speaker1.jpg,Images/Speaker2.jpg,Images/Speaker3.jpg,Images/Speaker4.jpg,Audio/Speaker2_Per/P2-12-Per.wav,Speaker2,گوینده۲,1,49,129,31,,,,,55.24566454199885,,,,,,,,,,,,,,,,,,,,,,,,,,,,,,,,,,,,,,,,,49.42870070799836,0.0,False,49.42889029199796,675099,001,2024-07-02_08h54.31.566,5-29,2024.1.4,None,2024-07-02 08h54.36.822740 +0900,
Images/Speaker1.jpg,Images/Speaker2.jpg,Images/Speaker3.jpg,Images/Speaker4.jpg,Audio/Speaker3_Per/P3-15-Per.wav,Speaker3,گوینده۳,1,50,130,54,,,,,55.24566454199885,,,,,,,,,,,,,,,,,,,,,,,,,,,,,,,,,,,,,,,,,49.444813082998735,0.0,False,49.44496429199717,675099,001,2024-07-02_08h54.31.566,5-29,2024.1.4,None,2024-07-02 08h54.36.822740 +0900,
Images/Speaker1.jpg,Images/Speaker2.jpg,Images/Speaker3.jpg,Images/Speaker4.jpg,Audio/Speaker2_Per/P2-19-Per.wav,Speaker2,گوینده۲,1,51,131,38,,,,,55.24566454199885,,,,,,,,,,,,,,,,,,,,,,,,,,,,,,,,,,,,,,,,,49.461326999997254,0.0,False,49.46149120799964,675099,001,2024-07-02_08h54.31.566,5-29,2024.1.4,None,2024-07-02 08h54.36.822740 +0900,
Images/Speaker1.jpg,Images/Speaker2.jpg,Images/Speaker3.jpg,Images/Speaker4.jpg,Audio/Speaker2_Per/P2-11-Per.wav,Speaker2,گوینده۲,1,52,132,30,,,,,55.24566454199885,,,,,,,,,,,,,,,,,,,,,,,,,,,,,,,,,,,,,,,,,49.47725208299744,0.0,False,49.47740966699712,675099,001,2024-07-02_08h54.31.566,5-29,2024.1.4,None,2024-07-02 08h54.36.822740 +0900,
Images/Speaker1.jpg,Images/Speaker2.jpg,Images/Speaker3.jpg,Images/Speaker4.jpg,Audio/Speaker4_Per/P4-14-Per.wav,Speaker4,گوینده۴,1,53,133,73,,,,,55.24566454199885,,,,,,,,,,,,,,,,,,,,,,,,,,,,,,,,,,,,,,,,,49.49318574999779,0.0,False,49.493337291998614,675099,001,2024-07-02_08h54.31.566,5-29,2024.1.4,None,2024-07-02 08h54.36.822740 +0900,
Images/Speaker1.jpg,Images/Speaker2.jpg,Images/Speaker3.jpg,Images/Speaker4.jpg,Audio/Speaker2_Per/P2-16-Per.wav,Speaker2,گوینده۲,1,54,134,35,,,,,55.24566454199885,,,,,,,,,,,,,,,,,,,,,,,,,,,,,,,,,,,,,,,,,49.50919804200021,0.0,False,49.50938441699691,675099,001,2024-07-02_08h54.31.566,5-29,2024.1.4,None,2024-07-02 08h54.36.822740 +0900,
Images/Speaker1.jpg,Images/Speaker2.jpg,Images/Speaker3.jpg,Images/Speaker4.jpg,Audio/Speaker3_Per/P3-1-Per.wav,Speaker3,گوینده۳,1,55,135,40,,,,,55.24566454199885,,,,,,,,,,,,,,,,,,,,,,,,,,,,,,,,,,,,,,,,,49.52587241699803,0.0,False,49.52603666699724,675099,001,2024-07-02_08h54.31.566,5-29,2024.1.4,None,2024-07-02 08h54.36.822740 +0900,
Images/Speaker1.jpg,Images/Speaker2.jpg,Images/Speaker3.jpg,Images/Speaker4.jpg,Audio/Speaker3_Per/P3-7-Per.wav,Speaker3,گوینده۳,1,56,136,46,,,,,55.24566454199885,,,,,,,,,,,,,,,,,,,,,,,,,,,,,,,,,,,,,,,,,49.54189149999729,0.0,False,49.54203908299678,675099,001,2024-07-02_08h54.31.566,5-29,2024.1.4,None,2024-07-02 08h54.36.822740 +0900,
Images/Speaker1.jpg,Images/Speaker2.jpg,Images/Speaker3.jpg,Images/Speaker4.jpg,Audio/Speaker2_Per/P2-8-Per.wav,Speaker2,گوینده۲,1,57,137,27,,,,,55.24566454199885,,,,,,,,,,,,,,,,,,,,,,,,,,,,,,,,,,,,,,,,,49.55799091699737,0.0,False,49.5581879579986,675099,001,2024-07-02_08h54.31.566,5-29,2024.1.4,None,2024-07-02 08h54.36.822740 +0900,
Images/Speaker1.jpg,Images/Speaker2.jpg,Images/Speaker3.jpg,Images/Speaker4.jpg,Audio/Speaker4_Per/P4-1-Per.wav,Speaker4,گوینده۴,1,58,138,60,,,,,55.24566454199885,,,,,,,,,,,,,,,,,,,,,,,,,,,,,,,,,,,,,,,,,49.57386799999949,0.0,False,49.5740623749989,675099,001,2024-07-02_08h54.31.566,5-29,2024.1.4,None,2024-07-02 08h54.36.822740 +0900,
Images/Speaker1.jpg,Images/Speaker2.jpg,Images/Speaker3.jpg,Images/Speaker4.jpg,Audio/Speaker2_Per/P2-10-Per.wav,Speaker2,گوینده۲,1,59,139,29,,,,,55.24566454199885,,,,,,,,,,,,,,,,,,,,,,,,,,,,,,,,,,,,,,,,,49.59049179199792,0.0,False,49.59066737499961,675099,001,2024-07-02_08h54.31.566,5-29,2024.1.4,None,2024-07-02 08h54.36.822740 +0900,
Images/Speaker1.jpg,Images/Speaker2.jpg,Images/Speaker3.jpg,Images/Speaker4.jpg,Audio/Speaker2_Per/P2-6-Per.wav,Speaker2,گوینده۲,1,60,140,25,,,,,55.24566454199885,,,,,,,,,,,,,,,,,,,,,,,,,,,,,,,,,,,,,,,,,49.60641849999956,0.0,False,49.606592124997405,675099,001,2024-07-02_08h54.31.566,5-29,2024.1.4,None,2024-07-02 08h54.36.822740 +0900,
Images/Speaker1.jpg,Images/Speaker2.jpg,Images/Speaker3.jpg,Images/Speaker4.jpg,Audio/Speaker1_Per/P1-5-Per.wav,Speaker1,گوینده ۱,1,61,141,4,,,,,55.24566454199885,,,,,,,,,,,,,,,,,,,,,,,,,,,,,,,,,,,,,,,,,49.62246058299934,0.0,False,49.62263733299915,675099,001,2024-07-02_08h54.31.566,5-29,2024.1.4,None,2024-07-02 08h54.36.822740 +0900,
Images/Speaker1.jpg,Images/Speaker2.jpg,Images/Speaker3.jpg,Images/Speaker4.jpg,Audio/Speaker1_Per/P1-3-Per.wav,Speaker1,گوینده ۱,1,62,142,2,,,,,55.24566454199885,,,,,,,,,,,,,,,,,,,,,,,,,,,,,,,,,,,,,,,,,49.63853054199717,0.0,False,49.638707374997466,675099,001,2024-07-02_08h54.31.566,5-29,2024.1.4,None,2024-07-02 08h54.36.822740 +0900,
Images/Speaker1.jpg,Images/Speaker2.jpg,Images/Speaker3.jpg,Images/Speaker4.jpg,Audio/Speaker2_Per/P2-14-Per.wav,Speaker2,گوینده۲,1,63,143,33,,,,,55.24566454199885,,,,,,,,,,,,,,,,,,,,,,,,,,,,,,,,,,,,,,,,,49.65530708299775,0.0,False,49.65546758299752,675099,001,2024-07-02_08h54.31.566,5-29,2024.1.4,None,2024-07-02 08h54.36.822740 +0900,
Images/Speaker1.jpg,Images/Speaker2.jpg,Images/Speaker3.jpg,Images/Speaker4.jpg,Audio/Speaker4_Per/P4-9-Per.wav,Speaker4,گوینده۴,1,64,144,68,,,,,55.24566454199885,,,,,,,,,,,,,,,,,,,,,,,,,,,,,,,,,,,,,,,,,49.67133008299788,0.0,False,49.67151762499998,675099,001,2024-07-02_08h54.31.566,5-29,2024.1.4,None,2024-07-02 08h54.36.822740 +0900,
Images/Speaker1.jpg,Images/Speaker2.jpg,Images/Speaker3.jpg,Images/Speaker4.jpg,Audio/Speaker2_Per/P2-17-Per.wav,Speaker2,گوینده۲,1,65,145,36,,,,,55.24566454199885,,,,,,,,,,,,,,,,,,,,,,,,,,,,,,,,,,,,,,,,,49.68730420799693,0.0,False,49.68750233299943,675099,001,2024-07-02_08h54.31.566,5-29,2024.1.4,None,2024-07-02 08h54.36.822740 +0900,
Images/Speaker1.jpg,Images/Speaker2.jpg,Images/Speaker3.jpg,Images/Speaker4.jpg,Audio/Speaker4_Per/P4-4-Per.wav,Speaker4,گوینده۴,1,66,146,63,,,,,55.24566454199885,,,,,,,,,,,,,,,,,,,,,,,,,,,,,,,,,,,,,,,,,49.70336408299772,0.0,False,49.70354070800022,675099,001,2024-07-02_08h54.31.566,5-29,2024.1.4,None,2024-07-02 08h54.36.822740 +0900,
Images/Speaker1.jpg,Images/Speaker2.jpg,Images/Speaker3.jpg,Images/Speaker4.jpg,Audio/Speaker2_Per/P2-2-Per.wav,Speaker2,گوینده۲,1,67,147,21,,,,,55.24566454199885,,,,,,,,,,,,,,,,,,,,,,,,,,,,,,,,,,,,,,,,,49.719949457998155,0.0,False,49.72013175000029,675099,001,2024-07-02_08h54.31.566,5-29,2024.1.4,None,2024-07-02 08h54.36.822740 +0900,
Images/Speaker1.jpg,Images/Speaker2.jpg,Images/Speaker3.jpg,Images/Speaker4.jpg,Audio/Speaker3_Per/P3-8-Per.wav,Speaker3,گوینده۳,1,68,148,47,,,,,55.24566454199885,,,,,,,,,,,,,,,,,,,,,,,,,,,,,,,,,,,,,,,,,49.73590299999705,0.0,False,49.73608308300027,675099,001,2024-07-02_08h54.31.566,5-29,2024.1.4,None,2024-07-02 08h54.36.822740 +0900,
Images/Speaker1.jpg,Images/Speaker2.jpg,Images/Speaker3.jpg,Images/Speaker4.jpg,Audio/Speaker3_Per/P3-16-Per.wav,Speaker3,گوینده۳,1,69,149,55,,,,,55.24566454199885,,,,,,,,,,,,,,,,,,,,,,,,,,,,,,,,,,,,,,,,,49.75183579199802,0.0,False,49.75199958299709,675099,001,2024-07-02_08h54.31.566,5-29,2024.1.4,None,2024-07-02 08h54.36.822740 +0900,
Images/Speaker1.jpg,Images/Speaker2.jpg,Images/Speaker3.jpg,Images/Speaker4.jpg,Audio/Speaker4_Per/P4-20-Per.wav,Speaker4,گوینده۴,1,70,150,79,,,,,55.24566454199885,,,,,,,,,,,,,,,,,,,,,,,,,,,,,,,,,,,,,,,,,49.76775912499943,0.0,False,49.76797520800028,675099,001,2024-07-02_08h54.31.566,5-29,2024.1.4,None,2024-07-02 08h54.36.822740 +0900,
Images/Speaker1.jpg,Images/Speaker2.jpg,Images/Speaker3.jpg,Images/Speaker4.jpg,Audio/Speaker2_Per/P2-1-Per.wav,Speaker2,گوینده۲,1,71,151,20,,,,,55.24566454199885,,,,,,,,,,,,,,,,,,,,,,,,,,,,,,,,,,,,,,,,,49.78424812499725,0.0,False,49.78443912500006,675099,001,2024-07-02_08h54.31.566,5-29,2024.1.4,None,2024-07-02 08h54.36.822740 +0900,
Images/Speaker1.jpg,Images/Speaker2.jpg,Images/Speaker3.jpg,Images/Speaker4.jpg,Audio/Speaker3_Per/P3-19-Per.wav,Speaker3,گوینده۳,1,72,152,58,,,,,55.24566454199885,,,,,,,,,,,,,,,,,,,,,,,,,,,,,,,,,,,,,,,,,49.80030133299806,0.0,False,49.80046274999768,675099,001,2024-07-02_08h54.31.566,5-29,2024.1.4,None,2024-07-02 08h54.36.822740 +0900,
Images/Speaker1.jpg,Images/Speaker2.jpg,Images/Speaker3.jpg,Images/Speaker4.jpg,Audio/Speaker1_Per/P1-6-Per.wav,Speaker1,گوینده ۱,1,73,153,5,,,,,55.24566454199885,,,,,,,,,,,,,,,,,,,,,,,,,,,,,,,,,,,,,,,,,49.81635683299828,0.0,False,49.81656195799951,675099,001,2024-07-02_08h54.31.566,5-29,2024.1.4,None,2024-07-02 08h54.36.822740 +0900,
Images/Speaker1.jpg,Images/Speaker2.jpg,Images/Speaker3.jpg,Images/Speaker4.jpg,Audio/Speaker4_Per/P4-6-Per.wav,Speaker4,گوینده۴,1,74,154,65,,,,,55.24566454199885,,,,,,,,,,,,,,,,,,,,,,,,,,,,,,,,,,,,,,,,,49.832461874997534,0.0,False,49.83262854199711,675099,001,2024-07-02_08h54.31.566,5-29,2024.1.4,None,2024-07-02 08h54.36.822740 +0900,
Images/Speaker1.jpg,Images/Speaker2.jpg,Images/Speaker3.jpg,Images/Speaker4.jpg,Audio/Speaker4_Per/P4-18-Per.wav,Speaker4,گوینده۴,1,75,155,77,,,,,55.24566454199885,,,,,,,,,,,,,,,,,,,,,,,,,,,,,,,,,,,,,,,,,49.84894608299874,0.0,False,49.84911758299859,675099,001,2024-07-02_08h54.31.566,5-29,2024.1.4,None,2024-07-02 08h54.36.822740 +0900,
Images/Speaker1.jpg,Images/Speaker2.jpg,Images/Speaker3.jpg,Images/Speaker4.jpg,Audio/Speaker3_Per/P3-17-Per.wav,Speaker3,گوینده۳,1,76,156,56,,,,,55.24566454199885,,,,,,,,,,,,,,,,,,,,,,,,,,,,,,,,,,,,,,,,,49.86510875000022,0.0,False,49.865289916997426,675099,001,2024-07-02_08h54.31.566,5-29,2024.1.4,None,2024-07-02 08h54.36.822740 +0900,
Images/Speaker1.jpg,Images/Speaker2.jpg,Images/Speaker3.jpg,Images/Speaker4.jpg,Audio/Speaker3_Per/P3-13-Per.wav,Speaker3,گوینده۳,1,77,157,52,,,,,55.24566454199885,,,,,,,,,,,,,,,,,,,,,,,,,,,,,,,,,,,,,,,,,49.88124158299979,0.0,False,49.881414499999664,675099,001,2024-07-02_08h54.31.566,5-29,2024.1.4,None,2024-07-02 08h54.36.822740 +0900,
Images/Speaker1.jpg,Images/Speaker2.jpg,Images/Speaker3.jpg,Images/Speaker4.jpg,Audio/Speaker4_Per/P4-11-Per.wav,Speaker4,گوینده۴,1,78,158,70,,,,,55.24566454199885,,,,,,,,,,,,,,,,,,,,,,,,,,,,,,,,,,,,,,,,,49.89712483299809,0.0,False,49.897306707996904,675099,001,2024-07-02_08h54.31.566,5-29,2024.1.4,None,2024-07-02 08h54.36.822740 +0900,
Images/Speaker1.jpg,Images/Speaker2.jpg,Images/Speaker3.jpg,Images/Speaker4.jpg,Audio/Speaker1_Per/P1-8-Per.wav,Speaker1,گوینده ۱,1,79,159,7,,,,,55.24566454199885,,,,,,,,,,,,,,,,,,,,,,,,,,,,,,,,,,,,,,,,,49.913760499999626,0.0,False,49.9139159999977,675099,001,2024-07-02_08h54.31.566,5-29,2024.1.4,None,2024-07-02 08h54.36.822740 +0900,
Images/Speaker1.jpg,Images/Speaker2.jpg,Images/Speaker3.jpg,Images/Speaker4.jpg,Audio/Speaker4_Per/P4-13-Per.wav,Speaker4,گوینده۴,2,0,160,72,,,,,55.24566454199885,,,,,,,,,,,,,,,,,,,,,,,,,,,,,,,,,,,,,,,,,49.929658041997754,0.0,False,49.92984316699949,675099,001,2024-07-02_08h54.31.566,5-29,2024.1.4,None,2024-07-02 08h54.36.822740 +0900,
Images/Speaker1.jpg,Images/Speaker2.jpg,Images/Speaker3.jpg,Images/Speaker4.jpg,Audio/Speaker3_Per/P3-11-Per.wav,Speaker3,گوینده۳,2,1,161,50,,,,,55.24566454199885,,,,,,,,,,,,,,,,,,,,,,,,,,,,,,,,,,,,,,,,,49.94584083299924,0.0,False,49.94600774999708,675099,001,2024-07-02_08h54.31.566,5-29,2024.1.4,None,2024-07-02 08h54.36.822740 +0900,
Images/Speaker1.jpg,Images/Speaker2.jpg,Images/Speaker3.jpg,Images/Speaker4.jpg,Audio/Speaker4_Per/P4-3-Per.wav,Speaker4,گوینده۴,2,2,162,62,,,,,55.24566454199885,,,,,,,,,,,,,,,,,,,,,,,,,,,,,,,,,,,,,,,,,49.96177049999824,0.0,False,49.96193341699836,675099,001,2024-07-02_08h54.31.566,5-29,2024.1.4,None,2024-07-02 08h54.36.822740 +0900,
Images/Speaker1.jpg,Images/Speaker2.jpg,Images/Speaker3.jpg,Images/Speaker4.jpg,Audio/Speaker3_Per/P3-7-Per.wav,Speaker3,گوینده۳,2,3,163,46,,,,,55.24566454199885,,,,,,,,,,,,,,,,,,,,,,,,,,,,,,,,,,,,,,,,,49.97804483299842,0.0,False,49.978219166998315,675099,001,2024-07-02_08h54.31.566,5-29,2024.1.4,None,2024-07-02 08h54.36.822740 +0900,
Images/Speaker1.jpg,Images/Speaker2.jpg,Images/Speaker3.jpg,Images/Speaker4.jpg,Audio/Speaker1_Per/P1-13-Per.wav,Speaker1,گوینده ۱,2,4,164,12,,,,,55.24566454199885,,,,,,,,,,,,,,,,,,,,,,,,,,,,,,,,,,,,,,,,,49.9941017079982,0.0,False,49.99426316699828,675099,001,2024-07-02_08h54.31.566,5-29,2024.1.4,None,2024-07-02 08h54.36.822740 +0900,
Images/Speaker1.jpg,Images/Speaker2.jpg,Images/Speaker3.jpg,Images/Speaker4.jpg,Audio/Speaker2_Per/P2-8-Per.wav,Speaker2,گوینده۲,2,5,165,27,,,,,55.24566454199885,,,,,,,,,,,,,,,,,,,,,,,,,,,,,,,,,,,,,,,,,50.01012254200032,0.0,False,50.01028854199831,675099,001,2024-07-02_08h54.31.566,5-29,2024.1.4,None,2024-07-02 08h54.36.822740 +0900,
Images/Speaker1.jpg,Images/Speaker2.jpg,Images/Speaker3.jpg,Images/Speaker4.jpg,Audio/Speaker1_Per/P1-18-Per.wav,Speaker1,گوینده ۱,2,6,166,17,,,,,55.24566454199885,,,,,,,,,,,,,,,,,,,,,,,,,,,,,,,,,,,,,,,,,50.026175874998444,0.0,False,50.026353457997175,675099,001,2024-07-02_08h54.31.566,5-29,2024.1.4,None,2024-07-02 08h54.36.822740 +0900,
Images/Speaker1.jpg,Images/Speaker2.jpg,Images/Speaker3.jpg,Images/Speaker4.jpg,Audio/Speaker4_Per/P4-16-Per.wav,Speaker4,گوینده۴,2,7,167,75,,,,,55.24566454199885,,,,,,,,,,,,,,,,,,,,,,,,,,,,,,,,,,,,,,,,,50.0428605829984,0.0,False,50.043028249998315,675099,001,2024-07-02_08h54.31.566,5-29,2024.1.4,None,2024-07-02 08h54.36.822740 +0900,
Images/Speaker1.jpg,Images/Speaker2.jpg,Images/Speaker3.jpg,Images/Speaker4.jpg,Audio/Speaker3_Per/P3-20-Per.wav,Speaker3,گوینده۳,2,8,168,59,,,,,55.24566454199885,,,,,,,,,,,,,,,,,,,,,,,,,,,,,,,,,,,,,,,,,50.05886320799982,0.0,False,50.05902858300033,675099,001,2024-07-02_08h54.31.566,5-29,2024.1.4,None,2024-07-02 08h54.36.822740 +0900,
Images/Speaker1.jpg,Images/Speaker2.jpg,Images/Speaker3.jpg,Images/Speaker4.jpg,Audio/Speaker3_Per/P3-13-Per.wav,Speaker3,گوینده۳,2,9,169,52,,,,,55.24566454199885,,,,,,,,,,,,,,,,,,,,,,,,,,,,,,,,,,,,,,,,,50.07484970799851,0.0,False,50.075002707999374,675099,001,2024-07-02_08h54.31.566,5-29,2024.1.4,None,2024-07-02 08h54.36.822740 +0900,
Images/Speaker1.jpg,Images/Speaker2.jpg,Images/Speaker3.jpg,Images/Speaker4.jpg,Audio/Speaker2_Per/P2-19-Per.wav,Speaker2,گوینده۲,2,10,170,38,,,,,55.24566454199885,,,,,,,,,,,,,,,,,,,,,,,,,,,,,,,,,,,,,,,,,50.09083795799961,0.0,False,50.09099958299703,675099,001,2024-07-02_08h54.31.566,5-29,2024.1.4,None,2024-07-02 08h54.36.822740 +0900,
Images/Speaker1.jpg,Images/Speaker2.jpg,Images/Speaker3.jpg,Images/Speaker4.jpg,Audio/Speaker3_Per/P3-19-Per.wav,Speaker3,گوینده۳,2,11,171,58,,,,,55.24566454199885,,,,,,,,,,,,,,,,,,,,,,,,,,,,,,,,,,,,,,,,,50.10746379199918,0.0,False,50.10762512499787,675099,001,2024-07-02_08h54.31.566,5-29,2024.1.4,None,2024-07-02 08h54.36.822740 +0900,
Images/Speaker1.jpg,Images/Speaker2.jpg,Images/Speaker3.jpg,Images/Speaker4.jpg,Audio/Speaker2_Per/P2-2-Per.wav,Speaker2,گوینده۲,2,12,172,21,,,,,55.24566454199885,,,,,,,,,,,,,,,,,,,,,,,,,,,,,,,,,,,,,,,,,50.12340391699763,0.0,False,50.12358904199937,675099,001,2024-07-02_08h54.31.566,5-29,2024.1.4,None,2024-07-02 08h54.36.822740 +0900,
Images/Speaker1.jpg,Images/Speaker2.jpg,Images/Speaker3.jpg,Images/Speaker4.jpg,Audio/Speaker1_Per/P1-17-Per.wav,Speaker1,گوینده ۱,2,13,173,16,,,,,55.24566454199885,,,,,,,,,,,,,,,,,,,,,,,,,,,,,,,,,,,,,,,,,50.13943599999766,0.0,False,50.13965449999887,675099,001,2024-07-02_08h54.31.566,5-29,2024.1.4,None,2024-07-02 08h54.36.822740 +0900,
Images/Speaker1.jpg,Images/Speaker2.jpg,Images/Speaker3.jpg,Images/Speaker4.jpg,Audio/Speaker3_Per/P3-12-Per.wav,Speaker3,گوینده۳,2,14,174,51,,,,,55.24566454199885,,,,,,,,,,,,,,,,,,,,,,,,,,,,,,,,,,,,,,,,,50.15552824999759,0.0,False,50.15577162499903,675099,001,2024-07-02_08h54.31.566,5-29,2024.1.4,None,2024-07-02 08h54.36.822740 +0900,
Images/Speaker1.jpg,Images/Speaker2.jpg,Images/Speaker3.jpg,Images/Speaker4.jpg,Audio/Speaker4_Per/P4-12-Per.wav,Speaker4,گوینده۴,2,15,175,71,,,,,55.24566454199885,,,,,,,,,,,,,,,,,,,,,,,,,,,,,,,,,,,,,,,,,50.17210791699836,0.0,False,50.1722973750002,675099,001,2024-07-02_08h54.31.566,5-29,2024.1.4,None,2024-07-02 08h54.36.822740 +0900,
Images/Speaker1.jpg,Images/Speaker2.jpg,Images/Speaker3.jpg,Images/Speaker4.jpg,Audio/Speaker3_Per/P3-3-Per.wav,Speaker3,گوینده۳,2,16,176,42,,,,,55.24566454199885,,,,,,,,,,,,,,,,,,,,,,,,,,,,,,,,,,,,,,,,,50.188128457997664,0.0,False,50.1882931250002,675099,001,2024-07-02_08h54.31.566,5-29,2024.1.4,None,2024-07-02 08h54.36.822740 +0900,
Images/Speaker1.jpg,Images/Speaker2.jpg,Images/Speaker3.jpg,Images/Speaker4.jpg,Audio/Speaker1_Per/P1-6-Per.wav,Speaker1,گوینده ۱,2,17,177,5,,,,,55.24566454199885,,,,,,,,,,,,,,,,,,,,,,,,,,,,,,,,,,,,,,,,,50.204165916999045,0.0,False,50.20433687499826,675099,001,2024-07-02_08h54.31.566,5-29,2024.1.4,None,2024-07-02 08h54.36.822740 +0900,
Images/Speaker1.jpg,Images/Speaker2.jpg,Images/Speaker3.jpg,Images/Speaker4.jpg,Audio/Speaker4_Per/P4-8-Per.wav,Speaker4,گوینده۴,2,18,178,67,,,,,55.24566454199885,,,,,,,,,,,,,,,,,,,,,,,,,,,,,,,,,,,,,,,,,50.22027408299982,0.0,False,50.220508999998856,675099,001,2024-07-02_08h54.31.566,5-29,2024.1.4,None,2024-07-02 08h54.36.822740 +0900,
Images/Speaker1.jpg,Images/Speaker2.jpg,Images/Speaker3.jpg,Images/Speaker4.jpg,Audio/Speaker3_Per/P3-9-Per.wav,Speaker3,گوینده۳,2,19,179,48,,,,,55.24566454199885,,,,,,,,,,,,,,,,,,,,,,,,,,,,,,,,,,,,,,,,,50.23682279199784,0.0,False,50.23699800000031,675099,001,2024-07-02_08h54.31.566,5-29,2024.1.4,None,2024-07-02 08h54.36.822740 +0900,
Images/Speaker1.jpg,Images/Speaker2.jpg,Images/Speaker3.jpg,Images/Speaker4.jpg,Audio/Speaker1_Per/P1-9-Per.wav,Speaker1,گوینده ۱,2,20,180,8,,,,,55.24566454199885,,,,,,,,,,,,,,,,,,,,,,,,,,,,,,,,,,,,,,,,,50.25274808299946,0.0,False,50.252910374998464,675099,001,2024-07-02_08h54.31.566,5-29,2024.1.4,None,2024-07-02 08h54.36.822740 +0900,
Images/Speaker1.jpg,Images/Speaker2.jpg,Images/Speaker3.jpg,Images/Speaker4.jpg,Audio/Speaker2_Per/P2-7-Per.wav,Speaker2,گوینده۲,2,21,181,26,,,,,55.24566454199885,,,,,,,,,,,,,,,,,,,,,,,,,,,,,,,,,,,,,,,,,50.26880462499685,0.0,False,50.268973666999955,675099,001,2024-07-02_08h54.31.566,5-29,2024.1.4,None,2024-07-02 08h54.36.822740 +0900,
Images/Speaker1.jpg,Images/Speaker2.jpg,Images/Speaker3.jpg,Images/Speaker4.jpg,Audio/Speaker1_Per/P1-15-Per.wav,Speaker1,گوینده ۱,2,22,182,14,,,,,55.24566454199885,,,,,,,,,,,,,,,,,,,,,,,,,,,,,,,,,,,,,,,,,50.28488991699851,0.0,False,50.28506291699887,675099,001,2024-07-02_08h54.31.566,5-29,2024.1.4,None,2024-07-02 08h54.36.822740 +0900,
Images/Speaker1.jpg,Images/Speaker2.jpg,Images/Speaker3.jpg,Images/Speaker4.jpg,Audio/Speaker2_Per/P2-14-Per.wav,Speaker2,گوینده۲,2,23,183,33,,,,,55.24566454199885,,,,,,,,,,,,,,,,,,,,,,,,,,,,,,,,,,,,,,,,,50.301524708000215,0.0,False,50.30170929199812,675099,001,2024-07-02_08h54.31.566,5-29,2024.1.4,None,2024-07-02 08h54.36.822740 +0900,
Images/Speaker1.jpg,Images/Speaker2.jpg,Images/Speaker3.jpg,Images/Speaker4.jpg,Audio/Speaker4_Per/P4-14-Per.wav,Speaker4,گوینده۴,2,24,184,73,,,,,55.24566454199885,,,,,,,,,,,,,,,,,,,,,,,,,,,,,,,,,,,,,,,,,50.31761658299729,0.0,False,50.31777887499993,675099,001,2024-07-02_08h54.31.566,5-29,2024.1.4,None,2024-07-02 08h54.36.822740 +0900,
Images/Speaker1.jpg,Images/Speaker2.jpg,Images/Speaker3.jpg,Images/Speaker4.jpg,Audio/Speaker2_Per/P2-1-Per.wav,Speaker2,گوینده۲,2,25,185,20,,,,,55.24566454199885,,,,,,,,,,,,,,,,,,,,,,,,,,,,,,,,,,,,,,,,,50.33371441700001,0.0,False,50.333903499998996,675099,001,2024-07-02_08h54.31.566,5-29,2024.1.4,None,2024-07-02 08h54.36.822740 +0900,
Images/Speaker1.jpg,Images/Speaker2.jpg,Images/Speaker3.jpg,Images/Speaker4.jpg,Audio/Speaker1_Per/P1-16-Per.wav,Speaker1,گوینده ۱,2,26,186,15,,,,,55.24566454199885,,,,,,,,,,,,,,,,,,,,,,,,,,,,,,,,,,,,,,,,,50.349700208000286,0.0,False,50.34987620799802,675099,001,2024-07-02_08h54.31.566,5-29,2024.1.4,None,2024-07-02 08h54.36.822740 +0900,
Images/Speaker1.jpg,Images/Speaker2.jpg,Images/Speaker3.jpg,Images/Speaker4.jpg,Audio/Speaker4_Per/P4-15-Per.wav,Speaker4,گوینده۴,2,27,187,74,,,,,55.24566454199885,,,,,,,,,,,,,,,,,,,,,,,,,,,,,,,,,,,,,,,,,50.36625633299991,0.0,False,50.36642524999843,675099,001,2024-07-02_08h54.31.566,5-29,2024.1.4,None,2024-07-02 08h54.36.822740 +0900,
Images/Speaker1.jpg,Images/Speaker2.jpg,Images/Speaker3.jpg,Images/Speaker4.jpg,Audio/Speaker1_Per/P1-8-Per.wav,Speaker1,گوینده ۱,2,28,188,7,,,,,55.24566454199885,,,,,,,,,,,,,,,,,,,,,,,,,,,,,,,,,,,,,,,,,50.382315666996874,0.0,False,50.38247691699871,675099,001,2024-07-02_08h54.31.566,5-29,2024.1.4,None,2024-07-02 08h54.36.822740 +0900,
Images/Speaker1.jpg,Images/Speaker2.jpg,Images/Speaker3.jpg,Images/Speaker4.jpg,Audio/Speaker1_Per/P1-2-Per.wav,Speaker1,گوینده ۱,2,29,189,1,,,,,55.24566454199885,,,,,,,,,,,,,,,,,,,,,,,,,,,,,,,,,,,,,,,,,50.3981512499995,0.0,False,50.398313582998526,675099,001,2024-07-02_08h54.31.566,5-29,2024.1.4,None,2024-07-02 08h54.36.822740 +0900,
Images/Speaker1.jpg,Images/Speaker2.jpg,Images/Speaker3.jpg,Images/Speaker4.jpg,Audio/Speaker3_Per/P3-10-Per.wav,Speaker3,گوینده۳,2,30,190,49,,,,,55.24566454199885,,,,,,,,,,,,,,,,,,,,,,,,,,,,,,,,,,,,,,,,,50.413968416996795,0.0,False,50.414153499998065,675099,001,2024-07-02_08h54.31.566,5-29,2024.1.4,None,2024-07-02 08h54.36.822740 +0900,
Images/Speaker1.jpg,Images/Speaker2.jpg,Images/Speaker3.jpg,Images/Speaker4.jpg,Audio/Speaker4_Per/P4-9-Per.wav,Speaker4,گوینده۴,2,31,191,68,,,,,55.24566454199885,,,,,,,,,,,,,,,,,,,,,,,,,,,,,,,,,,,,,,,,,50.430521999998746,0.0,False,50.430697416999465,675099,001,2024-07-02_08h54.31.566,5-29,2024.1.4,None,2024-07-02 08h54.36.822740 +0900,
Images/Speaker1.jpg,Images/Speaker2.jpg,Images/Speaker3.jpg,Images/Speaker4.jpg,Audio/Speaker2_Per/P2-11-Per.wav,Speaker2,گوینده۲,2,32,192,30,,,,,55.24566454199885,,,,,,,,,,,,,,,,,,,,,,,,,,,,,,,,,,,,,,,,,50.44630041699929,0.0,False,50.446450082999945,675099,001,2024-07-02_08h54.31.566,5-29,2024.1.4,None,2024-07-02 08h54.36.822740 +0900,
Images/Speaker1.jpg,Images/Speaker2.jpg,Images/Speaker3.jpg,Images/Speaker4.jpg,Audio/Speaker2_Per/P2-5-Per.wav,Speaker2,گوینده۲,2,33,193,24,,,,,55.24566454199885,,,,,,,,,,,,,,,,,,,,,,,,,,,,,,,,,,,,,,,,,50.46212058299716,0.0,False,50.462339916997735,675099,001,2024-07-02_08h54.31.566,5-29,2024.1.4,None,2024-07-02 08h54.36.822740 +0900,
Images/Speaker1.jpg,Images/Speaker2.jpg,Images/Speaker3.jpg,Images/Speaker4.jpg,Audio/Speaker4_Per/P4-4-Per.wav,Speaker4,گوینده۴,2,34,194,63,,,,,55.24566454199885,,,,,,,,,,,,,,,,,,,,,,,,,,,,,,,,,,,,,,,,,50.47808149999764,0.0,False,50.47829383299904,675099,001,2024-07-02_08h54.31.566,5-29,2024.1.4,None,2024-07-02 08h54.36.822740 +0900,
Images/Speaker1.jpg,Images/Speaker2.jpg,Images/Speaker3.jpg,Images/Speaker4.jpg,Audio/Speaker3_Per/P3-16-Per.wav,Speaker3,گوینده۳,2,35,195,55,,,,,55.24566454199885,,,,,,,,,,,,,,,,,,,,,,,,,,,,,,,,,,,,,,,,,50.49462720799784,0.0,False,50.494802499997604,675099,001,2024-07-02_08h54.31.566,5-29,2024.1.4,None,2024-07-02 08h54.36.822740 +0900,
Images/Speaker1.jpg,Images/Speaker2.jpg,Images/Speaker3.jpg,Images/Speaker4.jpg,Audio/Speaker1_Per/P1-11-Per.wav,Speaker1,گوینده ۱,2,36,196,10,,,,,55.24566454199885,,,,,,,,,,,,,,,,,,,,,,,,,,,,,,,,,,,,,,,,,50.510465499999555,0.0,False,50.51061112499883,675099,001,2024-07-02_08h54.31.566,5-29,2024.1.4,None,2024-07-02 08h54.36.822740 +0900,
Images/Speaker1.jpg,Images/Speaker2.jpg,Images/Speaker3.jpg,Images/Speaker4.jpg,Audio/Speaker3_Per/P3-4-Per.wav,Speaker3,گوینده۳,2,37,197,43,,,,,55.24566454199885,,,,,,,,,,,,,,,,,,,,,,,,,,,,,,,,,,,,,,,,,50.5264837499999,0.0,False,50.52664179199928,675099,001,2024-07-02_08h54.31.566,5-29,2024.1.4,None,2024-07-02 08h54.36.822740 +0900,
Images/Speaker1.jpg,Images/Speaker2.jpg,Images/Speaker3.jpg,Images/Speaker4.jpg,Audio/Speaker3_Per/P3-6-Per.wav,Speaker3,گوینده۳,2,38,198,45,,,,,55.24566454199885,,,,,,,,,,,,,,,,,,,,,,,,,,,,,,,,,,,,,,,,,50.54247545799808,0.0,False,50.54263883299791,675099,001,2024-07-02_08h54.31.566,5-29,2024.1.4,None,2024-07-02 08h54.36.822740 +0900,
Images/Speaker1.jpg,Images/Speaker2.jpg,Images/Speaker3.jpg,Images/Speaker4.jpg,Audio/Speaker2_Per/P2-18-Per.wav,Speaker2,گوینده۲,2,39,199,37,,,,,55.24566454199885,,,,,,,,,,,,,,,,,,,,,,,,,,,,,,,,,,,,,,,,,50.559166499999264,0.0,False,50.55932445799772,675099,001,2024-07-02_08h54.31.566,5-29,2024.1.4,None,2024-07-02 08h54.36.822740 +0900,
Images/Speaker1.jpg,Images/Speaker2.jpg,Images/Speaker3.jpg,Images/Speaker4.jpg,Audio/Speaker3_Per/P3-5-Per.wav,Speaker3,گوینده۳,2,40,200,44,,,,,55.24566454199885,,,,,,,,,,,,,,,,,,,,,,,,,,,,,,,,,,,,,,,,,50.57490116699773,0.0,False,50.575076624998474,675099,001,2024-07-02_08h54.31.566,5-29,2024.1.4,None,2024-07-02 08h54.36.822740 +0900,
Images/Speaker1.jpg,Images/Speaker2.jpg,Images/Speaker3.jpg,Images/Speaker4.jpg,Audio/Speaker2_Per/P2-12-Per.wav,Speaker2,گوینده۲,2,41,201,31,,,,,55.24566454199885,,,,,,,,,,,,,,,,,,,,,,,,,,,,,,,,,,,,,,,,,50.59092008299922,0.0,False,50.59110287499789,675099,001,2024-07-02_08h54.31.566,5-29,2024.1.4,None,2024-07-02 08h54.36.822740 +0900,
Images/Speaker1.jpg,Images/Speaker2.jpg,Images/Speaker3.jpg,Images/Speaker4.jpg,Audio/Speaker4_Per/P4-2-Per.wav,Speaker4,گوینده۴,2,42,202,61,,,,,55.24566454199885,,,,,,,,,,,,,,,,,,,,,,,,,,,,,,,,,,,,,,,,,50.60675254200032,0.0,False,50.607004374996905,675099,001,2024-07-02_08h54.31.566,5-29,2024.1.4,None,2024-07-02 08h54.36.822740 +0900,
Images/Speaker1.jpg,Images/Speaker2.jpg,Images/Speaker3.jpg,Images/Speaker4.jpg,Audio/Speaker2_Per/P2-17-Per.wav,Speaker2,گوینده۲,2,43,203,36,,,,,55.24566454199885,,,,,,,,,,,,,,,,,,,,,,,,,,,,,,,,,,,,,,,,,50.62346987499768,0.0,False,50.62364075000005,675099,001,2024-07-02_08h54.31.566,5-29,2024.1.4,None,2024-07-02 08h54.36.822740 +0900,
Images/Speaker1.jpg,Images/Speaker2.jpg,Images/Speaker3.jpg,Images/Speaker4.jpg,Audio/Speaker4_Per/P4-7-Per.wav,Speaker4,گوینده۴,2,44,204,66,,,,,55.24566454199885,,,,,,,,,,,,,,,,,,,,,,,,,,,,,,,,,,,,,,,,,50.639766582997254,0.0,False,50.639970041997,675099,001,2024-07-02_08h54.31.566,5-29,2024.1.4,None,2024-07-02 08h54.36.822740 +0900,
Images/Speaker1.jpg,Images/Speaker2.jpg,Images/Speaker3.jpg,Images/Speaker4.jpg,Audio/Speaker1_Per/P1-3-Per.wav,Speaker1,گوینده ۱,2,45,205,2,,,,,55.24566454199885,,,,,,,,,,,,,,,,,,,,,,,,,,,,,,,,,,,,,,,,,50.65586295799949,0.0,False,50.65609470799973,675099,001,2024-07-02_08h54.31.566,5-29,2024.1.4,None,2024-07-02 08h54.36.822740 +0900,
Images/Speaker1.jpg,Images/Speaker2.jpg,Images/Speaker3.jpg,Images/Speaker4.jpg,Audio/Speaker4_Per/P4-17-Per.wav,Speaker4,گوینده۴,2,46,206,76,,,,,55.24566454199885,,,,,,,,,,,,,,,,,,,,,,,,,,,,,,,,,,,,,,,,,50.671694249998836,0.0,False,50.671859750000294,675099,001,2024-07-02_08h54.31.566,5-29,2024.1.4,None,2024-07-02 08h54.36.822740 +0900,
Images/Speaker1.jpg,Images/Speaker2.jpg,Images/Speaker3.jpg,Images/Speaker4.jpg,Audio/Speaker1_Per/P1-5-Per.wav,Speaker1,گوینده ۱,2,47,207,4,,,,,55.24566454199885,,,,,,,,,,,,,,,,,,,,,,,,,,,,,,,,,,,,,,,,,50.68829016699965,0.0,False,50.68845387499823,675099,001,2024-07-02_08h54.31.566,5-29,2024.1.4,None,2024-07-02 08h54.36.822740 +0900,
Images/Speaker1.jpg,Images/Speaker2.jpg,Images/Speaker3.jpg,Images/Speaker4.jpg,Audio/Speaker2_Per/P2-16-Per.wav,Speaker2,گوینده۲,2,48,208,35,,,,,55.24566454199885,,,,,,,,,,,,,,,,,,,,,,,,,,,,,,,,,,,,,,,,,50.70433395799773,0.0,False,50.70451583300019,675099,001,2024-07-02_08h54.31.566,5-29,2024.1.4,None,2024-07-02 08h54.36.822740 +0900,
Images/Speaker1.jpg,Images/Speaker2.jpg,Images/Speaker3.jpg,Images/Speaker4.jpg,Audio/Speaker1_Per/P1-4-Per.wav,Speaker1,گوینده ۱,2,49,209,13,,,,,55.24566454199885,,,,,,,,,,,,,,,,,,,,,,,,,,,,,,,,,,,,,,,,,50.72046291699735,0.0,False,50.72062629199718,675099,001,2024-07-02_08h54.31.566,5-29,2024.1.4,None,2024-07-02 08h54.36.822740 +0900,
Images/Speaker1.jpg,Images/Speaker2.jpg,Images/Speaker3.jpg,Images/Speaker4.jpg,Audio/Speaker2_Per/P2-6-Per.wav,Speaker2,گوینده۲,2,50,210,25,,,,,55.24566454199885,,,,,,,,,,,,,,,,,,,,,,,,,,,,,,,,,,,,,,,,,50.73647154199716,0.0,False,50.736657874997036,675099,001,2024-07-02_08h54.31.566,5-29,2024.1.4,None,2024-07-02 08h54.36.822740 +0900,
Images/Speaker1.jpg,Images/Speaker2.jpg,Images/Speaker3.jpg,Images/Speaker4.jpg,Audio/Speaker1_Per/P1-1-Per.wav,Speaker1,گوینده ۱,2,51,211,0,,,,,55.24566454199885,,,,,,,,,,,,,,,,,,,,,,,,,,,,,,,,,,,,,,,,,50.753198457998224,0.0,False,50.75336287499886,675099,001,2024-07-02_08h54.31.566,5-29,2024.1.4,None,2024-07-02 08h54.36.822740 +0900,
Images/Speaker1.jpg,Images/Speaker2.jpg,Images/Speaker3.jpg,Images/Speaker4.jpg,Audio/Speaker1_Per/P1-12-Per.wav,Speaker1,گوینده ۱,2,52,212,11,,,,,55.24566454199885,,,,,,,,,,,,,,,,,,,,,,,,,,,,,,,,,,,,,,,,,50.768999500000064,0.0,False,50.76916895799877,675099,001,2024-07-02_08h54.31.566,5-29,2024.1.4,None,2024-07-02 08h54.36.822740 +0900,
Images/Speaker1.jpg,Images/Speaker2.jpg,Images/Speaker3.jpg,Images/Speaker4.jpg,Audio/Speaker2_Per/P2-4-Per.wav,Speaker2,گوینده۲,2,53,213,23,,,,,55.24566454199885,,,,,,,,,,,,,,,,,,,,,,,,,,,,,,,,,,,,,,,,,50.78488029199798,0.0,False,50.785103582999,675099,001,2024-07-02_08h54.31.566,5-29,2024.1.4,None,2024-07-02 08h54.36.822740 +0900,
Images/Speaker1.jpg,Images/Speaker2.jpg,Images/Speaker3.jpg,Images/Speaker4.jpg,Audio/Speaker4_Per/P4-10-Per.wav,Speaker4,گوینده۴,2,54,214,69,,,,,55.24566454199885,,,,,,,,,,,,,,,,,,,,,,,,,,,,,,,,,,,,,,,,,50.8007429169993,0.0,False,50.800962833000085,675099,001,2024-07-02_08h54.31.566,5-29,2024.1.4,None,2024-07-02 08h54.36.822740 +0900,
Images/Speaker1.jpg,Images/Speaker2.jpg,Images/Speaker3.jpg,Images/Speaker4.jpg,Audio/Speaker4_Per/P4-5-Per.wav,Speaker4,گوینده۴,2,55,215,64,,,,,55.24566454199885,,,,,,,,,,,,,,,,,,,,,,,,,,,,,,,,,,,,,,,,,50.817515957998694,0.0,False,50.81768595799804,675099,001,2024-07-02_08h54.31.566,5-29,2024.1.4,None,2024-07-02 08h54.36.822740 +0900,
Images/Speaker1.jpg,Images/Speaker2.jpg,Images/Speaker3.jpg,Images/Speaker4.jpg,Audio/Speaker3_Per/P3-18-Per.wav,Speaker3,گوینده۳,2,56,216,57,,,,,55.24566454199885,,,,,,,,,,,,,,,,,,,,,,,,,,,,,,,,,,,,,,,,,50.8334639579989,0.0,False,50.83368399999745,675099,001,2024-07-02_08h54.31.566,5-29,2024.1.4,None,2024-07-02 08h54.36.822740 +0900,
Images/Speaker1.jpg,Images/Speaker2.jpg,Images/Speaker3.jpg,Images/Speaker4.jpg,Audio/Speaker1_Per/P1-20-Per.wav,Speaker1,گوینده ۱,2,57,217,19,,,,,55.24566454199885,,,,,,,,,,,,,,,,,,,,,,,,,,,,,,,,,,,,,,,,,50.84965099999681,0.0,False,50.849826666999434,675099,001,2024-07-02_08h54.31.566,5-29,2024.1.4,None,2024-07-02 08h54.36.822740 +0900,
Images/Speaker1.jpg,Images/Speaker2.jpg,Images/Speaker3.jpg,Images/Speaker4.jpg,Audio/Speaker2_Per/P2-20-Per.wav,Speaker2,گوینده۲,2,58,218,39,,,,,55.24566454199885,,,,,,,,,,,,,,,,,,,,,,,,,,,,,,,,,,,,,,,,,50.86578470799941,0.0,False,50.866014374998485,675099,001,2024-07-02_08h54.31.566,5-29,2024.1.4,None,2024-07-02 08h54.36.822740 +0900,
Images/Speaker1.jpg,Images/Speaker2.jpg,Images/Speaker3.jpg,Images/Speaker4.jpg,Audio/Speaker2_Per/P2-10-Per.wav,Speaker2,گوینده۲,2,59,219,29,,,,,55.24566454199885,,,,,,,,,,,,,,,,,,,,,,,,,,,,,,,,,,,,,,,,,50.88231591699878,0.0,False,50.88249991699922,675099,001,2024-07-02_08h54.31.566,5-29,2024.1.4,None,2024-07-02 08h54.36.822740 +0900,
Images/Speaker1.jpg,Images/Speaker2.jpg,Images/Speaker3.jpg,Images/Speaker4.jpg,Audio/Speaker3_Per/P3-15-Per.wav,Speaker3,گوینده۳,2,60,220,54,,,,,55.24566454199885,,,,,,,,,,,,,,,,,,,,,,,,,,,,,,,,,,,,,,,,,50.89843424999708,0.0,False,50.89861520799968,675099,001,2024-07-02_08h54.31.566,5-29,2024.1.4,None,2024-07-02 08h54.36.822740 +0900,
Images/Speaker1.jpg,Images/Speaker2.jpg,Images/Speaker3.jpg,Images/Speaker4.jpg,Audio/Speaker1_Per/P1-4-Per.wav,Speaker1,گوینده ۱,2,61,221,3,,,,,55.24566454199885,,,,,,,,,,,,,,,,,,,,,,,,,,,,,,,,,,,,,,,,,50.91427054199812,0.0,False,50.91444045800017,675099,001,2024-07-02_08h54.31.566,5-29,2024.1.4,None,2024-07-02 08h54.36.822740 +0900,
Images/Speaker1.jpg,Images/Speaker2.jpg,Images/Speaker3.jpg,Images/Speaker4.jpg,Audio/Speaker1_Per/P1-10-Per.wav,Speaker1,گوینده ۱,2,62,222,9,,,,,55.24566454199885,,,,,,,,,,,,,,,,,,,,,,,,,,,,,,,,,,,,,,,,,50.93036345799919,0.0,False,50.93053462500029,675099,001,2024-07-02_08h54.31.566,5-29,2024.1.4,None,2024-07-02 08h54.36.822740 +0900,
Images/Speaker1.jpg,Images/Speaker2.jpg,Images/Speaker3.jpg,Images/Speaker4.jpg,Audio/Speaker4_Per/P4-18-Per.wav,Speaker4,گوینده۴,2,63,223,77,,,,,55.24566454199885,,,,,,,,,,,,,,,,,,,,,,,,,,,,,,,,,,,,,,,,,50.947020416999294,0.0,False,50.947184124997875,675099,001,2024-07-02_08h54.31.566,5-29,2024.1.4,None,2024-07-02 08h54.36.822740 +0900,
Images/Speaker1.jpg,Images/Speaker2.jpg,Images/Speaker3.jpg,Images/Speaker4.jpg,Audio/Speaker2_Per/P2-15-Per.wav,Speaker2,گوینده۲,2,64,224,34,,,,,55.24566454199885,,,,,,,,,,,,,,,,,,,,,,,,,,,,,,,,,,,,,,,,,50.96298662499976,0.0,False,50.96319016699999,675099,001,2024-07-02_08h54.31.566,5-29,2024.1.4,None,2024-07-02 08h54.36.822740 +0900,
Images/Speaker1.jpg,Images/Speaker2.jpg,Images/Speaker3.jpg,Images/Speaker4.jpg,Audio/Speaker4_Per/P4-20-Per.wav,Speaker4,گوینده۴,2,65,225,79,,,,,55.24566454199885,,,,,,,,,,,,,,,,,,,,,,,,,,,,,,,,,,,,,,,,,50.979034791998856,0.0,False,50.97920591699949,675099,001,2024-07-02_08h54.31.566,5-29,2024.1.4,None,2024-07-02 08h54.36.822740 +0900,
Images/Speaker1.jpg,Images/Speaker2.jpg,Images/Speaker3.jpg,Images/Speaker4.jpg,Audio/Speaker2_Per/P2-13-Per.wav,Speaker2,گوینده۲,2,66,226,32,,,,,55.24566454199885,,,,,,,,,,,,,,,,,,,,,,,,,,,,,,,,,,,,,,,,,50.99496262499815,0.0,False,50.99514362499758,675099,001,2024-07-02_08h54.31.566,5-29,2024.1.4,None,2024-07-02 08h54.36.822740 +0900,
Images/Speaker1.jpg,Images/Speaker2.jpg,Images/Speaker3.jpg,Images/Speaker4.jpg,Audio/Speaker2_Per/P2-3-Per.wav,Speaker2,گوینده۲,2,67,227,22,,,,,55.24566454199885,,,,,,,,,,,,,,,,,,,,,,,,,,,,,,,,,,,,,,,,,51.011445999996795,0.0,False,51.01162295799804,675099,001,2024-07-02_08h54.31.566,5-29,2024.1.4,None,2024-07-02 08h54.36.822740 +0900,
Images/Speaker1.jpg,Images/Speaker2.jpg,Images/Speaker3.jpg,Images/Speaker4.jpg,Audio/Speaker4_Per/P4-19-Per.wav,Speaker4,گوینده۴,2,68,228,78,,,,,55.24566454199885,,,,,,,,,,,,,,,,,,,,,,,,,,,,,,,,,,,,,,,,,51.0274881669975,0.0,False,51.0276546669993,675099,001,2024-07-02_08h54.31.566,5-29,2024.1.4,None,2024-07-02 08h54.36.822740 +0900,
Images/Speaker1.jpg,Images/Speaker2.jpg,Images/Speaker3.jpg,Images/Speaker4.jpg,Audio/Speaker3_Per/P3-2-Per.wav,Speaker3,گوینده۳,2,69,229,41,,,,,55.24566454199885,,,,,,,,,,,,,,,,,,,,,,,,,,,,,,,,,,,,,,,,,51.0435319169992,0.0,False,51.04372724999848,675099,001,2024-07-02_08h54.31.566,5-29,2024.1.4,None,2024-07-02 08h54.36.822740 +0900,
Images/Speaker1.jpg,Images/Speaker2.jpg,Images/Speaker3.jpg,Images/Speaker4.jpg,Audio/Speaker1_Per/P1-19-Per.wav,Speaker1,گوینده ۱,2,70,230,18,,,,,55.24566454199885,,,,,,,,,,,,,,,,,,,,,,,,,,,,,,,,,,,,,,,,,51.05963283299934,0.0,False,51.05981533299928,675099,001,2024-07-02_08h54.31.566,5-29,2024.1.4,None,2024-07-02 08h54.36.822740 +0900,
Images/Speaker1.jpg,Images/Speaker2.jpg,Images/Speaker3.jpg,Images/Speaker4.jpg,Audio/Speaker4_Per/P4-1-Per.wav,Speaker4,گوینده۴,2,71,231,60,,,,,55.24566454199885,,,,,,,,,,,,,,,,,,,,,,,,,,,,,,,,,,,,,,,,,51.07620983299785,0.0,False,51.07638849999785,675099,001,2024-07-02_08h54.31.566,5-29,2024.1.4,None,2024-07-02 08h54.36.822740 +0900,
Images/Speaker1.jpg,Images/Speaker2.jpg,Images/Speaker3.jpg,Images/Speaker4.jpg,Audio/Speaker3_Per/P3-1-Per.wav,Speaker3,گوینده۳,2,72,232,40,,,,,55.24566454199885,,,,,,,,,,,,,,,,,,,,,,,,,,,,,,,,,,,,,,,,,51.09233824999683,0.0,False,51.092506166998646,675099,001,2024-07-02_08h54.31.566,5-29,2024.1.4,None,2024-07-02 08h54.36.822740 +0900,
Images/Speaker1.jpg,Images/Speaker2.jpg,Images/Speaker3.jpg,Images/Speaker4.jpg,Audio/Speaker3_Per/P3-14-Per.wav,Speaker3,گوینده۳,2,73,233,53,,,,,55.24566454199885,,,,,,,,,,,,,,,,,,,,,,,,,,,,,,,,,,,,,,,,,51.10813620800036,0.0,False,51.10830691699812,675099,001,2024-07-02_08h54.31.566,5-29,2024.1.4,None,2024-07-02 08h54.36.822740 +0900,
Images/Speaker1.jpg,Images/Speaker2.jpg,Images/Speaker3.jpg,Images/Speaker4.jpg,Audio/Speaker4_Per/P4-11-Per.wav,Speaker4,گوینده۴,2,74,234,70,,,,,55.24566454199885,,,,,,,,,,,,,,,,,,,,,,,,,,,,,,,,,,,,,,,,,51.124007166999945,0.0,False,51.12417654199817,675099,001,2024-07-02_08h54.31.566,5-29,2024.1.4,None,2024-07-02 08h54.36.822740 +0900,
Images/Speaker1.jpg,Images/Speaker2.jpg,Images/Speaker3.jpg,Images/Speaker4.jpg,Audio/Speaker1_Per/P1-7-Per.wav,Speaker1,گوینده ۱,2,75,235,6,,,,,55.24566454199885,,,,,,,,,,,,,,,,,,,,,,,,,,,,,,,,,,,,,,,,,51.140561457999866,0.0,False,51.14074358299695,675099,001,2024-07-02_08h54.31.566,5-29,2024.1.4,None,2024-07-02 08h54.36.822740 +0900,
Images/Speaker1.jpg,Images/Speaker2.jpg,Images/Speaker3.jpg,Images/Speaker4.jpg,Audio/Speaker4_Per/P4-6-Per.wav,Speaker4,گوینده۴,2,76,236,65,,,,,55.24566454199885,,,,,,,,,,,,,,,,,,,,,,,,,,,,,,,,,,,,,,,,,51.15660554199712,0.0,False,51.1567576669986,675099,001,2024-07-02_08h54.31.566,5-29,2024.1.4,None,2024-07-02 08h54.36.822740 +0900,
Images/Speaker1.jpg,Images/Speaker2.jpg,Images/Speaker3.jpg,Images/Speaker4.jpg,Audio/Speaker2_Per/P2-9-Per.wav,Speaker2,گوینده۲,2,77,237,28,,,,,55.24566454199885,,,,,,,,,,,,,,,,,,,,,,,,,,,,,,,,,,,,,,,,,51.17266195799675,0.0,False,51.17282591699768,675099,001,2024-07-02_08h54.31.566,5-29,2024.1.4,None,2024-07-02 08h54.36.822740 +0900,
Images/Speaker1.jpg,Images/Speaker2.jpg,Images/Speaker3.jpg,Images/Speaker4.jpg,Audio/Speaker3_Per/P3-8-Per.wav,Speaker3,گوینده۳,2,78,238,47,,,,,55.24566454199885,,,,,,,,,,,,,,,,,,,,,,,,,,,,,,,,,,,,,,,,,51.18870733299991,0.0,False,51.18889012499858,675099,001,2024-07-02_08h54.31.566,5-29,2024.1.4,None,2024-07-02 08h54.36.822740 +0900,
Images/Speaker1.jpg,Images/Speaker2.jpg,Images/Speaker3.jpg,Images/Speaker4.jpg,Audio/Speaker3_Per/P3-17-Per.wav,Speaker3,گوینده۳,2,79,239,56,,,,,55.24566454199885,,,,,,,,,,,,,,,,,,,,,,,,,,,,,,,,,,,,,,,,,51.20523783299723,0.0,False,51.20541395799955,675099,001,2024-07-02_08h54.31.566,5-29,2024.1.4,None,2024-07-02 08h54.36.822740 +0900,
Images/Speaker1.jpg,Images/Speaker2.jpg,Images/Speaker3.jpg,Images/Speaker4.jpg,Audio/Speaker3_Per/P3-6-Per.wav,Speaker3,گوینده۳,3,0,240,45,,,,,55.24566454199885,,,,,,,,,,,,,,,,,,,,,,,,,,,,,,,,,,,,,,,,,51.22139454199714,0.0,False,51.22157458299989,675099,001,2024-07-02_08h54.31.566,5-29,2024.1.4,None,2024-07-02 08h54.36.822740 +0900,
Images/Speaker1.jpg,Images/Speaker2.jpg,Images/Speaker3.jpg,Images/Speaker4.jpg,Audio/Speaker2_Per/P2-19-Per.wav,Speaker2,گوینده۲,3,1,241,38,,,,,55.24566454199885,,,,,,,,,,,,,,,,,,,,,,,,,,,,,,,,,,,,,,,,,51.237338082999486,0.0,False,51.237505999997666,675099,001,2024-07-02_08h54.31.566,5-29,2024.1.4,None,2024-07-02 08h54.36.822740 +0900,
Images/Speaker1.jpg,Images/Speaker2.jpg,Images/Speaker3.jpg,Images/Speaker4.jpg,Audio/Speaker2_Per/P2-1-Per.wav,Speaker2,گوینده۲,3,2,242,20,,,,,55.24566454199885,,,,,,,,,,,,,,,,,,,,,,,,,,,,,,,,,,,,,,,,,51.253515291999065,0.0,False,51.25366687499991,675099,001,2024-07-02_08h54.31.566,5-29,2024.1.4,None,2024-07-02 08h54.36.822740 +0900,
Images/Speaker1.jpg,Images/Speaker2.jpg,Images/Speaker3.jpg,Images/Speaker4.jpg,Audio/Speaker2_Per/P2-2-Per.wav,Speaker2,گوینده۲,3,3,243,21,,,,,55.24566454199885,,,,,,,,,,,,,,,,,,,,,,,,,,,,,,,,,,,,,,,,,51.27020237499892,0.0,False,51.27042841699949,675099,001,2024-07-02_08h54.31.566,5-29,2024.1.4,None,2024-07-02 08h54.36.822740 +0900,
Images/Speaker1.jpg,Images/Speaker2.jpg,Images/Speaker3.jpg,Images/Speaker4.jpg,Audio/Speaker4_Per/P4-3-Per.wav,Speaker4,گوینده۴,3,4,244,62,,,,,55.24566454199885,,,,,,,,,,,,,,,,,,,,,,,,,,,,,,,,,,,,,,,,,51.286233416998584,0.0,False,51.28642949999994,675099,001,2024-07-02_08h54.31.566,5-29,2024.1.4,None,2024-07-02 08h54.36.822740 +0900,
Images/Speaker1.jpg,Images/Speaker2.jpg,Images/Speaker3.jpg,Images/Speaker4.jpg,Audio/Speaker4_Per/P4-5-Per.wav,Speaker4,گوینده۴,3,5,245,64,,,,,55.24566454199885,,,,,,,,,,,,,,,,,,,,,,,,,,,,,,,,,,,,,,,,,51.302245666996896,0.0,False,51.30241358299827,675099,001,2024-07-02_08h54.31.566,5-29,2024.1.4,None,2024-07-02 08h54.36.822740 +0900,
Images/Speaker1.jpg,Images/Speaker2.jpg,Images/Speaker3.jpg,Images/Speaker4.jpg,Audio/Speaker2_Per/P2-14-Per.wav,Speaker2,گوینده۲,3,6,246,33,,,,,55.24566454199885,,,,,,,,,,,,,,,,,,,,,,,,,,,,,,,,,,,,,,,,,51.31827558299847,0.0,False,51.31848749999699,675099,001,2024-07-02_08h54.31.566,5-29,2024.1.4,None,2024-07-02 08h54.36.822740 +0900,
Images/Speaker1.jpg,Images/Speaker2.jpg,Images/Speaker3.jpg,Images/Speaker4.jpg,Audio/Speaker4_Per/P4-1-Per.wav,Speaker4,گوینده۴,3,7,247,60,,,,,55.24566454199885,,,,,,,,,,,,,,,,,,,,,,,,,,,,,,,,,,,,,,,,,51.334965916998044,0.0,False,51.335147582998616,675099,001,2024-07-02_08h54.31.566,5-29,2024.1.4,None,2024-07-02 08h54.36.822740 +0900,
Images/Speaker1.jpg,Images/Speaker2.jpg,Images/Speaker3.jpg,Images/Speaker4.jpg,Audio/Speaker1_Per/P1-13-Per.wav,Speaker1,گوینده ۱,3,8,248,12,,,,,55.24566454199885,,,,,,,,,,,,,,,,,,,,,,,,,,,,,,,,,,,,,,,,,51.350872916998924,0.0,False,51.35104791699996,675099,001,2024-07-02_08h54.31.566,5-29,2024.1.4,None,2024-07-02 08h54.36.822740 +0900,
Images/Speaker1.jpg,Images/Speaker2.jpg,Images/Speaker3.jpg,Images/Speaker4.jpg,Audio/Speaker2_Per/P2-17-Per.wav,Speaker2,گوینده۲,3,9,249,36,,,,,55.24566454199885,,,,,,,,,,,,,,,,,,,,,,,,,,,,,,,,,,,,,,,,,51.366911499997514,0.0,False,51.367082207998465,675099,001,2024-07-02_08h54.31.566,5-29,2024.1.4,None,2024-07-02 08h54.36.822740 +0900,
Images/Speaker1.jpg,Images/Speaker2.jpg,Images/Speaker3.jpg,Images/Speaker4.jpg,Audio/Speaker2_Per/P2-12-Per.wav,Speaker2,گوینده۲,3,10,250,31,,,,,55.24566454199885,,,,,,,,,,,,,,,,,,,,,,,,,,,,,,,,,,,,,,,,,51.38282716699905,0.0,False,51.38298783299979,675099,001,2024-07-02_08h54.31.566,5-29,2024.1.4,None,2024-07-02 08h54.36.822740 +0900,
Images/Speaker1.jpg,Images/Speaker2.jpg,Images/Speaker3.jpg,Images/Speaker4.jpg,Audio/Speaker2_Per/P2-10-Per.wav,Speaker2,گوینده۲,3,11,251,29,,,,,55.24566454199885,,,,,,,,,,,,,,,,,,,,,,,,,,,,,,,,,,,,,,,,,51.399479416999384,0.0,False,51.39964941699873,675099,001,2024-07-02_08h54.31.566,5-29,2024.1.4,None,2024-07-02 08h54.36.822740 +0900,
Images/Speaker1.jpg,Images/Speaker2.jpg,Images/Speaker3.jpg,Images/Speaker4.jpg,Audio/Speaker1_Per/P1-2-Per.wav,Speaker1,گوینده ۱,3,12,252,1,,,,,55.24566454199885,,,,,,,,,,,,,,,,,,,,,,,,,,,,,,,,,,,,,,,,,51.41546516699964,0.0,False,51.41568387499865,675099,001,2024-07-02_08h54.31.566,5-29,2024.1.4,None,2024-07-02 08h54.36.822740 +0900,
Images/Speaker1.jpg,Images/Speaker2.jpg,Images/Speaker3.jpg,Images/Speaker4.jpg,Audio/Speaker2_Per/P2-3-Per.wav,Speaker2,گوینده۲,3,13,253,22,,,,,55.24566454199885,,,,,,,,,,,,,,,,,,,,,,,,,,,,,,,,,,,,,,,,,51.431482124997274,0.0,False,51.43164437499945,675099,001,2024-07-02_08h54.31.566,5-29,2024.1.4,None,2024-07-02 08h54.36.822740 +0900,
Images/Speaker1.jpg,Images/Speaker2.jpg,Images/Speaker3.jpg,Images/Speaker4.jpg,Audio/Speaker2_Per/P2-11-Per.wav,Speaker2,گوینده۲,3,14,254,30,,,,,55.24566454199885,,,,,,,,,,,,,,,,,,,,,,,,,,,,,,,,,,,,,,,,,51.447455499997886,0.0,False,51.44763391699962,675099,001,2024-07-02_08h54.31.566,5-29,2024.1.4,None,2024-07-02 08h54.36.822740 +0900,
Images/Speaker1.jpg,Images/Speaker2.jpg,Images/Speaker3.jpg,Images/Speaker4.jpg,Audio/Speaker3_Per/P3-2-Per.wav,Speaker3,گوینده۳,3,15,255,41,,,,,55.24566454199885,,,,,,,,,,,,,,,,,,,,,,,,,,,,,,,,,,,,,,,,,51.46417216699774,0.0,False,51.46432362499763,675099,001,2024-07-02_08h54.31.566,5-29,2024.1.4,None,2024-07-02 08h54.36.822740 +0900,
Images/Speaker1.jpg,Images/Speaker2.jpg,Images/Speaker3.jpg,Images/Speaker4.jpg,Audio/Speaker2_Per/P2-4-Per.wav,Speaker2,گوینده۲,3,16,256,23,,,,,55.24566454199885,,,,,,,,,,,,,,,,,,,,,,,,,,,,,,,,,,,,,,,,,51.480213416998595,0.0,False,51.48039229200003,675099,001,2024-07-02_08h54.31.566,5-29,2024.1.4,None,2024-07-02 08h54.36.822740 +0900,
Images/Speaker1.jpg,Images/Speaker2.jpg,Images/Speaker3.jpg,Images/Speaker4.jpg,Audio/Speaker4_Per/P4-14-Per.wav,Speaker4,گوینده۴,3,17,257,73,,,,,55.24566454199885,,,,,,,,,,,,,,,,,,,,,,,,,,,,,,,,,,,,,,,,,51.496068541997374,0.0,False,51.496264166999026,675099,001,2024-07-02_08h54.31.566,5-29,2024.1.4,None,2024-07-02 08h54.36.822740 +0900,
Images/Speaker1.jpg,Images/Speaker2.jpg,Images/Speaker3.jpg,Images/Speaker4.jpg,Audio/Speaker4_Per/P4-20-Per.wav,Speaker4,گوینده۴,3,18,258,79,,,,,55.24566454199885,,,,,,,,,,,,,,,,,,,,,,,,,,,,,,,,,,,,,,,,,51.51201349999974,0.0,False,51.512179582998215,675099,001,2024-07-02_08h54.31.566,5-29,2024.1.4,None,2024-07-02 08h54.36.822740 +0900,
Images/Speaker1.jpg,Images/Speaker2.jpg,Images/Speaker3.jpg,Images/Speaker4.jpg,Audio/Speaker4_Per/P4-15-Per.wav,Speaker4,گوینده۴,3,19,259,74,,,,,55.24566454199885,,,,,,,,,,,,,,,,,,,,,,,,,,,,,,,,,,,,,,,,,51.528620166998735,0.0,False,51.528768874999514,675099,001,2024-07-02_08h54.31.566,5-29,2024.1.4,None,2024-07-02 08h54.36.822740 +0900,
Images/Speaker1.jpg,Images/Speaker2.jpg,Images/Speaker3.jpg,Images/Speaker4.jpg,Audio/Speaker4_Per/P4-7-Per.wav,Speaker4,گوینده۴,3,20,260,66,,,,,55.24566454199885,,,,,,,,,,,,,,,,,,,,,,,,,,,,,,,,,,,,,,,,,51.54469962499934,0.0,False,51.5448562499987,675099,001,2024-07-02_08h54.31.566,5-29,2024.1.4,None,2024-07-02 08h54.36.822740 +0900,
Images/Speaker1.jpg,Images/Speaker2.jpg,Images/Speaker3.jpg,Images/Speaker4.jpg,Audio/Speaker4_Per/P4-8-Per.wav,Speaker4,گوینده۴,3,21,261,67,,,,,55.24566454199885,,,,,,,,,,,,,,,,,,,,,,,,,,,,,,,,,,,,,,,,,51.56062912499692,0.0,False,51.56080383299923,675099,001,2024-07-02_08h54.31.566,5-29,2024.1.4,None,2024-07-02 08h54.36.822740 +0900,
Images/Speaker1.jpg,Images/Speaker2.jpg,Images/Speaker3.jpg,Images/Speaker4.jpg,Audio/Speaker2_Per/P2-16-Per.wav,Speaker2,گوینده۲,3,22,262,35,,,,,55.24566454199885,,,,,,,,,,,,,,,,,,,,,,,,,,,,,,,,,,,,,,,,,51.57666787499693,0.0,False,51.576843167000334,675099,001,2024-07-02_08h54.31.566,5-29,2024.1.4,None,2024-07-02 08h54.36.822740 +0900,
Images/Speaker1.jpg,Images/Speaker2.jpg,Images/Speaker3.jpg,Images/Speaker4.jpg,Audio/Speaker3_Per/P3-1-Per.wav,Speaker3,گوینده۳,3,23,263,40,,,,,55.24566454199885,,,,,,,,,,,,,,,,,,,,,,,,,,,,,,,,,,,,,,,,,51.59333200000037,0.0,False,51.59350587500012,675099,001,2024-07-02_08h54.31.566,5-29,2024.1.4,None,2024-07-02 08h54.36.822740 +0900,
Images/Speaker1.jpg,Images/Speaker2.jpg,Images/Speaker3.jpg,Images/Speaker4.jpg,Audio/Speaker1_Per/P1-5-Per.wav,Speaker1,گوینده ۱,3,24,264,4,,,,,55.24566454199885,,,,,,,,,,,,,,,,,,,,,,,,,,,,,,,,,,,,,,,,,51.60937387499871,0.0,False,51.60954524999761,675099,001,2024-07-02_08h54.31.566,5-29,2024.1.4,None,2024-07-02 08h54.36.822740 +0900,
Images/Speaker1.jpg,Images/Speaker2.jpg,Images/Speaker3.jpg,Images/Speaker4.jpg,Audio/Speaker1_Per/P1-17-Per.wav,Speaker1,گوینده ۱,3,25,265,16,,,,,55.24566454199885,,,,,,,,,,,,,,,,,,,,,,,,,,,,,,,,,,,,,,,,,51.625447457998234,0.0,False,51.62564787500014,675099,001,2024-07-02_08h54.31.566,5-29,2024.1.4,None,2024-07-02 08h54.36.822740 +0900,
Images/Speaker1.jpg,Images/Speaker2.jpg,Images/Speaker3.jpg,Images/Speaker4.jpg,Audio/Speaker4_Per/P4-19-Per.wav,Speaker4,گوینده۴,3,26,266,78,,,,,55.24566454199885,,,,,,,,,,,,,,,,,,,,,,,,,,,,,,,,,,,,,,,,,51.64138487499804,0.0,False,51.64161024999703,675099,001,2024-07-02_08h54.31.566,5-29,2024.1.4,None,2024-07-02 08h54.36.822740 +0900,
Images/Speaker1.jpg,Images/Speaker2.jpg,Images/Speaker3.jpg,Images/Speaker4.jpg,Audio/Speaker2_Per/P2-20-Per.wav,Speaker2,گوینده۲,3,27,267,39,,,,,55.24566454199885,,,,,,,,,,,,,,,,,,,,,,,,,,,,,,,,,,,,,,,,,51.65808225000001,0.0,False,51.658261832999415,675099,001,2024-07-02_08h54.31.566,5-29,2024.1.4,None,2024-07-02 08h54.36.822740 +0900,
Images/Speaker1.jpg,Images/Speaker2.jpg,Images/Speaker3.jpg,Images/Speaker4.jpg,Audio/Speaker3_Per/P3-10-Per.wav,Speaker3,گوینده۳,3,28,268,49,,,,,55.24566454199885,,,,,,,,,,,,,,,,,,,,,,,,,,,,,,,,,,,,,,,,,51.67410333299995,0.0,False,51.67426062499726,675099,001,2024-07-02_08h54.31.566,5-29,2024.1.4,None,2024-07-02 08h54.36.822740 +0900,
Images/Speaker1.jpg,Images/Speaker2.jpg,Images/Speaker3.jpg,Images/Speaker4.jpg,Audio/Speaker3_Per/P3-11-Per.wav,Speaker3,گوینده۳,3,29,269,50,,,,,55.24566454199885,,,,,,,,,,,,,,,,,,,,,,,,,,,,,,,,,,,,,,,,,51.68999908299884,0.0,False,51.69017299999905,675099,001,2024-07-02_08h54.31.566,5-29,2024.1.4,None,2024-07-02 08h54.36.822740 +0900,
Images/Speaker1.jpg,Images/Speaker2.jpg,Images/Speaker3.jpg,Images/Speaker4.jpg,Audio/Speaker3_Per/P3-17-Per.wav,Speaker3,گوینده۳,3,30,270,56,,,,,55.24566454199885,,,,,,,,,,,,,,,,,,,,,,,,,,,,,,,,,,,,,,,,,51.70587604199682,0.0,False,51.70605449999857,675099,001,2024-07-02_08h54.31.566,5-29,2024.1.4,None,2024-07-02 08h54.36.822740 +0900,
Images/Speaker1.jpg,Images/Speaker2.jpg,Images/Speaker3.jpg,Images/Speaker4.jpg,Audio/Speaker4_Per/P4-4-Per.wav,Speaker4,گوینده۴,3,31,271,63,,,,,55.24566454199885,,,,,,,,,,,,,,,,,,,,,,,,,,,,,,,,,,,,,,,,,51.72252983299768,0.0,False,51.72269024999696,675099,001,2024-07-02_08h54.31.566,5-29,2024.1.4,None,2024-07-02 08h54.36.822740 +0900,
Images/Speaker1.jpg,Images/Speaker2.jpg,Images/Speaker3.jpg,Images/Speaker4.jpg,Audio/Speaker4_Per/P4-11-Per.wav,Speaker4,گوینده۴,3,32,272,70,,,,,55.24566454199885,,,,,,,,,,,,,,,,,,,,,,,,,,,,,,,,,,,,,,,,,51.73856870799864,0.0,False,51.73873029199967,675099,001,2024-07-02_08h54.31.566,5-29,2024.1.4,None,2024-07-02 08h54.36.822740 +0900,
Images/Speaker1.jpg,Images/Speaker2.jpg,Images/Speaker3.jpg,Images/Speaker4.jpg,Audio/Speaker1_Per/P1-9-Per.wav,Speaker1,گوینده ۱,3,33,273,8,,,,,55.24566454199885,,,,,,,,,,,,,,,,,,,,,,,,,,,,,,,,,,,,,,,,,51.75462124999831,0.0,False,51.75482037499751,675099,001,2024-07-02_08h54.31.566,5-29,2024.1.4,None,2024-07-02 08h54.36.822740 +0900,
Images/Speaker1.jpg,Images/Speaker2.jpg,Images/Speaker3.jpg,Images/Speaker4.jpg,Audio/Speaker3_Per/P3-12-Per.wav,Speaker3,گوینده۳,3,34,274,51,,,,,55.24566454199885,,,,,,,,,,,,,,,,,,,,,,,,,,,,,,,,,,,,,,,,,51.77068608300033,0.0,False,51.77084937499967,675099,001,2024-07-02_08h54.31.566,5-29,2024.1.4,None,2024-07-02 08h54.36.822740 +0900,
Images/Speaker1.jpg,Images/Speaker2.jpg,Images/Speaker3.jpg,Images/Speaker4.jpg,Audio/Speaker4_Per/P4-2-Per.wav,Speaker4,گوینده۴,3,35,275,61,,,,,55.24566454199885,,,,,,,,,,,,,,,,,,,,,,,,,,,,,,,,,,,,,,,,,51.78730366699892,0.0,False,51.78750895799749,675099,001,2024-07-02_08h54.31.566,5-29,2024.1.4,None,2024-07-02 08h54.36.822740 +0900,
Images/Speaker1.jpg,Images/Speaker2.jpg,Images/Speaker3.jpg,Images/Speaker4.jpg,Audio/Speaker3_Per/P3-19-Per.wav,Speaker3,گوینده۳,3,36,276,58,,,,,55.24566454199885,,,,,,,,,,,,,,,,,,,,,,,,,,,,,,,,,,,,,,,,,51.85348208299911,0.0,False,51.853725124998164,675099,001,2024-07-02_08h54.31.566,5-29,2024.1.4,None,2024-07-02 08h54.36.822740 +0900,
Images/Speaker1.jpg,Images/Speaker2.jpg,Images/Speaker3.jpg,Images/Speaker4.jpg,Audio/Speaker2_Per/P2-13-Per.wav,Speaker2,گوینده۲,3,37,277,32,,,,,55.24566454199885,,,,,,,,,,,,,,,,,,,,,,,,,,,,,,,,,,,,,,,,,51.87000029199771,0.0,False,51.8702173749989,675099,001,2024-07-02_08h54.31.566,5-29,2024.1.4,None,2024-07-02 08h54.36.822740 +0900,
Images/Speaker1.jpg,Images/Speaker2.jpg,Images/Speaker3.jpg,Images/Speaker4.jpg,Audio/Speaker2_Per/P2-18-Per.wav,Speaker2,گوینده۲,3,38,278,37,,,,,55.24566454199885,,,,,,,,,,,,,,,,,,,,,,,,,,,,,,,,,,,,,,,,,51.88635195799725,0.0,False,51.886512541997945,675099,001,2024-07-02_08h54.31.566,5-29,2024.1.4,None,2024-07-02 08h54.36.822740 +0900,
Images/Speaker1.jpg,Images/Speaker2.jpg,Images/Speaker3.jpg,Images/Speaker4.jpg,Audio/Speaker2_Per/P2-5-Per.wav,Speaker2,گوینده۲,3,39,279,24,,,,,55.24566454199885,,,,,,,,,,,,,,,,,,,,,,,,,,,,,,,,,,,,,,,,,51.90271474999827,0.0,False,51.90289758299696,675099,001,2024-07-02_08h54.31.566,5-29,2024.1.4,None,2024-07-02 08h54.36.822740 +0900,
Images/Speaker1.jpg,Images/Speaker2.jpg,Images/Speaker3.jpg,Images/Speaker4.jpg,Audio/Speaker4_Per/P4-10-Per.wav,Speaker4,گوینده۴,3,40,280,69,,,,,55.24566454199885,,,,,,,,,,,,,,,,,,,,,,,,,,,,,,,,,,,,,,,,,51.91875325000001,0.0,False,51.91893387500022,675099,001,2024-07-02_08h54.31.566,5-29,2024.1.4,None,2024-07-02 08h54.36.822740 +0900,
Images/Speaker1.jpg,Images/Speaker2.jpg,Images/Speaker3.jpg,Images/Speaker4.jpg,Audio/Speaker1_Per/P1-16-Per.wav,Speaker1,گوینده ۱,3,41,281,15,,,,,55.24566454199885,,,,,,,,,,,,,,,,,,,,,,,,,,,,,,,,,,,,,,,,,51.934727083000325,0.0,False,51.93490374999965,675099,001,2024-07-02_08h54.31.566,5-29,2024.1.4,None,2024-07-02 08h54.36.822740 +0900,
Images/Speaker1.jpg,Images/Speaker2.jpg,Images/Speaker3.jpg,Images/Speaker4.jpg,Audio/Speaker1_Per/P1-15-Per.wav,Speaker1,گوینده ۱,3,42,282,14,,,,,55.24566454199885,,,,,,,,,,,,,,,,,,,,,,,,,,,,,,,,,,,,,,,,,51.95125691700014,0.0,False,51.95143170799929,675099,001,2024-07-02_08h54.31.566,5-29,2024.1.4,None,2024-07-02 08h54.36.822740 +0900,
Images/Speaker1.jpg,Images/Speaker2.jpg,Images/Speaker3.jpg,Images/Speaker4.jpg,Audio/Speaker1_Per/P1-18-Per.wav,Speaker1,گوینده ۱,3,43,283,17,,,,,55.24566454199885,,,,,,,,,,,,,,,,,,,,,,,,,,,,,,,,,,,,,,,,,51.96730666700023,0.0,False,51.967467374997796,675099,001,2024-07-02_08h54.31.566,5-29,2024.1.4,None,2024-07-02 08h54.36.822740 +0900,
Images/Speaker1.jpg,Images/Speaker2.jpg,Images/Speaker3.jpg,Images/Speaker4.jpg,Audio/Speaker3_Per/P3-16-Per.wav,Speaker3,گوینده۳,3,44,284,55,,,,,55.24566454199885,,,,,,,,,,,,,,,,,,,,,,,,,,,,,,,,,,,,,,,,,51.9834737079982,0.0,False,51.98362925000038,675099,001,2024-07-02_08h54.31.566,5-29,2024.1.4,None,2024-07-02 08h54.36.822740 +0900,
Images/Speaker1.jpg,Images/Speaker2.jpg,Images/Speaker3.jpg,Images/Speaker4.jpg,Audio/Speaker1_Per/P1-20-Per.wav,Speaker1,گوینده ۱,3,45,285,19,,,,,55.24566454199885,,,,,,,,,,,,,,,,,,,,,,,,,,,,,,,,,,,,,,,,,51.999514541999815,0.0,False,51.99969854200026,675099,001,2024-07-02_08h54.31.566,5-29,2024.1.4,None,2024-07-02 08h54.36.822740 +0900,
Images/Speaker1.jpg,Images/Speaker2.jpg,Images/Speaker3.jpg,Images/Speaker4.jpg,Audio/Speaker2_Per/P2-8-Per.wav,Speaker2,گوینده۲,3,46,286,27,,,,,55.24566454199885,,,,,,,,,,,,,,,,,,,,,,,,,,,,,,,,,,,,,,,,,52.01601212499736,0.0,False,52.01618687500013,675099,001,2024-07-02_08h54.31.566,5-29,2024.1.4,None,2024-07-02 08h54.36.822740 +0900,
Images/Speaker1.jpg,Images/Speaker2.jpg,Images/Speaker3.jpg,Images/Speaker4.jpg,Audio/Speaker3_Per/P3-8-Per.wav,Speaker3,گوینده۳,3,47,287,47,,,,,55.24566454199885,,,,,,,,,,,,,,,,,,,,,,,,,,,,,,,,,,,,,,,,,52.032157333000214,0.0,False,52.03232599999683,675099,001,2024-07-02_08h54.31.566,5-29,2024.1.4,None,2024-07-02 08h54.36.822740 +0900,
