SpeakerImage1,SpeakerImage2,SpeakerImage3,SpeakerImage4,TrainingSound,EnglishCorrectAnswer,PersianCorrectAnswer,repeated_TrainingLoopGroup1.thisRepN,repeated_TrainingLoopGroup1.thisTrialN,repeated_TrainingLoopGroup1.thisN,repeated_TrainingLoopGroup1.thisIndex,TrainingLoopGroup1.thisRepN,TrainingLoopGroup1.thisTrialN,TrainingLoopGroup1.thisN,TrainingLoopGroup1.thisIndex,TrainingLoopGroup2.thisRepN,TrainingLoopGroup2.thisTrialN,TrainingLoopGroup2.thisN,TrainingLoopGroup2.thisIndex,repeated_TrainingLoopGroup3.thisRepN,repeated_TrainingLoopGroup3.thisTrialN,repeated_TrainingLoopGroup3.thisN,repeated_TrainingLoopGroup3.thisIndex,TrainingLoopGroup3.thisRepN,TrainingLoopGroup3.thisTrialN,TrainingLoopGroup3.thisN,TrainingLoopGroup3.thisIndex,thisRow.t,notes,trial.started,trial.stopped,GroupSelection.started,GroupInstructions.started,key_resp.started,GroupSelection.stopped,key_resp.keys,key_resp.rt,key_resp.duration,Introduction.started,text_2.started,image.started,sound_7.started,text_4.started,text_2.stopped,sound_8.started,image.stopped,text_4.stopped,image_7.started,sound_9.started,text_5.started,sound_10.started,image_7.stopped,text_5.stopped,image_8.started,sound_11.started,text_6.started,sound_12.started,image_8.stopped,text_6.stopped,image_9.started,sound_13.started,text_7.started,sound_14.started,image_9.stopped,text_7.stopped,Introduction.stopped,Instructions.started,InstructionText.started,InstructionText.stopped,Instructions.stopped,InitializeExperiment.started,InitializeExperiment.stopped,TrainingGroup1.started,image_1.started,image_2.started,image_3.started,image_4.started,sound1.started,Instruction.started,ResponseKey.started,TrainingGroup1.stopped,feedbackText,correct_responses_group1,total_trials_group1,ResponseKey.keys,ResponseKey.rt,ResponseKey.duration,FeedbackRoutine1.started,FeedbackText.started,FeedbackRoutine1.stopped,FeedbackText.stopped,CheckAccuracy1.started,accuracy_group1,proceed_to_test,CheckAccuracy1.stopped,TrainingGroup3.started,SpeakerPicture3.started,image_15.started,image_16.started,image_17.started,Sound3.started,Instruction3.started,Response3.started,TrainingGroup3.stopped,correct_responses_group3,total_trials_group3,Response3.keys,Response3.rt,Response3.duration,FeedbackRoutine3.started,FeedbackText3.started,FeedbackText3.stopped,FeedbackRoutine3.stopped,participant,session,date,expName,psychopyVersion,frameRate,expStart,
,,,,,,,,,,,,,,,,,,,,,,,,,,,,,0.009512291999271838,0.009836957997322315,,,,,,,,,,,,,,,,,,,,,,,,,,,,,,,,,,,,,,,,,,,,,,,,,,,,,,,,,,,,,,,,,,,,,,,,,,,,,,,,,,,675375,001,2024-07-02_09h37.15.617,5-30,2024.1.4,None,2024-07-02 09h37.20.324275 +0900,
,,,,,,,,,,,,,,,,,,,,,,,,,,,,,,,0.00985779199982062,0.014270332998421509,0.014270332998421509,1.262930791999679,1,1.210875082997518,None,,,,,,,,,,,,,,,,,,,,,,,,,,,,,,,,,,,,,,,,,,,,,,,,,,,,,,,,,,,,,,,,,,,,,,,,,,,,675375,001,2024-07-02_09h37.15.617,5-30,2024.1.4,None,2024-07-02 09h37.20.324275 +0900,
,,,,,,,,,,,,,,,,,,,,,,,,,,,,,,,,,,,,,,1.2629612499986251,1.3127275829974678,6.262361041997792,6.2674479586642216,6.262361041997792,6.30938391699965,11.273364708664547,16.264930833000108,16.264930833000108,16.264930833000108,16.274424166666236,16.264930833000108,21.262608374665675,26.254255916999682,26.254255916999682,26.254255916999682,26.266100541666916,26.254255916999682,31.27395916666525,36.25092308300009,36.25092308300009,36.25092308300009,36.264001541665735,36.25092308300009,41.26614474966506,46.24520412499987,46.24520412499987,46.24207358299827,,,,,,,,,,,,,,,,,,,,,,,,,,,,,,,,,,,,,,,,,,,,,,,,675375,001,2024-07-02_09h37.15.617,5-30,2024.1.4,None,2024-07-02 09h37.20.324275 +0900,
,,,,,,,,,,,,,,,,,,,,,,,,,,,,,,,,,,,,,,,,,,,,,,,,,,,,,,,,,,,,,,,,,,46.24209208299726,46.26322241699745,47.337120958000014,47.25556208299895,,,,,,,,,,,,,,,,,,,,,,,,,,,,,,,,,,,,,,,,,,,,675375,001,2024-07-02_09h37.15.617,5-30,2024.1.4,None,2024-07-02 09h37.20.324275 +0900,
,,,,,,,,,,,,,,,,,,,,,,,,,,,,,,,,,,,,,,,,,,,,,,,,,,,,,,,,,,,,,,,,,,,,,,47.25557491699874,47.25633241700052,,,,,,,,,,,,,,,,,,,,,,,,,,,,,,,,,,,,,,,,,,675375,001,2024-07-02_09h37.15.617,5-30,2024.1.4,None,2024-07-02 09h37.20.324275 +0900,
Images/Speaker1.jpg,Images/Speaker2.jpg,Images/Speaker3.jpg,Images/Speaker4.jpg,Audio/Speaker3_Per/P3-2-Per.wav,Speaker3,گوینده۳,0,0,0,42,0,0,0,41,,,,,,,,,,,,,47.337120958000014,,,,,,,,,,,,,,,,,,,,,,,,,,,,,,,,,,,,,,,,,,,,,47.30943029199989,47.337120958000014,47.337120958000014,47.337120958000014,47.337120958000014,47.338679125333634,47.337120958000014,47.337120958000014,49.3852828329982,Incorrect! The correct answer is Speaker3. نادرست! پاسخ صحیح گوینده۳ است,0,1,1,2.0461872080013563,None,49.38960145799865,49.407868667,51.39510558300026,,,,,,,,,,,,,,,,,,,,,,,,675375,001,2024-07-02_09h37.15.617,5-30,2024.1.4,None,2024-07-02 09h37.20.324275 +0900,
Images/Speaker1.jpg,Images/Speaker2.jpg,Images/Speaker3.jpg,Images/Speaker4.jpg,Audio/Speaker3_Per/P3-19-Per.wav,Speaker3,گوینده۳,0,0,0,42,0,1,1,58,,,,,,,,,,,,,51.41829354199945,,,,,,,,,,,,,,,,,,,,,,,,,,,,,,,,,,,,,,,,,,,,,51.39529829199819,51.41829354199945,51.41829354199945,51.41829354199945,51.41829354199945,51.41170908366645,51.41829354199945,51.41829354199945,54.447125208000216,Incorrect! The correct answer is Speaker3. نادرست! پاسخ صحیح گوینده۳ است,0,1,1,3.01696662500035,None,54.451291416997265,54.461860916999285,56.4582026249991,,,,,,,,,,,,,,,,,,,,,,,,675375,001,2024-07-02_09h37.15.617,5-30,2024.1.4,None,2024-07-02 09h37.20.324275 +0900,
Images/Speaker1.jpg,Images/Speaker2.jpg,Images/Speaker3.jpg,Images/Speaker4.jpg,Audio/Speaker3_Per/P3-3-Per.wav,Speaker3,گوینده۳,0,0,0,42,0,2,2,42,,,,,,,,,,,,,56.48188704199856,,,,,,,,,,,,,,,,,,,,,,,,,,,,,,,,,,,,,,,,,,,,,56.458367291998,56.48188704199856,56.48188704199856,56.48188704199856,56.48188704199856,56.49149658333093,56.48188704199856,56.48188704199856,57.263753082999756,Incorrect! The correct answer is Speaker3. نادرست! پاسخ صحیح گوینده۳ است,0,1,1,0.7760809999999765,None,57.26751358299953,57.281300374997954,59.26841562499976,,,,,,,,,,,,,,,,,,,,,,,,675375,001,2024-07-02_09h37.15.617,5-30,2024.1.4,None,2024-07-02 09h37.20.324275 +0900,
Images/Speaker1.jpg,Images/Speaker2.jpg,Images/Speaker3.jpg,Images/Speaker4.jpg,Audio/Speaker4_Per/P4-8-Per.wav,Speaker4,گوینده۴,0,0,0,42,0,3,3,67,,,,,,,,,,,,,59.297449707999476,,,,,,,,,,,,,,,,,,,,,,,,,,,,,,,,,,,,,,,,,,,,,59.26902933299789,59.297449707999476,59.297449707999476,59.297449707999476,59.297449707999476,59.301583958331804,59.297449707999476,59.297449707999476,59.29808724999748,Incorrect! The correct answer is Speaker4. نادرست! پاسخ صحیح گوینده۴ است,0,1,1,2.7884591670008376,None,59.30189604199768,59.311501207997935,61.303237457999785,,,,,,,,,,,,,,,,,,,,,,,,675375,001,2024-07-02_09h37.15.617,5-30,2024.1.4,None,2024-07-02 09h37.20.324275 +0900,
Images/Speaker1.jpg,Images/Speaker2.jpg,Images/Speaker3.jpg,Images/Speaker4.jpg,Audio/Speaker4_Per/P4-6-Per.wav,Speaker4,گوینده۴,0,0,0,42,0,4,4,65,,,,,,,,,,,,,61.32495020799979,,,,,,,,,,,,,,,,,,,,,,,,,,,,,,,,,,,,,,,,,,,,,61.303396249997604,61.32495020799979,61.32495020799979,61.32495020799979,61.32495020799979,61.31987016666632,61.32495020799979,61.32495020799979,61.331276041997626,Incorrect! The correct answer is Speaker4. نادرست! پاسخ صحیح گوینده۴ است,0,1,1,0.005366583998693386,None,61.335022457999,61.34705050000048,63.33905445799974,,,,,,,,,,,,,,,,,,,,,,,,675375,001,2024-07-02_09h37.15.617,5-30,2024.1.4,None,2024-07-02 09h37.20.324275 +0900,
Images/Speaker1.jpg,Images/Speaker2.jpg,Images/Speaker3.jpg,Images/Speaker4.jpg,Audio/Speaker3_Per/P3-4-Per.wav,Speaker3,گوینده۳,0,0,0,42,0,5,5,43,,,,,,,,,,,,,63.3640549169977,,,,,,,,,,,,,,,,,,,,,,,,,,,,,,,,,,,,,,,,,,,,,63.339625291999255,63.3640549169977,63.3640549169977,63.3640549169977,63.3640549169977,63.37222570833231,63.3640549169977,63.3640549169977,63.36463791699862,Incorrect! The correct answer is Speaker3. نادرست! پاسخ صحیح گوینده۳ است,0,1,1,1.9025805419987591,None,63.36500916699879,63.37453762500081,65.35911787499936,65.3860969999987,,,,,,,,,,,,,,,,,,,,,,,675375,001,2024-07-02_09h37.15.617,5-30,2024.1.4,None,2024-07-02 09h37.20.324275 +0900,
Images/Speaker1.jpg,Images/Speaker2.jpg,Images/Speaker3.jpg,Images/Speaker4.jpg,Audio/Speaker3_Per/P3-6-Per.wav,Speaker3,گوینده۳,0,0,0,42,0,6,6,45,,,,,,,,,,,,,65.3860969999987,,,,,,,,,,,,,,,,,,,,,,,,,,,,,,,,,,,,,,,,,,,,,65.35985900000014,65.3860969999987,65.3860969999987,65.3860969999987,65.3860969999987,65.39166183333194,65.3860969999987,65.3860969999987,65.38674849999734,Incorrect! The correct answer is Speaker3. نادرست! پاسخ صحیح گوینده۳ است,0,1,1,1.7138320000012754,None,65.38723370799926,65.39743820799777,67.38760016699962,67.41364504199737,,,,,,,,,,,,,,,,,,,,,,,675375,001,2024-07-02_09h37.15.617,5-30,2024.1.4,None,2024-07-02 09h37.20.324275 +0900,
Images/Speaker1.jpg,Images/Speaker2.jpg,Images/Speaker3.jpg,Images/Speaker4.jpg,Audio/Speaker4_Per/P4-20-Per.wav,Speaker4,گوینده۴,0,0,0,42,0,7,7,79,,,,,,,,,,,,,67.41364504199737,,,,,,,,,,,,,,,,,,,,,,,,,,,,,,,,,,,,,,,,,,,,,67.3884180419991,67.41364504199737,67.41364504199737,67.41364504199737,67.41364504199737,67.42008358333308,67.41364504199737,67.41364504199737,67.41430874999787,Incorrect! The correct answer is Speaker4. نادرست! پاسخ صحیح گوینده۴ است,0,1,1,1.9203981249993376,None,67.41473333300019,67.42453379200015,69.41693562499859,,,,,,,,,,,,,,,,,,,,,,,,675375,001,2024-07-02_09h37.15.617,5-30,2024.1.4,None,2024-07-02 09h37.20.324275 +0900,
Images/Speaker1.jpg,Images/Speaker2.jpg,Images/Speaker3.jpg,Images/Speaker4.jpg,Audio/Speaker3_Per/P3-15-Per.wav,Speaker3,گوینده۳,0,0,0,42,0,8,8,54,,,,,,,,,,,,,69.44458183299867,,,,,,,,,,,,,,,,,,,,,,,,,,,,,,,,,,,,,,,,,,,,,69.4175178330006,69.44458183299867,69.44458183299867,69.44458183299867,69.44458183299867,69.45011229133209,69.44458183299867,69.44458183299867,69.44510879199879,Incorrect! The correct answer is Speaker3. نادرست! پاسخ صحیح گوینده۳ است,0,1,1,1.9055267080002523,None,69.44534187499812,69.45554537499993,71.44059533299878,71.4638749170008,,,,,,,,,,,,,,,,,,,,,,,675375,001,2024-07-02_09h37.15.617,5-30,2024.1.4,None,2024-07-02 09h37.20.324275 +0900,
Images/Speaker1.jpg,Images/Speaker2.jpg,Images/Speaker3.jpg,Images/Speaker4.jpg,Audio/Speaker4_Per/P4-13-Per.wav,Speaker4,گوینده۴,0,0,0,42,0,9,9,72,,,,,,,,,,,,,71.4638749170008,,,,,,,,,,,,,,,,,,,,,,,,,,,,,,,,,,,,,,,,,,,,,71.4407445830002,71.4638749170008,71.4638749170008,71.4638749170008,71.4638749170008,71.47372345833404,71.4638749170008,71.4638749170008,71.46443108300082,Incorrect! The correct answer is Speaker4. نادرست! پاسخ صحیح گوینده۴ است,0,1,1,1.7374082089991134,None,71.46472712499963,71.47436637499777,73.46146624999892,73.4850564169974,,,,,,,,,,,,,,,,,,,,,,,675375,001,2024-07-02_09h37.15.617,5-30,2024.1.4,None,2024-07-02 09h37.20.324275 +0900,
Images/Speaker1.jpg,Images/Speaker2.jpg,Images/Speaker3.jpg,Images/Speaker4.jpg,Audio/Speaker3_Per/P3-9-Per.wav,Speaker3,گوینده۳,0,0,0,42,0,10,10,48,,,,,,,,,,,,,73.4850564169974,,,,,,,,,,,,,,,,,,,,,,,,,,,,,,,,,,,,,,,,,,,,,73.46163924999928,73.4850564169974,73.4850564169974,73.4850564169974,73.4850564169974,73.49318091633225,73.4850564169974,73.4850564169974,73.48557533299754,Incorrect! The correct answer is Speaker3. نادرست! پاسخ صحیح گوینده۳ است,0,1,1,1.8537455420009792,None,73.4860027499999,73.49649516700083,75.48692279199895,,,,,,,,,,,,,,,,,,,,,,,,675375,001,2024-07-02_09h37.15.617,5-30,2024.1.4,None,2024-07-02 09h37.20.324275 +0900,
Images/Speaker1.jpg,Images/Speaker2.jpg,Images/Speaker3.jpg,Images/Speaker4.jpg,Audio/Speaker2_Per/P2-11-Per.wav,Speaker2,گوینده۲,0,0,0,42,0,11,11,30,,,,,,,,,,,,,75.512348207998,,,,,,,,,,,,,,,,,,,,,,,,,,,,,,,,,,,,,,,,,,,,,75.48744924999846,75.512348207998,75.512348207998,75.512348207998,75.512348207998,75.52010950033267,75.512348207998,75.512348207998,75.66891704199952,Incorrect! The correct answer is Speaker2. نادرست! پاسخ صحیح گوینده۲ است,0,1,1,0.14962966600069194,None,75.67261199999848,75.68666158300039,77.67098116700072,77.69364750000022,,,,,,,,,,,,,,,,,,,,,,,675375,001,2024-07-02_09h37.15.617,5-30,2024.1.4,None,2024-07-02 09h37.20.324275 +0900,
Images/Speaker1.jpg,Images/Speaker2.jpg,Images/Speaker3.jpg,Images/Speaker4.jpg,Audio/Speaker2_Per/P2-10-Per.wav,Speaker2,گوینده۲,0,0,0,42,0,12,12,29,,,,,,,,,,,,,77.69364750000022,,,,,,,,,,,,,,,,,,,,,,,,,,,,,,,,,,,,,,,,,,,,,77.67116291699858,77.69364750000022,77.69364750000022,77.69364750000022,77.69364750000022,77.68743037466653,77.69364750000022,77.69364750000022,77.69419349999953,Incorrect! The correct answer is Speaker2. نادرست! پاسخ صحیح گوینده۲ است,0,1,1,1.906374499998492,None,77.69820883300054,77.70759541699954,79.7015752499974,,,,,,,,,,,,,,,,,,,,,,,,675375,001,2024-07-02_09h37.15.617,5-30,2024.1.4,None,2024-07-02 09h37.20.324275 +0900,
Images/Speaker1.jpg,Images/Speaker2.jpg,Images/Speaker3.jpg,Images/Speaker4.jpg,Audio/Speaker4_Per/P4-10-Per.wav,Speaker4,گوینده۴,0,0,0,42,0,13,13,69,,,,,,,,,,,,,79.72713962499984,,,,,,,,,,,,,,,,,,,,,,,,,,,,,,,,,,,,,,,,,,,,,79.70216187500046,79.72713962499984,79.72713962499984,79.72713962499984,79.72713962499984,79.73476366633307,79.72713962499984,79.72713962499984,79.72766279200005,Incorrect! The correct answer is Speaker4. نادرست! پاسخ صحیح گوینده۴ است,0,1,1,1.8253229999972973,None,79.72788233299798,79.73756270800004,81.73089462499775,,,,,,,,,,,,,,,,,,,,,,,,675375,001,2024-07-02_09h37.15.617,5-30,2024.1.4,None,2024-07-02 09h37.20.324275 +0900,
Images/Speaker1.jpg,Images/Speaker2.jpg,Images/Speaker3.jpg,Images/Speaker4.jpg,Audio/Speaker4_Per/P4-17-Per.wav,Speaker4,گوینده۴,0,0,0,42,0,14,14,76,,,,,,,,,,,,,81.7558007919979,,,,,,,,,,,,,,,,,,,,,,,,,,,,,,,,,,,,,,,,,,,,,81.73149608300082,81.7558007919979,81.7558007919979,81.7558007919979,81.7558007919979,81.76408125033097,81.7558007919979,81.7558007919979,81.75641099999848,Incorrect! The correct answer is Speaker4. نادرست! پاسخ صحیح گوینده۴ است,0,1,1,1.8478670830008923,None,81.75665708299857,81.76624833299866,83.75575654199929,83.77806899999996,,,,,,,,,,,,,,,,,,,,,,,675375,001,2024-07-02_09h37.15.617,5-30,2024.1.4,None,2024-07-02 09h37.20.324275 +0900,
Images/Speaker1.jpg,Images/Speaker2.jpg,Images/Speaker3.jpg,Images/Speaker4.jpg,Audio/Speaker3_Per/P3-10-Per.wav,Speaker3,گوینده۳,0,0,0,42,0,15,15,49,,,,,,,,,,,,,83.77806899999996,,,,,,,,,,,,,,,,,,,,,,,,,,,,,,,,,,,,,,,,,,,,,83.75591070799783,83.77806899999996,83.77806899999996,83.77806899999996,83.77806899999996,83.77220699966735,83.77806899999996,83.77806899999996,83.7786007499999,Incorrect! The correct answer is Speaker3. نادرست! پاسخ صحیح گوینده۳ است,0,1,1,1.8686789579987817,None,83.78229037499841,83.79267849999815,85.7796704579996,85.80286512499879,,,,,,,,,,,,,,,,,,,,,,,675375,001,2024-07-02_09h37.15.617,5-30,2024.1.4,None,2024-07-02 09h37.20.324275 +0900,
Images/Speaker1.jpg,Images/Speaker2.jpg,Images/Speaker3.jpg,Images/Speaker4.jpg,Audio/Speaker1_Per/P1-15-Per.wav,Speaker1,گوینده ۱,0,0,0,42,0,16,16,14,,,,,,,,,,,,,85.80286512499879,,,,,,,,,,,,,,,,,,,,,,,,,,,,,,,,,,,,,,,,,,,,,85.77983966700049,85.80286512499879,85.80286512499879,85.80286512499879,85.80286512499879,85.81272912533362,85.80286512499879,85.80286512499879,85.8033993329991,Correct! صحیح است,0,1,1,1.7443796250008745,None,85.80387020799753,85.8133294170002,87.8008955419973,87.82564033299786,,,,,,,,,,,,,,,,,,,,,,,675375,001,2024-07-02_09h37.15.617,5-30,2024.1.4,None,2024-07-02 09h37.20.324275 +0900,
Images/Speaker1.jpg,Images/Speaker2.jpg,Images/Speaker3.jpg,Images/Speaker4.jpg,Audio/Speaker2_Per/P2-2-Per.wav,Speaker2,گوینده۲,0,0,0,42,0,17,17,21,,,,,,,,,,,,,87.82564033299786,,,,,,,,,,,,,,,,,,,,,,,,,,,,,,,,,,,,,,,,,,,,,87.80176349999965,87.82564033299786,87.82564033299786,87.82564033299786,87.82564033299786,87.83343000033395,87.82564033299786,87.82564033299786,87.8262044999974,Incorrect! The correct answer is Speaker2. نادرست! پاسخ صحیح گوینده۲ است,0,1,1,1.686266209002497,None,87.8267207079989,87.83687825000015,89.83323737499813,,,,,,,,,,,,,,,,,,,,,,,,675375,001,2024-07-02_09h37.15.617,5-30,2024.1.4,None,2024-07-02 09h37.20.324275 +0900,
Images/Speaker1.jpg,Images/Speaker2.jpg,Images/Speaker3.jpg,Images/Speaker4.jpg,Audio/Speaker3_Per/P3-8-Per.wav,Speaker3,گوینده۳,0,0,0,42,0,18,18,47,,,,,,,,,,,,,89.85950545800006,,,,,,,,,,,,,,,,,,,,,,,,,,,,,,,,,,,,,,,,,,,,,89.83380633299748,89.85950545800006,89.85950545800006,89.85950545800006,89.85950545800006,89.86641762533375,89.85950545800006,89.85950545800006,89.8601808329986,Incorrect! The correct answer is Speaker3. نادرست! پاسخ صحیح گوینده۳ است,0,1,1,0.12157850000221515,None,89.86043012499795,89.86970679200022,91.85514445800072,91.87837029199727,,,,,,,,,,,,,,,,,,,,,,,675375,001,2024-07-02_09h37.15.617,5-30,2024.1.4,None,2024-07-02 09h37.20.324275 +0900,
Images/Speaker1.jpg,Images/Speaker2.jpg,Images/Speaker3.jpg,Images/Speaker4.jpg,Audio/Speaker4_Per/P4-9-Per.wav,Speaker4,گوینده۴,0,0,0,42,0,19,19,68,,,,,,,,,,,,,91.87837029199727,,,,,,,,,,,,,,,,,,,,,,,,,,,,,,,,,,,,,,,,,,,,,91.85532362499725,91.87837029199727,91.87837029199727,91.87837029199727,91.87837029199727,91.87155999966514,91.87837029199727,91.87837029199727,91.87887754199983,Incorrect! The correct answer is Speaker4. نادرست! پاسخ صحیح گوینده۴ است,0,1,1,1.8441944169971975,None,91.88295604199811,91.89271466699938,93.88291241700063,93.90952329200081,,,,,,,,,,,,,,,,,,,,,,,675375,001,2024-07-02_09h37.15.617,5-30,2024.1.4,None,2024-07-02 09h37.20.324275 +0900,
Images/Speaker1.jpg,Images/Speaker2.jpg,Images/Speaker3.jpg,Images/Speaker4.jpg,Audio/Speaker2_Per/P2-16-Per.wav,Speaker2,گوینده۲,0,0,0,42,0,20,20,35,,,,,,,,,,,,,93.90952329200081,,,,,,,,,,,,,,,,,,,,,,,,,,,,,,,,,,,,,,,,,,,,,93.88348675000088,93.90952329200081,93.90952329200081,93.90952329200081,93.90952329200081,93.91530012533306,93.90952329200081,93.90952329200081,93.91006879199995,Incorrect! The correct answer is Speaker2. نادرست! پاسخ صحیح گوینده۲ است,0,1,1,1.7113225829998555,None,93.91049075000046,93.92040329199881,95.90415349999967,95.9311349999989,,,,,,,,,,,,,,,,,,,,,,,675375,001,2024-07-02_09h37.15.617,5-30,2024.1.4,None,2024-07-02 09h37.20.324275 +0900,
Images/Speaker1.jpg,Images/Speaker2.jpg,Images/Speaker3.jpg,Images/Speaker4.jpg,Audio/Speaker1_Per/P1-11-Per.wav,Speaker1,گوینده ۱,0,0,0,42,0,21,21,10,,,,,,,,,,,,,95.9311349999989,,,,,,,,,,,,,,,,,,,,,,,,,,,,,,,,,,,,,,,,,,,,,95.90490270800001,95.9311349999989,95.9311349999989,95.9311349999989,95.9311349999989,95.9367277083334,95.9311349999989,95.9311349999989,95.93175666699972,Correct! صحیح است,0,1,1,1.6569071249978151,None,95.93202737499814,95.93996091699955,97.92693470800077,97.95248508299846,,,,,,,,,,,,,,,,,,,,,,,675375,001,2024-07-02_09h37.15.617,5-30,2024.1.4,None,2024-07-02 09h37.20.324275 +0900,
Images/Speaker1.jpg,Images/Speaker2.jpg,Images/Speaker3.jpg,Images/Speaker4.jpg,Audio/Speaker3_Per/P3-12-Per.wav,Speaker3,گوینده۳,0,0,0,42,0,22,22,51,,,,,,,,,,,,,97.95248508299846,,,,,,,,,,,,,,,,,,,,,,,,,,,,,,,,,,,,,,,,,,,,,97.92708154199863,97.95248508299846,97.95248508299846,97.95248508299846,97.95248508299846,97.94338095866648,97.95248508299846,97.95248508299846,97.95306745799826,Incorrect! The correct answer is Speaker3. نادرست! پاسخ صحیح گوینده۳ است,0,1,1,1.9998899999991409,None,97.95676683299826,97.9663991669986,99.94962983299774,99.97502924999935,,,,,,,,,,,,,,,,,,,,,,,675375,001,2024-07-02_09h37.15.617,5-30,2024.1.4,None,2024-07-02 09h37.20.324275 +0900,
Images/Speaker1.jpg,Images/Speaker2.jpg,Images/Speaker3.jpg,Images/Speaker4.jpg,Audio/Speaker2_Per/P2-1-Per.wav,Speaker2,گوینده۲,0,0,0,42,0,23,23,20,,,,,,,,,,,,,99.97502924999935,,,,,,,,,,,,,,,,,,,,,,,,,,,,,,,,,,,,,,,,,,,,,99.95034108300024,99.97502924999935,99.97502924999935,99.97502924999935,99.97502924999935,99.98220191633348,99.97502924999935,99.97502924999935,99.97569220799778,Incorrect! The correct answer is Speaker2. نادرست! پاسخ صحیح گوینده۲ است,0,1,1,1.9442044579991489,None,99.9761144999975,99.98621908299901,101.98114041699955,,,,,,,,,,,,,,,,,,,,,,,,675375,001,2024-07-02_09h37.15.617,5-30,2024.1.4,None,2024-07-02 09h37.20.324275 +0900,
Images/Speaker1.jpg,Images/Speaker2.jpg,Images/Speaker3.jpg,Images/Speaker4.jpg,Audio/Speaker1_Per/P1-13-Per.wav,Speaker1,گوینده ۱,0,0,0,42,0,24,24,12,,,,,,,,,,,,,102.00640799999746,,,,,,,,,,,,,,,,,,,,,,,,,,,,,,,,,,,,,,,,,,,,,101.98131891699813,102.00640799999746,102.00640799999746,102.00640799999746,102.00640799999746,102.01443820833131,102.00640799999746,102.00640799999746,102.00695020800049,Correct! صحیح است,0,1,1,1.9033923339993635,None,102.00738687500052,102.01575979200061,104.00157279199993,104.02573758300059,,,,,,,,,,,,,,,,,,,,,,,675375,001,2024-07-02_09h37.15.617,5-30,2024.1.4,None,2024-07-02 09h37.20.324275 +0900,
Images/Speaker1.jpg,Images/Speaker2.jpg,Images/Speaker3.jpg,Images/Speaker4.jpg,Audio/Speaker1_Per/P1-8-Per.wav,Speaker1,گوینده ۱,0,0,0,42,0,25,25,7,,,,,,,,,,,,,104.02573758300059,,,,,,,,,,,,,,,,,,,,,,,,,,,,,,,,,,,,,,,,,,,,,104.00243208299798,104.02573758300059,104.02573758300059,104.02573758300059,104.02573758300059,104.0340307503325,104.02573758300059,104.02573758300059,104.02632991700011,Correct! صحیح است,0,1,1,1.8496944580001582,None,104.02678949999972,104.0349983749984,106.02620745799868,106.05375099999947,,,,,,,,,,,,,,,,,,,,,,,675375,001,2024-07-02_09h37.15.617,5-30,2024.1.4,None,2024-07-02 09h37.20.324275 +0900,
Images/Speaker1.jpg,Images/Speaker2.jpg,Images/Speaker3.jpg,Images/Speaker4.jpg,Audio/Speaker4_Per/P4-14-Per.wav,Speaker4,گوینده۴,0,0,0,42,0,26,26,73,,,,,,,,,,,,,106.05375099999947,,,,,,,,,,,,,,,,,,,,,,,,,,,,,,,,,,,,,,,,,,,,,106.02712045799854,106.05375099999947,106.05375099999947,106.05375099999947,106.05375099999947,106.0586067503323,106.05375099999947,106.05375099999947,106.05430020799758,Incorrect! The correct answer is Speaker4. نادرست! پاسخ صحیح گوینده۴ است,0,1,1,1.6627756250018138,None,106.05458533300043,106.06414249999943,108.05210916699798,108.07487962499727,,,,,,,,,,,,,,,,,,,,,,,675375,001,2024-07-02_09h37.15.617,5-30,2024.1.4,None,2024-07-02 09h37.20.324275 +0900,
Images/Speaker1.jpg,Images/Speaker2.jpg,Images/Speaker3.jpg,Images/Speaker4.jpg,Audio/Speaker2_Per/P2-14-Per.wav,Speaker2,گوینده۲,0,0,0,42,0,27,27,33,,,,,,,,,,,,,108.07487962499727,,,,,,,,,,,,,,,,,,,,,,,,,,,,,,,,,,,,,,,,,,,,,108.0522992499973,108.07487962499727,108.07487962499727,108.07487962499727,108.07487962499727,108.06853387466641,108.07487962499727,108.07487962499727,108.07545804199981,Incorrect! The correct answer is Speaker2. نادرست! پاسخ صحیح گوینده۲ است,0,1,1,1.5924521250017278,None,108.07929179200073,108.08949937500074,110.07675358299821,110.10031237499788,,,,,,,,,,,,,,,,,,,,,,,675375,001,2024-07-02_09h37.15.617,5-30,2024.1.4,None,2024-07-02 09h37.20.324275 +0900,
Images/Speaker1.jpg,Images/Speaker2.jpg,Images/Speaker3.jpg,Images/Speaker4.jpg,Audio/Speaker1_Per/P1-20-Per.wav,Speaker1,گوینده ۱,0,0,0,42,0,28,28,19,,,,,,,,,,,,,110.10031237499788,,,,,,,,,,,,,,,,,,,,,,,,,,,,,,,,,,,,,,,,,,,,,110.07756066699949,110.10031237499788,110.10031237499788,110.10031237499788,110.10031237499788,110.10929395833276,110.10031237499788,110.10031237499788,110.10083049999957,Correct! صحیح است,0,1,1,1.729953125002794,None,110.10114562499803,110.10932883299756,112.10255058300027,,,,,,,,,,,,,,,,,,,,,,,,675375,001,2024-07-02_09h37.15.617,5-30,2024.1.4,None,2024-07-02 09h37.20.324275 +0900,
Images/Speaker1.jpg,Images/Speaker2.jpg,Images/Speaker3.jpg,Images/Speaker4.jpg,Audio/Speaker2_Per/P2-13-Per.wav,Speaker2,گوینده۲,0,0,0,42,0,29,29,32,,,,,,,,,,,,,112.1244503329981,,,,,,,,,,,,,,,,,,,,,,,,,,,,,,,,,,,,,,,,,,,,,112.10271124999781,112.1244503329981,112.1244503329981,112.1244503329981,112.1244503329981,112.11918341666411,112.1244503329981,112.1244503329981,112.12511387499762,Incorrect! The correct answer is Speaker2. نادرست! پاسخ صحیح گوینده۲ است,0,1,1,1.5235643329979212,None,112.12898466700062,112.13840291700035,114.123527249998,114.1453487079998,,,,,,,,,,,,,,,,,,,,,,,675375,001,2024-07-02_09h37.15.617,5-30,2024.1.4,None,2024-07-02 09h37.20.324275 +0900,
Images/Speaker1.jpg,Images/Speaker2.jpg,Images/Speaker3.jpg,Images/Speaker4.jpg,Audio/Speaker2_Per/P2-18-Per.wav,Speaker2,گوینده۲,0,0,0,42,0,30,30,37,,,,,,,,,,,,,114.1453487079998,,,,,,,,,,,,,,,,,,,,,,,,,,,,,,,,,,,,,,,,,,,,,114.12369608299923,114.1453487079998,114.1453487079998,114.1453487079998,114.1453487079998,114.13994524966644,114.1453487079998,114.1453487079998,114.14586337500077,Incorrect! The correct answer is Speaker2. نادرست! پاسخ صحیح گوینده۲ است,0,1,1,1.715558833002433,None,114.14992237499973,114.15919483299876,116.14334258300005,116.16488608299915,,,,,,,,,,,,,,,,,,,,,,,675375,001,2024-07-02_09h37.15.617,5-30,2024.1.4,None,2024-07-02 09h37.20.324275 +0900,
Images/Speaker1.jpg,Images/Speaker2.jpg,Images/Speaker3.jpg,Images/Speaker4.jpg,Audio/Speaker1_Per/P1-17-Per.wav,Speaker1,گوینده ۱,0,0,0,42,0,31,31,16,,,,,,,,,,,,,116.16488608299915,,,,,,,,,,,,,,,,,,,,,,,,,,,,,,,,,,,,,,,,,,,,,116.14349579199916,116.16488608299915,116.16488608299915,116.16488608299915,116.16488608299915,116.15980962466735,116.16488608299915,116.16488608299915,116.16538025000045,Correct! صحیح است,0,1,1,1.5009057919996849,None,116.16930658300043,116.17750491699917,118.16043845799868,118.18110762499782,,,,,,,,,,,,,,,,,,,,,,,675375,001,2024-07-02_09h37.15.617,5-30,2024.1.4,None,2024-07-02 09h37.20.324275 +0900,
Images/Speaker1.jpg,Images/Speaker2.jpg,Images/Speaker3.jpg,Images/Speaker4.jpg,Audio/Speaker3_Per/P3-16-Per.wav,Speaker3,گوینده۳,0,0,0,42,0,32,32,55,,,,,,,,,,,,,118.18110762499782,,,,,,,,,,,,,,,,,,,,,,,,,,,,,,,,,,,,,,,,,,,,,118.16059133299859,118.18110762499782,118.18110762499782,118.18110762499782,118.18110762499782,118.17688008366555,118.18110762499782,118.18110762499782,118.18185733299833,Incorrect! The correct answer is Speaker3. نادرست! پاسخ صحیح گوینده۳ است,0,1,1,1.4122163339998224,None,118.1857820419973,118.1953884579998,120.18729562500084,,,,,,,,,,,,,,,,,,,,,,,,675375,001,2024-07-02_09h37.15.617,5-30,2024.1.4,None,2024-07-02 09h37.20.324275 +0900,
Images/Speaker1.jpg,Images/Speaker2.jpg,Images/Speaker3.jpg,Images/Speaker4.jpg,Audio/Speaker4_Per/P4-18-Per.wav,Speaker4,گوینده۴,0,0,0,42,0,33,33,77,,,,,,,,,,,,,120.20861708300072,,,,,,,,,,,,,,,,,,,,,,,,,,,,,,,,,,,,,,,,,,,,,120.18744754200088,120.20861708300072,120.20861708300072,120.20861708300072,120.20861708300072,120.2039304166649,120.20861708300072,120.20861708300072,120.20918279199759,Incorrect! The correct answer is Speaker4. نادرست! پاسخ صحیح گوینده۴ است,0,1,1,1.4865028749991325,None,120.21338041700074,120.22270045799814,122.21948508299829,,,,,,,,,,,,,,,,,,,,,,,,675375,001,2024-07-02_09h37.15.617,5-30,2024.1.4,None,2024-07-02 09h37.20.324275 +0900,
Images/Speaker1.jpg,Images/Speaker2.jpg,Images/Speaker3.jpg,Images/Speaker4.jpg,Audio/Speaker2_Per/P2-17-Per.wav,Speaker2,گوینده۲,0,0,0,42,0,34,34,36,,,,,,,,,,,,,122.24065312499806,,,,,,,,,,,,,,,,,,,,,,,,,,,,,,,,,,,,,,,,,,,,,122.21966841699759,122.24065312499806,122.24065312499806,122.24065312499806,122.24065312499806,122.236118291665,122.24065312499806,122.24065312499806,122.24120412499906,Incorrect! The correct answer is Speaker2. نادرست! پاسخ صحیح گوینده۲ است,0,1,1,1.4953255000000354,None,122.24495945799936,122.25474854200002,124.23891658299908,124.26499150000018,,,,,,,,,,,,,,,,,,,,,,,675375,001,2024-07-02_09h37.15.617,5-30,2024.1.4,None,2024-07-02 09h37.20.324275 +0900,
Images/Speaker1.jpg,Images/Speaker2.jpg,Images/Speaker3.jpg,Images/Speaker4.jpg,Audio/Speaker3_Per/P3-13-Per.wav,Speaker3,گوینده۳,0,0,0,42,0,35,35,52,,,,,,,,,,,,,124.26499150000018,,,,,,,,,,,,,,,,,,,,,,,,,,,,,,,,,,,,,,,,,,,,,124.23974237500079,124.26499150000018,124.26499150000018,124.26499150000018,124.26499150000018,124.27141966633329,124.26499150000018,124.26499150000018,124.26554475000012,Incorrect! The correct answer is Speaker3. نادرست! پاسخ صحیح گوینده۳ است,0,1,1,1.2581346670012863,None,124.26596116699875,124.27546412499942,126.25947712500056,126.28388004199951,,,,,,,,,,,,,,,,,,,,,,,675375,001,2024-07-02_09h37.15.617,5-30,2024.1.4,None,2024-07-02 09h37.20.324275 +0900,
Images/Speaker1.jpg,Images/Speaker2.jpg,Images/Speaker3.jpg,Images/Speaker4.jpg,Audio/Speaker1_Per/P1-4-Per.wav,Speaker1,گوینده ۱,0,0,0,42,0,36,36,3,,,,,,,,,,,,,126.28388004199951,,,,,,,,,,,,,,,,,,,,,,,,,,,,,,,,,,,,,,,,,,,,,126.26036420799937,126.28388004199951,126.28388004199951,126.28388004199951,126.28388004199951,126.29190154133224,126.28388004199951,126.28388004199951,126.28442187499968,Correct! صحیح است,0,1,1,1.7042355000012321,None,126.28466454199952,126.29320050000024,128.28455945799942,128.30774095800007,,,,,,,,,,,,,,,,,,,,,,,675375,001,2024-07-02_09h37.15.617,5-30,2024.1.4,None,2024-07-02 09h37.20.324275 +0900,
Images/Speaker1.jpg,Images/Speaker2.jpg,Images/Speaker3.jpg,Images/Speaker4.jpg,Audio/Speaker4_Per/P4-12-Per.wav,Speaker4,گوینده۴,0,0,0,42,0,37,37,71,,,,,,,,,,,,,128.30774095800007,,,,,,,,,,,,,,,,,,,,,,,,,,,,,,,,,,,,,,,,,,,,,128.28547145799894,128.30774095800007,128.30774095800007,128.30774095800007,128.30774095800007,128.31669366633338,128.30774095800007,128.30774095800007,128.30831995799963,Incorrect! The correct answer is Speaker4. نادرست! پاسخ صحیح گوینده۴ است,0,1,1,1.8915567089970864,None,128.30873549999887,128.31912458299848,130.31518483299806,,,,,,,,,,,,,,,,,,,,,,,,675375,001,2024-07-02_09h37.15.617,5-30,2024.1.4,None,2024-07-02 09h37.20.324275 +0900,
Images/Speaker1.jpg,Images/Speaker2.jpg,Images/Speaker3.jpg,Images/Speaker4.jpg,Audio/Speaker2_Per/P2-6-Per.wav,Speaker2,گوینده۲,0,0,0,42,0,38,38,25,,,,,,,,,,,,,130.34072741699856,,,,,,,,,,,,,,,,,,,,,,,,,,,,,,,,,,,,,,,,,,,,,130.31585804199858,130.34072741699856,130.34072741699856,130.34072741699856,130.34072741699856,130.34833179133108,130.34072741699856,130.34072741699856,130.34125874999881,Incorrect! The correct answer is Speaker2. نادرست! پاسخ صحیح گوینده۲ است,0,1,1,1.8194471669994527,None,130.34155541699874,130.35151533300086,132.33963762499843,132.36140995800088,,,,,,,,,,,,,,,,,,,,,,,675375,001,2024-07-02_09h37.15.617,5-30,2024.1.4,None,2024-07-02 09h37.20.324275 +0900,
Images/Speaker1.jpg,Images/Speaker2.jpg,Images/Speaker3.jpg,Images/Speaker4.jpg,Audio/Speaker1_Per/P1-12-Per.wav,Speaker1,گوینده ۱,0,0,0,42,0,39,39,11,,,,,,,,,,,,,132.36140995800088,,,,,,,,,,,,,,,,,,,,,,,,,,,,,,,,,,,,,,,,,,,,,132.3398000419984,132.36140995800088,132.36140995800088,132.36140995800088,132.36140995800088,132.3560148336658,132.36140995800088,132.36140995800088,132.36192645799747,Correct! صحیح است,0,1,1,1.5879100829988602,None,132.3656349999983,132.37403929200082,134.36018483299995,134.38348724999742,,,,,,,,,,,,,,,,,,,,,,,675375,001,2024-07-02_09h37.15.617,5-30,2024.1.4,None,2024-07-02 09h37.20.324275 +0900,
Images/Speaker1.jpg,Images/Speaker2.jpg,Images/Speaker3.jpg,Images/Speaker4.jpg,Audio/Speaker3_Per/P3-5-Per.wav,Speaker3,گوینده۳,0,0,0,42,0,40,40,44,,,,,,,,,,,,,134.38348724999742,,,,,,,,,,,,,,,,,,,,,,,,,,,,,,,,,,,,,,,,,,,,,134.36035450000054,134.38348724999742,134.38348724999742,134.38348724999742,134.38348724999742,134.3932495003324,134.38348724999742,134.38348724999742,134.38402375000078,Incorrect! The correct answer is Speaker3. نادرست! پاسخ صحیح گوینده۳ است,0,1,1,1.506159624997963,None,134.3844032499983,134.39429479200044,136.37769962499806,136.4053084169973,,,,,,,,,,,,,,,,,,,,,,,675375,001,2024-07-02_09h37.15.617,5-30,2024.1.4,None,2024-07-02 09h37.20.324275 +0900,
Images/Speaker1.jpg,Images/Speaker2.jpg,Images/Speaker3.jpg,Images/Speaker4.jpg,Audio/Speaker3_Per/P3-20-Per.wav,Speaker3,گوینده۳,0,0,0,42,0,41,41,59,,,,,,,,,,,,,136.4053084169973,,,,,,,,,,,,,,,,,,,,,,,,,,,,,,,,,,,,,,,,,,,,,136.37864570799866,136.4053084169973,136.4053084169973,136.4053084169973,136.4053084169973,136.40996241633235,136.4053084169973,136.4053084169973,136.40587995799797,Incorrect! The correct answer is Speaker3. نادرست! پاسخ صحیح گوینده۳ است,0,1,1,1.4348425419993873,None,136.40631099999882,136.4157119579977,138.40022895799848,138.42325541699756,,,,,,,,,,,,,,,,,,,,,,,675375,001,2024-07-02_09h37.15.617,5-30,2024.1.4,None,2024-07-02 09h37.20.324275 +0900,
Images/Speaker1.jpg,Images/Speaker2.jpg,Images/Speaker3.jpg,Images/Speaker4.jpg,Audio/Speaker4_Per/P4-4-Per.wav,Speaker4,گوینده۴,0,0,0,42,0,42,42,63,,,,,,,,,,,,,138.42325541699756,,,,,,,,,,,,,,,,,,,,,,,,,,,,,,,,,,,,,,,,,,,,,138.4003820830003,138.42325541699756,138.42325541699756,138.42325541699756,138.42325541699756,138.41665833366667,138.42325541699756,138.42325541699756,138.42384845799825,Incorrect! The correct answer is Speaker4. نادرست! پاسخ صحیح گوینده۴ است,0,1,1,1.2484837920019345,None,138.4240878749988,138.43395316699753,140.41783075000058,140.4407444999997,,,,,,,,,,,,,,,,,,,,,,,675375,001,2024-07-02_09h37.15.617,5-30,2024.1.4,None,2024-07-02 09h37.20.324275 +0900,
Images/Speaker1.jpg,Images/Speaker2.jpg,Images/Speaker3.jpg,Images/Speaker4.jpg,Audio/Speaker2_Per/P2-19-Per.wav,Speaker2,گوینده۲,0,0,0,42,0,43,43,38,,,,,,,,,,,,,140.4407444999997,,,,,,,,,,,,,,,,,,,,,,,,,,,,,,,,,,,,,,,,,,,,,140.41801437499817,140.4407444999997,140.4407444999997,140.4407444999997,140.4407444999997,140.43419166666743,140.4407444999997,140.4407444999997,140.4413504999975,Incorrect! The correct answer is Speaker2. نادرست! پاسخ صحیح گوینده۲ است,0,1,1,1.0600163329982024,None,140.441587041998,140.45165166699735,142.43706374999965,142.46121241699802,,,,,,,,,,,,,,,,,,,,,,,675375,001,2024-07-02_09h37.15.617,5-30,2024.1.4,None,2024-07-02 09h37.20.324275 +0900,
Images/Speaker1.jpg,Images/Speaker2.jpg,Images/Speaker3.jpg,Images/Speaker4.jpg,Audio/Speaker4_Per/P4-11-Per.wav,Speaker4,گوینده۴,0,0,0,42,0,44,44,70,,,,,,,,,,,,,142.46121241699802,,,,,,,,,,,,,,,,,,,,,,,,,,,,,,,,,,,,,,,,,,,,,142.43758099999832,142.46121241699802,142.46121241699802,142.46121241699802,142.46121241699802,142.46951708333341,142.46121241699802,142.46121241699802,142.46186783300072,Incorrect! The correct answer is Speaker4. نادرست! پاسخ صحیح گوینده۴ است,0,1,1,1.2305003330002364,None,142.4622442079999,142.47236733300088,144.4611699579982,144.48599974999888,,,,,,,,,,,,,,,,,,,,,,,675375,001,2024-07-02_09h37.15.617,5-30,2024.1.4,None,2024-07-02 09h37.20.324275 +0900,
Images/Speaker1.jpg,Images/Speaker2.jpg,Images/Speaker3.jpg,Images/Speaker4.jpg,Audio/Speaker1_Per/P1-5-Per.wav,Speaker1,گوینده ۱,0,0,0,42,0,45,45,4,,,,,,,,,,,,,144.48599974999888,,,,,,,,,,,,,,,,,,,,,,,,,,,,,,,,,,,,,,,,,,,,,144.46169416699922,144.48599974999888,144.48599974999888,144.48599974999888,144.48599974999888,144.49357016633127,144.48599974999888,144.48599974999888,144.48655929199958,Correct! صحیح است,0,1,1,1.3237519159993099,None,144.48694791699745,144.49495437500082,146.47755495800084,146.5000987079984,,,,,,,,,,,,,,,,,,,,,,,675375,001,2024-07-02_09h37.15.617,5-30,2024.1.4,None,2024-07-02 09h37.20.324275 +0900,
Images/Speaker1.jpg,Images/Speaker2.jpg,Images/Speaker3.jpg,Images/Speaker4.jpg,Audio/Speaker1_Per/P1-19-Per.wav,Speaker1,گوینده ۱,0,0,0,42,0,46,46,18,,,,,,,,,,,,,146.5000987079984,,,,,,,,,,,,,,,,,,,,,,,,,,,,,,,,,,,,,,,,,,,,,146.4777432919982,146.5000987079984,146.5000987079984,146.5000987079984,146.5000987079984,146.49397312466706,146.5000987079984,146.5000987079984,146.5006484580008,Correct! صحیح است,0,1,1,1.2780403340002522,None,146.5044496249975,146.5129501249976,148.50394904199857,148.5274039169999,,,,,,,,,,,,,,,,,,,,,,,675375,001,2024-07-02_09h37.15.617,5-30,2024.1.4,None,2024-07-02 09h37.20.324275 +0900,
Images/Speaker1.jpg,Images/Speaker2.jpg,Images/Speaker3.jpg,Images/Speaker4.jpg,Audio/Speaker4_Per/P4-1-Per.wav,Speaker4,گوینده۴,0,0,0,42,0,47,47,60,,,,,,,,,,,,,148.5274039169999,,,,,,,,,,,,,,,,,,,,,,,,,,,,,,,,,,,,,,,,,,,,,148.50410570799795,148.5274039169999,148.5274039169999,148.5274039169999,148.5274039169999,148.53704812533084,148.5274039169999,148.5274039169999,148.52802054199856,Incorrect! The correct answer is Speaker4. نادرست! پاسخ صحیح گوینده۴ است,0,1,1,1.195168417001696,None,148.5285138750005,148.5383383749977,150.52188591699814,150.54448808300003,,,,,,,,,,,,,,,,,,,,,,,675375,001,2024-07-02_09h37.15.617,5-30,2024.1.4,None,2024-07-02 09h37.20.324275 +0900,
Images/Speaker1.jpg,Images/Speaker2.jpg,Images/Speaker3.jpg,Images/Speaker4.jpg,Audio/Speaker3_Per/P3-14-Per.wav,Speaker3,گوینده۳,0,0,0,42,0,48,48,53,,,,,,,,,,,,,150.54448808300003,,,,,,,,,,,,,,,,,,,,,,,,,,,,,,,,,,,,,,,,,,,,,150.5220424170002,150.54448808300003,150.54448808300003,150.54448808300003,150.54448808300003,150.5383331666674,150.54448808300003,150.54448808300003,150.5450497919992,Incorrect! The correct answer is Speaker3. نادرست! پاسخ صحیح گوینده۳ است,0,1,1,1.2019985000006272,None,150.54883916700055,150.55834154200056,152.54471320800076,152.56657324999833,,,,,,,,,,,,,,,,,,,,,,,675375,001,2024-07-02_09h37.15.617,5-30,2024.1.4,None,2024-07-02 09h37.20.324275 +0900,
Images/Speaker1.jpg,Images/Speaker2.jpg,Images/Speaker3.jpg,Images/Speaker4.jpg,Audio/Speaker4_Per/P4-7-Per.wav,Speaker4,گوینده۴,0,0,0,42,0,49,49,66,,,,,,,,,,,,,152.56657324999833,,,,,,,,,,,,,,,,,,,,,,,,,,,,,,,,,,,,,,,,,,,,,152.5448704579976,152.56657324999833,152.56657324999833,152.56657324999833,152.56657324999833,152.56111520866423,152.56657324999833,152.56657324999833,152.56713320799827,Incorrect! The correct answer is Speaker4. نادرست! پاسخ صحیح گوینده۴ است,0,1,1,1.1302810839988524,None,152.57134716699875,152.58063100000072,154.56803149999905,154.59060237499943,,,,,,,,,,,,,,,,,,,,,,,675375,001,2024-07-02_09h37.15.617,5-30,2024.1.4,None,2024-07-02 09h37.20.324275 +0900,
Images/Speaker1.jpg,Images/Speaker2.jpg,Images/Speaker3.jpg,Images/Speaker4.jpg,Audio/Speaker1_Per/P1-3-Per.wav,Speaker1,گوینده ۱,0,0,0,42,0,50,50,2,,,,,,,,,,,,,154.59060237499943,,,,,,,,,,,,,,,,,,,,,,,,,,,,,,,,,,,,,,,,,,,,,154.56818904199827,154.59060237499943,154.59060237499943,154.59060237499943,154.59060237499943,154.58447124966577,154.59060237499943,154.59060237499943,154.59115949999978,Correct! صحیح است,0,1,1,1.3809406670006865,None,154.59512270800042,154.60350774999824,156.59598945799735,,,,,,,,,,,,,,,,,,,,,,,,675375,001,2024-07-02_09h37.15.617,5-30,2024.1.4,None,2024-07-02 09h37.20.324275 +0900,
Images/Speaker1.jpg,Images/Speaker2.jpg,Images/Speaker3.jpg,Images/Speaker4.jpg,Audio/Speaker4_Per/P4-16-Per.wav,Speaker4,گوینده۴,0,0,0,42,0,51,51,75,,,,,,,,,,,,,156.62070474999928,,,,,,,,,,,,,,,,,,,,,,,,,,,,,,,,,,,,,,,,,,,,,156.59656008299862,156.62070474999928,156.62070474999928,156.62070474999928,156.62070474999928,156.62917845833414,156.62070474999928,156.62070474999928,156.62134866699853,Incorrect! The correct answer is Speaker4. نادرست! پاسخ صحیح گوینده۴ است,0,1,1,1.3716892910015304,None,156.62170633300047,156.63135274999877,158.62602262499786,,,,,,,,,,,,,,,,,,,,,,,,675375,001,2024-07-02_09h37.15.617,5-30,2024.1.4,None,2024-07-02 09h37.20.324275 +0900,
Images/Speaker1.jpg,Images/Speaker2.jpg,Images/Speaker3.jpg,Images/Speaker4.jpg,Audio/Speaker2_Per/P2-8-Per.wav,Speaker2,گوینده۲,0,0,0,42,0,52,52,27,,,,,,,,,,,,,158.64907799999855,,,,,,,,,,,,,,,,,,,,,,,,,,,,,,,,,,,,,,,,,,,,,158.62618154200027,158.64907799999855,158.64907799999855,158.64907799999855,158.64907799999855,158.64265733366508,158.64907799999855,158.64907799999855,158.6496304579996,Incorrect! The correct answer is Speaker2. نادرست! پاسخ صحیح گوینده۲ است,0,1,1,1.3399631249994854,None,158.6538842919981,158.6636570419978,160.6538243750001,160.68068049999783,,,,,,,,,,,,,,,,,,,,,,,675375,001,2024-07-02_09h37.15.617,5-30,2024.1.4,None,2024-07-02 09h37.20.324275 +0900,
Images/Speaker1.jpg,Images/Speaker2.jpg,Images/Speaker3.jpg,Images/Speaker4.jpg,Audio/Speaker4_Per/P4-15-Per.wav,Speaker4,گوینده۴,0,0,0,42,0,53,53,74,,,,,,,,,,,,,160.68068049999783,,,,,,,,,,,,,,,,,,,,,,,,,,,,,,,,,,,,,,,,,,,,,160.65434012499827,160.68068049999783,160.68068049999783,160.68068049999783,160.68068049999783,160.68632112533356,160.68068049999783,160.68068049999783,160.68125858299754,Incorrect! The correct answer is Speaker4. نادرست! پاسخ صحیح گوینده۴ است,0,1,1,1.5612614579986257,None,160.68170308299887,160.69198545799736,162.67621320800026,162.6977001669984,,,,,,,,,,,,,,,,,,,,,,,675375,001,2024-07-02_09h37.15.617,5-30,2024.1.4,None,2024-07-02 09h37.20.324275 +0900,
Images/Speaker1.jpg,Images/Speaker2.jpg,Images/Speaker3.jpg,Images/Speaker4.jpg,Audio/Speaker1_Per/P1-4-Per.wav,Speaker1,گوینده ۱,0,0,0,42,0,54,54,13,,,,,,,,,,,,,162.6977001669984,,,,,,,,,,,,,,,,,,,,,,,,,,,,,,,,,,,,,,,,,,,,,162.67637829199884,162.6977001669984,162.6977001669984,162.6977001669984,162.6977001669984,162.69267654166495,162.6977001669984,162.6977001669984,162.6982419169981,Correct! صحیح است,0,1,1,1.6255639170012728,None,162.7020382499977,162.71079754200036,164.69632204200025,164.7209641249974,,,,,,,,,,,,,,,,,,,,,,,675375,001,2024-07-02_09h37.15.617,5-30,2024.1.4,None,2024-07-02 09h37.20.324275 +0900,
Images/Speaker1.jpg,Images/Speaker2.jpg,Images/Speaker3.jpg,Images/Speaker4.jpg,Audio/Speaker2_Per/P2-12-Per.wav,Speaker2,گوینده۲,0,0,0,42,0,55,55,31,,,,,,,,,,,,,164.7209641249974,,,,,,,,,,,,,,,,,,,,,,,,,,,,,,,,,,,,,,,,,,,,,164.69648562499788,164.7209641249974,164.7209641249974,164.7209641249974,164.7209641249974,164.72942258333256,164.7209641249974,164.7209641249974,164.72148324999944,Incorrect! The correct answer is Speaker2. نادرست! پاسخ صحیح گوینده۲ است,0,1,1,1.6769604170003731,None,164.72170387499864,164.7311947499984,166.7246882920008,,,,,,,,,,,,,,,,,,,,,,,,675375,001,2024-07-02_09h37.15.617,5-30,2024.1.4,None,2024-07-02 09h37.20.324275 +0900,
Images/Speaker1.jpg,Images/Speaker2.jpg,Images/Speaker3.jpg,Images/Speaker4.jpg,Audio/Speaker1_Per/P1-10-Per.wav,Speaker1,گوینده ۱,0,0,0,42,0,56,56,9,,,,,,,,,,,,,166.75329741699898,,,,,,,,,,,,,,,,,,,,,,,,,,,,,,,,,,,,,,,,,,,,,166.72525424999913,166.75329741699898,166.75329741699898,166.75329741699898,166.75329741699898,166.757886875334,166.75329741699898,166.75329741699898,166.75387379200038,Correct! صحیح است,0,1,1,1.653177209002024,None,166.75426474999767,166.7622808749984,168.75174958299976,168.77413716699812,,,,,,,,,,,,,,,,,,,,,,,675375,001,2024-07-02_09h37.15.617,5-30,2024.1.4,None,2024-07-02 09h37.20.324275 +0900,
Images/Speaker1.jpg,Images/Speaker2.jpg,Images/Speaker3.jpg,Images/Speaker4.jpg,Audio/Speaker1_Per/P1-9-Per.wav,Speaker1,گوینده ۱,0,0,0,42,0,57,57,8,,,,,,,,,,,,,168.77413716699812,,,,,,,,,,,,,,,,,,,,,,,,,,,,,,,,,,,,,,,,,,,,,168.75192833300025,168.77413716699812,168.77413716699812,168.77413716699812,168.77413716699812,168.76822366666627,168.77413716699812,168.77413716699812,168.7746948749991,Correct! صحیح است,0,1,1,1.7093024169989803,None,168.77892279200023,168.78731487500045,170.77099574999738,170.79316570800074,,,,,,,,,,,,,,,,,,,,,,,675375,001,2024-07-02_09h37.15.617,5-30,2024.1.4,None,2024-07-02 09h37.20.324275 +0900,
Images/Speaker1.jpg,Images/Speaker2.jpg,Images/Speaker3.jpg,Images/Speaker4.jpg,Audio/Speaker2_Per/P2-3-Per.wav,Speaker2,گوینده۲,0,0,0,42,0,58,58,22,,,,,,,,,,,,,170.79316570800074,,,,,,,,,,,,,,,,,,,,,,,,,,,,,,,,,,,,,,,,,,,,,170.77117420799914,170.79316570800074,170.79316570800074,170.79316570800074,170.79316570800074,170.787447541665,170.79316570800074,170.79316570800074,170.79372454199984,Incorrect! The correct answer is Speaker2. نادرست! پاسخ صحیح گوینده۲ است,0,1,1,1.5544845000003988,None,170.7973689999999,170.80668266700013,172.79714949999834,172.82376333299908,,,,,,,,,,,,,,,,,,,,,,,675375,001,2024-07-02_09h37.15.617,5-30,2024.1.4,None,2024-07-02 09h37.20.324275 +0900,
Images/Speaker1.jpg,Images/Speaker2.jpg,Images/Speaker3.jpg,Images/Speaker4.jpg,Audio/Speaker2_Per/P2-15-Per.wav,Speaker2,گوینده۲,0,0,0,42,0,59,59,34,,,,,,,,,,,,,172.82376333299908,,,,,,,,,,,,,,,,,,,,,,,,,,,,,,,,,,,,,,,,,,,,,172.7980956249994,172.82376333299908,172.82376333299908,172.82376333299908,172.82376333299908,172.82954404133176,172.82376333299908,172.82376333299908,172.8244252919976,Incorrect! The correct answer is Speaker2. نادرست! پاسخ صحیح گوینده۲ است,0,1,1,1.3686183749996417,None,172.8248970829991,172.83441691699772,174.8225782499976,174.84443695799928,,,,,,,,,,,,,,,,,,,,,,,675375,001,2024-07-02_09h37.15.617,5-30,2024.1.4,None,2024-07-02 09h37.20.324275 +0900,
Images/Speaker1.jpg,Images/Speaker2.jpg,Images/Speaker3.jpg,Images/Speaker4.jpg,Audio/Speaker1_Per/P1-7-Per.wav,Speaker1,گوینده ۱,0,0,0,42,0,60,60,6,,,,,,,,,,,,,174.84443695799928,,,,,,,,,,,,,,,,,,,,,,,,,,,,,,,,,,,,,,,,,,,,,174.82272858299984,174.84443695799928,174.84443695799928,174.84443695799928,174.84443695799928,174.83903737466633,174.84443695799928,174.84443695799928,174.8450307919993,Correct! صحیح است,0,1,1,1.4098930829968594,None,174.8489477919975,174.85671379199994,176.84033391699995,176.8641868329978,,,,,,,,,,,,,,,,,,,,,,,675375,001,2024-07-02_09h37.15.617,5-30,2024.1.4,None,2024-07-02 09h37.20.324275 +0900,
Images/Speaker1.jpg,Images/Speaker2.jpg,Images/Speaker3.jpg,Images/Speaker4.jpg,Audio/Speaker4_Per/P4-5-Per.wav,Speaker4,گوینده۴,0,0,0,42,0,61,61,64,,,,,,,,,,,,,176.8641868329978,,,,,,,,,,,,,,,,,,,,,,,,,,,,,,,,,,,,,,,,,,,,,176.84084637499836,176.8641868329978,176.8641868329978,176.8641868329978,176.8641868329978,176.87274229133305,176.8641868329978,176.8641868329978,176.86472612500074,Incorrect! The correct answer is Speaker4. نادرست! پاسخ صحیح گوینده۴ است,0,1,1,1.1803273340010492,None,176.86522887499814,176.87462370799767,178.8613915829992,178.88538329199946,,,,,,,,,,,,,,,,,,,,,,,675375,001,2024-07-02_09h37.15.617,5-30,2024.1.4,None,2024-07-02 09h37.20.324275 +0900,
Images/Speaker1.jpg,Images/Speaker2.jpg,Images/Speaker3.jpg,Images/Speaker4.jpg,Audio/Speaker3_Per/P3-17-Per.wav,Speaker3,گوینده۳,0,0,0,42,0,62,62,56,,,,,,,,,,,,,178.88538329199946,,,,,,,,,,,,,,,,,,,,,,,,,,,,,,,,,,,,,,,,,,,,,178.86242833299912,178.88538329199946,178.88538329199946,178.88538329199946,178.88538329199946,178.89365887533182,178.88538329199946,178.88538329199946,178.88592037499984,Incorrect! The correct answer is Speaker3. نادرست! پاسخ صحیح گوینده۳ است,0,1,1,1.0255011670014937,None,178.88614620799854,178.89618762499958,180.8801237919979,180.9021179579977,,,,,,,,,,,,,,,,,,,,,,,675375,001,2024-07-02_09h37.15.617,5-30,2024.1.4,None,2024-07-02 09h37.20.324275 +0900,
Images/Speaker1.jpg,Images/Speaker2.jpg,Images/Speaker3.jpg,Images/Speaker4.jpg,Audio/Speaker4_Per/P4-19-Per.wav,Speaker4,گوینده۴,0,0,0,42,0,63,63,78,,,,,,,,,,,,,180.9021179579977,,,,,,,,,,,,,,,,,,,,,,,,,,,,,,,,,,,,,,,,,,,,,180.8802791249982,180.9021179579977,180.9021179579977,180.9021179579977,180.9021179579977,180.89657641666443,180.9021179579977,180.9021179579977,180.90269262500078,Incorrect! The correct answer is Speaker4. نادرست! پاسخ صحیح گوینده۴ است,0,1,1,1.1187004999992496,None,180.9067885830009,180.91564766699958,182.91230274999907,,,,,,,,,,,,,,,,,,,,,,,,675375,001,2024-07-02_09h37.15.617,5-30,2024.1.4,None,2024-07-02 09h37.20.324275 +0900,
Images/Speaker1.jpg,Images/Speaker2.jpg,Images/Speaker3.jpg,Images/Speaker4.jpg,Audio/Speaker1_Per/P1-16-Per.wav,Speaker1,گوینده ۱,0,0,0,42,0,64,64,15,,,,,,,,,,,,,182.93379300000015,,,,,,,,,,,,,,,,,,,,,,,,,,,,,,,,,,,,,,,,,,,,,182.91245483300008,182.93379300000015,182.93379300000015,182.93379300000015,182.93379300000015,182.92893974966526,182.93379300000015,182.93379300000015,182.934315874998,Correct! صحیح است,0,1,1,1.0107292089996918,None,182.93804745799935,182.94595345799826,184.93011520800064,184.95411862499896,,,,,,,,,,,,,,,,,,,,,,,675375,001,2024-07-02_09h37.15.617,5-30,2024.1.4,None,2024-07-02 09h37.20.324275 +0900,
Images/Speaker1.jpg,Images/Speaker2.jpg,Images/Speaker3.jpg,Images/Speaker4.jpg,Audio/Speaker2_Per/P2-7-Per.wav,Speaker2,گوینده۲,0,0,0,42,0,65,65,26,,,,,,,,,,,,,184.95411862499896,,,,,,,,,,,,,,,,,,,,,,,,,,,,,,,,,,,,,,,,,,,,,184.93027583299772,184.95411862499896,184.95411862499896,184.95411862499896,184.95411862499896,184.96322883333102,184.95411862499896,184.95411862499896,184.95466933299758,Incorrect! The correct answer is Speaker2. نادرست! پاسخ صحیح گوینده۲ است,0,1,1,0.957668791001197,None,184.95491495799797,184.9641037500005,186.94713050000064,186.97016933299892,,,,,,,,,,,,,,,,,,,,,,,675375,001,2024-07-02_09h37.15.617,5-30,2024.1.4,None,2024-07-02 09h37.20.324275 +0900,
Images/Speaker1.jpg,Images/Speaker2.jpg,Images/Speaker3.jpg,Images/Speaker4.jpg,Audio/Speaker1_Per/P1-2-Per.wav,Speaker1,گوینده ۱,0,0,0,42,0,66,66,1,,,,,,,,,,,,,186.97016933299892,,,,,,,,,,,,,,,,,,,,,,,,,,,,,,,,,,,,,,,,,,,,,186.9473513749981,186.97016933299892,186.97016933299892,186.97016933299892,186.97016933299892,186.98025133333118,186.97016933299892,186.97016933299892,186.97081133299798,Correct! صحیح است,0,1,1,1.0179375840016291,None,186.97121866700036,186.97895354199864,188.96256316699873,188.98553970799912,,,,,,,,,,,,,,,,,,,,,,,675375,001,2024-07-02_09h37.15.617,5-30,2024.1.4,None,2024-07-02 09h37.20.324275 +0900,
Images/Speaker1.jpg,Images/Speaker2.jpg,Images/Speaker3.jpg,Images/Speaker4.jpg,Audio/Speaker4_Per/P4-2-Per.wav,Speaker4,گوینده۴,0,0,0,42,0,67,67,61,,,,,,,,,,,,,188.98553970799912,,,,,,,,,,,,,,,,,,,,,,,,,,,,,,,,,,,,,,,,,,,,,188.96274408300087,188.98553970799912,188.98553970799912,188.98553970799912,188.98553970799912,188.97903470866757,188.98553970799912,188.98553970799912,188.98608541700014,Incorrect! The correct answer is Speaker4. نادرست! پاسخ صحیح گوینده۴ است,0,1,1,0.9196599169990805,None,188.98650587500015,188.99635566699726,190.98725833299977,191.01142174999768,,,,,,,,,,,,,,,,,,,,,,,675375,001,2024-07-02_09h37.15.617,5-30,2024.1.4,None,2024-07-02 09h37.20.324275 +0900,
Images/Speaker1.jpg,Images/Speaker2.jpg,Images/Speaker3.jpg,Images/Speaker4.jpg,Audio/Speaker2_Per/P2-20-Per.wav,Speaker2,گوینده۲,0,0,0,42,0,68,68,39,,,,,,,,,,,,,191.01142174999768,,,,,,,,,,,,,,,,,,,,,,,,,,,,,,,,,,,,,,,,,,,,,190.98780629199973,191.01142174999768,191.01142174999768,191.01142174999768,191.01142174999768,191.01974770833164,191.01142174999768,191.01142174999768,191.01197545799732,Incorrect! The correct answer is Speaker2. نادرست! پاسخ صحیح گوینده۲ است,0,1,1,0.955579666999256,None,191.01249499999903,191.0216178749979,193.01325887499843,,,,,,,,,,,,,,,,,,,,,,,,675375,001,2024-07-02_09h37.15.617,5-30,2024.1.4,None,2024-07-02 09h37.20.324275 +0900,
Images/Speaker1.jpg,Images/Speaker2.jpg,Images/Speaker3.jpg,Images/Speaker4.jpg,Audio/Speaker3_Per/P3-18-Per.wav,Speaker3,گوینده۳,0,0,0,42,0,69,69,57,,,,,,,,,,,,,193.03840141699766,,,,,,,,,,,,,,,,,,,,,,,,,,,,,,,,,,,,,,,,,,,,,193.01383449999776,193.03840141699766,193.03840141699766,193.03840141699766,193.03840141699766,193.04645545833097,193.03840141699766,193.03840141699766,193.03896883299967,Incorrect! The correct answer is Speaker3. نادرست! پاسخ صحیح گوینده۳ است,0,1,1,0.9432330419986101,None,193.03938175000076,193.04886758299835,195.04247437499725,,,,,,,,,,,,,,,,,,,,,,,,675375,001,2024-07-02_09h37.15.617,5-30,2024.1.4,None,2024-07-02 09h37.20.324275 +0900,
Images/Speaker1.jpg,Images/Speaker2.jpg,Images/Speaker3.jpg,Images/Speaker4.jpg,Audio/Speaker2_Per/P2-4-Per.wav,Speaker2,گوینده۲,0,0,0,42,0,70,70,23,,,,,,,,,,,,,195.06570233299863,,,,,,,,,,,,,,,,,,,,,,,,,,,,,,,,,,,,,,,,,,,,,195.04264466699897,195.06570233299863,195.06570233299863,195.06570233299863,195.06570233299863,195.07577458333304,195.06570233299863,195.06570233299863,195.0663416669995,Incorrect! The correct answer is Speaker2. نادرست! پاسخ صحیح گوینده۲ است,0,1,1,1.005739291998907,None,195.0668711670005,195.07677820800018,197.06071841700032,197.0830015419997,,,,,,,,,,,,,,,,,,,,,,,675375,001,2024-07-02_09h37.15.617,5-30,2024.1.4,None,2024-07-02 09h37.20.324275 +0900,
Images/Speaker1.jpg,Images/Speaker2.jpg,Images/Speaker3.jpg,Images/Speaker4.jpg,Audio/Speaker1_Per/P1-18-Per.wav,Speaker1,گوینده ۱,0,0,0,42,0,71,71,17,,,,,,,,,,,,,197.0830015419997,,,,,,,,,,,,,,,,,,,,,,,,,,,,,,,,,,,,,,,,,,,,,197.06089708299987,197.0830015419997,197.0830015419997,197.0830015419997,197.0830015419997,197.07709683366582,197.0830015419997,197.0830015419997,197.0835962079982,Correct! صحیح است,0,1,1,0.8805228749988601,None,197.08749058299873,197.09495020800023,199.0796404169996,199.10198733300058,,,,,,,,,,,,,,,,,,,,,,,675375,001,2024-07-02_09h37.15.617,5-30,2024.1.4,None,2024-07-02 09h37.20.324275 +0900,
Images/Speaker1.jpg,Images/Speaker2.jpg,Images/Speaker3.jpg,Images/Speaker4.jpg,Audio/Speaker1_Per/P1-1-Per.wav,Speaker1,گوینده ۱,0,0,0,42,0,72,72,0,,,,,,,,,,,,,199.10198733300058,,,,,,,,,,,,,,,,,,,,,,,,,,,,,,,,,,,,,,,,,,,,,199.07979825000075,199.10198733300058,199.10198733300058,199.10198733300058,199.10198733300058,199.09607929166694,199.10198733300058,199.10198733300058,199.10253274999923,Correct! صحیح است,0,1,1,0.8790805419994285,None,199.10625212499872,199.11417299999812,201.11213924999902,,,,,,,,,,,,,,,,,,,,,,,,675375,001,2024-07-02_09h37.15.617,5-30,2024.1.4,None,2024-07-02 09h37.20.324275 +0900,
Images/Speaker1.jpg,Images/Speaker2.jpg,Images/Speaker3.jpg,Images/Speaker4.jpg,Audio/Speaker1_Per/P1-6-Per.wav,Speaker1,گوینده ۱,0,0,0,42,0,73,73,5,,,,,,,,,,,,,201.13847887500015,,,,,,,,,,,,,,,,,,,,,,,,,,,,,,,,,,,,,,,,,,,,,201.11272312499932,201.13847887500015,201.13847887500015,201.13847887500015,201.13847887500015,201.14532087533422,201.13847887500015,201.13847887500015,201.1390395419985,Correct! صحیح است,0,1,1,1.0160166669993487,None,201.13939729199774,201.1470894999984,203.1303204169999,203.15314408300037,,,,,,,,,,,,,,,,,,,,,,,675375,001,2024-07-02_09h37.15.617,5-30,2024.1.4,None,2024-07-02 09h37.20.324275 +0900,
Images/Speaker1.jpg,Images/Speaker2.jpg,Images/Speaker3.jpg,Images/Speaker4.jpg,Audio/Speaker3_Per/P3-7-Per.wav,Speaker3,گوینده۳,0,0,0,42,0,74,74,46,,,,,,,,,,,,,203.15314408300037,,,,,,,,,,,,,,,,,,,,,,,,,,,,,,,,,,,,,,,,,,,,,203.13051995799833,203.15314408300037,203.15314408300037,203.15314408300037,203.15314408300037,203.16342083333126,203.15314408300037,203.15314408300037,203.1537463329987,Incorrect! The correct answer is Speaker3. نادرست! پاسخ صحیح گوینده۳ است,0,1,1,1.040490208000847,None,203.15405612500035,203.16319799999837,205.14910116700048,205.1732587080005,,,,,,,,,,,,,,,,,,,,,,,675375,001,2024-07-02_09h37.15.617,5-30,2024.1.4,None,2024-07-02 09h37.20.324275 +0900,
Images/Speaker1.jpg,Images/Speaker2.jpg,Images/Speaker3.jpg,Images/Speaker4.jpg,Audio/Speaker2_Per/P2-9-Per.wav,Speaker2,گوینده۲,0,0,0,42,0,75,75,28,,,,,,,,,,,,,205.1732587080005,,,,,,,,,,,,,,,,,,,,,,,,,,,,,,,,,,,,,,,,,,,,,205.14998166700025,205.1732587080005,205.1732587080005,205.1732587080005,205.1732587080005,205.18146300033237,205.1732587080005,205.1732587080005,205.1738037920004,Incorrect! The correct answer is Speaker2. نادرست! پاسخ صحیح گوینده۲ است,0,1,1,0.9548907919997873,None,205.1740832079995,205.18368120800005,207.1780481249989,,,,,,,,,,,,,,,,,,,,,,,,675375,001,2024-07-02_09h37.15.617,5-30,2024.1.4,None,2024-07-02 09h37.20.324275 +0900,
Images/Speaker1.jpg,Images/Speaker2.jpg,Images/Speaker3.jpg,Images/Speaker4.jpg,Audio/Speaker3_Per/P3-11-Per.wav,Speaker3,گوینده۳,0,0,0,42,0,76,76,50,,,,,,,,,,,,,207.20486795800025,,,,,,,,,,,,,,,,,,,,,,,,,,,,,,,,,,,,,,,,,,,,,207.1785958750006,207.20486795800025,207.20486795800025,207.20486795800025,207.20486795800025,207.2111979163315,207.20486795800025,207.20486795800025,207.2054592079985,Incorrect! The correct answer is Speaker3. نادرست! پاسخ صحیح گوینده۳ است,0,1,1,1.1475728749974223,None,207.20596729200042,207.2156869999999,209.20940120799787,,,,,,,,,,,,,,,,,,,,,,,,675375,001,2024-07-02_09h37.15.617,5-30,2024.1.4,None,2024-07-02 09h37.20.324275 +0900,
Images/Speaker1.jpg,Images/Speaker2.jpg,Images/Speaker3.jpg,Images/Speaker4.jpg,Audio/Speaker4_Per/P4-3-Per.wav,Speaker4,گوینده۴,0,0,0,42,0,77,77,62,,,,,,,,,,,,,209.23129120799786,,,,,,,,,,,,,,,,,,,,,,,,,,,,,,,,,,,,,,,,,,,,,209.20955670799958,209.23129120799786,209.23129120799786,209.23129120799786,209.23129120799786,209.22603791666577,209.23129120799786,209.23129120799786,209.23187683300057,Incorrect! The correct answer is Speaker4. نادرست! پاسخ صحیح گوینده۴ است,0,1,1,1.1420338749994698,None,209.2359718330008,209.24601166700086,211.23066570800074,211.25335087499843,,,,,,,,,,,,,,,,,,,,,,,675375,001,2024-07-02_09h37.15.617,5-30,2024.1.4,None,2024-07-02 09h37.20.324275 +0900,
Images/Speaker1.jpg,Images/Speaker2.jpg,Images/Speaker3.jpg,Images/Speaker4.jpg,Audio/Speaker3_Per/P3-1-Per.wav,Speaker3,گوینده۳,0,0,0,42,0,78,78,40,,,,,,,,,,,,,211.25335087499843,,,,,,,,,,,,,,,,,,,,,,,,,,,,,,,,,,,,,,,,,,,,,211.2308529999973,211.25335087499843,211.25335087499843,211.25335087499843,211.25335087499843,211.24710387466646,211.25335087499843,211.25335087499843,211.25393120800072,Incorrect! The correct answer is Speaker3. نادرست! پاسخ صحیح گوینده۳ است,0,1,1,1.1011312909977278,None,211.25786874999903,211.2669976670004,213.2555401669997,213.27768658299829,,,,,,,,,,,,,,,,,,,,,,,675375,001,2024-07-02_09h37.15.617,5-30,2024.1.4,None,2024-07-02 09h37.20.324275 +0900,
Images/Speaker1.jpg,Images/Speaker2.jpg,Images/Speaker3.jpg,Images/Speaker4.jpg,Audio/Speaker2_Per/P2-5-Per.wav,Speaker2,گوینده۲,0,0,0,42,0,79,79,24,,,,,,,,,,,,,213.27768658299829,,,,,,,,,,,,,,,,,,,,,,,,,,,,,,,,,,,,,,,,,,,,,213.25570408299973,213.27768658299829,213.27768658299829,213.27768658299829,213.27768658299829,213.2719874586658,213.27768658299829,213.27768658299829,213.27821879199837,Incorrect! The correct answer is Speaker2. نادرست! پاسخ صحیح گوینده۲ است,0,1,1,1.5854165419987112,None,213.28192866699828,213.29174720800074,215.27845787499973,215.32044354199752,,,,,,,,,,,,,,,,,,,,,,,675375,001,2024-07-02_09h37.15.617,5-30,2024.1.4,None,2024-07-02 09h37.20.324275 +0900,
Images/Speaker1.jpg,Images/Speaker2.jpg,Images/Speaker3.jpg,Images/Speaker4.jpg,Audio/Speaker3_Per/P3-3-Per.wav,Speaker3,گوینده۳,0,0,0,42,,,,,,,,,,,,,,,,,,,,,,,,,,,,,,,,,,,,,,,,,,,,,,,,,,,,,,,,,,,,,,,,,,,,,,,,,,,,,,,,,215.27853920800044,0.0,False,215.27871779199995,,,,,,,,,,,,,,,,,,,675375,001,2024-07-02_09h37.15.617,5-30,2024.1.4,None,2024-07-02 09h37.20.324275 +0900,
Images/Speaker1.jpg,Images/Speaker2.jpg,Images/Speaker3.jpg,Images/Speaker4.jpg,Audio/Speaker4_Per/P4-1-Per.wav,Speaker4,گوینده۴,0,1,1,2,0,0,0,60,,,,,,,,,,,,,215.32044354199752,,,,,,,,,,,,,,,,,,,,,,,,,,,,,,,,,,,,,,,,,,,,,215.2997298329974,215.32044354199752,215.32044354199752,215.32044354199752,215.32044354199752,215.32824816700014,215.32044354199752,215.32044354199752,219.52411154199945,Correct! صحیح است,0,1,4,4.200000207998528,None,219.52449804199932,219.535393457998,221.52672662499754,,,,,,,,,,,,,,,,,,,,,,,,675375,001,2024-07-02_09h37.15.617,5-30,2024.1.4,None,2024-07-02 09h37.20.324275 +0900,
Images/Speaker1.jpg,Images/Speaker2.jpg,Images/Speaker3.jpg,Images/Speaker4.jpg,Audio/Speaker1_Per/P1-2-Per.wav,Speaker1,گوینده ۱,0,1,1,2,0,1,1,1,,,,,,,,,,,,,221.54765691699868,,,,,,,,,,,,,,,,,,,,,,,,,,,,,,,,,,,,,,,,,,,,,221.52688258299895,221.54765691699868,221.54765691699868,221.54765691699868,221.54765691699868,221.54336079166413,221.54765691699868,221.54765691699868,223.1318804170005,Correct! صحیح است,0,1,1,1.5784979999989446,None,223.136124749999,223.14737912499913,225.13356337499863,225.15444466699773,,,,,,,,,,,,,,,,,,,,,,,675375,001,2024-07-02_09h37.15.617,5-30,2024.1.4,None,2024-07-02 09h37.20.324275 +0900,
Images/Speaker1.jpg,Images/Speaker2.jpg,Images/Speaker3.jpg,Images/Speaker4.jpg,Audio/Speaker2_Per/P2-6-Per.wav,Speaker2,گوینده۲,0,1,1,2,0,2,2,25,,,,,,,,,,,,,225.15444466699773,,,,,,,,,,,,,,,,,,,,,,,,,,,,,,,,,,,,,,,,,,,,,225.13376575000075,225.15444466699773,225.15444466699773,225.15444466699773,225.15444466699773,225.1499387496663,225.15444466699773,225.15444466699773,226.44244479199915,Correct! صحیح است,0,1,2,1.2865407909994246,None,226.44639062499846,226.4581409579987,228.44226708299902,228.4638211249985,,,,,,,,,,,,,,,,,,,,,,,675375,001,2024-07-02_09h37.15.617,5-30,2024.1.4,None,2024-07-02 09h37.20.324275 +0900,
Images/Speaker1.jpg,Images/Speaker2.jpg,Images/Speaker3.jpg,Images/Speaker4.jpg,Audio/Speaker1_Per/P1-15-Per.wav,Speaker1,گوینده ۱,0,1,1,2,0,3,3,14,,,,,,,,,,,,,228.4638211249985,,,,,,,,,,,,,,,,,,,,,,,,,,,,,,,,,,,,,,,,,,,,,228.44245266699727,228.4638211249985,228.4638211249985,228.4638211249985,228.4638211249985,228.458647124666,228.4638211249985,228.4638211249985,229.93312358299954,Correct! صحیح است,0,1,1,1.4655947920000472,None,229.93749133299934,229.94856762500058,231.94264887499958,,,,,,,,,,,,,,,,,,,,,,,,675375,001,2024-07-02_09h37.15.617,5-30,2024.1.4,None,2024-07-02 09h37.20.324275 +0900,
Images/Speaker1.jpg,Images/Speaker2.jpg,Images/Speaker3.jpg,Images/Speaker4.jpg,Audio/Speaker2_Per/P2-8-Per.wav,Speaker2,گوینده۲,0,1,1,2,0,4,4,27,,,,,,,,,,,,,231.96405637499993,,,,,,,,,,,,,,,,,,,,,,,,,,,,,,,,,,,,,,,,,,,,,231.94281683299778,231.96405637499993,231.96405637499993,231.96405637499993,231.96405637499993,231.95927933366718,231.96405637499993,231.96405637499993,232.99817291699947,Correct! صحیح است,0,1,2,1.0328877079991798,None,233.0020674999978,233.01306895800008,234.9960772079976,235.01782733299842,,,,,,,,,,,,,,,,,,,,,,,675375,001,2024-07-02_09h37.15.617,5-30,2024.1.4,None,2024-07-02 09h37.20.324275 +0900,
Images/Speaker1.jpg,Images/Speaker2.jpg,Images/Speaker3.jpg,Images/Speaker4.jpg,Audio/Speaker1_Per/P1-6-Per.wav,Speaker1,گوینده ۱,0,1,1,2,0,5,5,5,,,,,,,,,,,,,235.01782733299842,,,,,,,,,,,,,,,,,,,,,,,,,,,,,,,,,,,,,,,,,,,,,234.9962506669981,235.01782733299842,235.01782733299842,235.01782733299842,235.01782733299842,235.01253654166456,235.01782733299842,235.01782733299842,236.59772041699762,Correct! صحیح است,0,1,1,1.5767467499972554,None,236.6024440000001,236.6139417919985,238.60375716699855,,,,,,,,,,,,,,,,,,,,,,,,675375,001,2024-07-02_09h37.15.617,5-30,2024.1.4,None,2024-07-02 09h37.20.324275 +0900,
Images/Speaker1.jpg,Images/Speaker2.jpg,Images/Speaker3.jpg,Images/Speaker4.jpg,Audio/Speaker3_Per/P3-14-Per.wav,Speaker3,گوینده۳,0,1,1,2,0,6,6,53,,,,,,,,,,,,,238.62417995799842,,,,,,,,,,,,,,,,,,,,,,,,,,,,,,,,,,,,,,,,,,,,,238.60391145799804,238.62417995799842,238.62417995799842,238.62417995799842,238.62417995799842,238.62038791666444,238.62417995799842,238.62417995799842,240.70447870799762,Correct! صحیح است,0,1,3,2.0713219579993165,None,240.7086691250006,240.71673254199777,242.70233808299963,242.7221689170001,,,,,,,,,,,,,,,,,,,,,,,675375,001,2024-07-02_09h37.15.617,5-30,2024.1.4,None,2024-07-02 09h37.20.324275 +0900,
Images/Speaker1.jpg,Images/Speaker2.jpg,Images/Speaker3.jpg,Images/Speaker4.jpg,Audio/Speaker2_Per/P2-10-Per.wav,Speaker2,گوینده۲,0,1,1,2,0,7,7,29,,,,,,,,,,,,,242.7221689170001,,,,,,,,,,,,,,,,,,,,,,,,,,,,,,,,,,,,,,,,,,,,,242.70249254199734,242.7221689170001,242.7221689170001,242.7221689170001,242.7221689170001,242.71879791666677,242.7221689170001,242.7221689170001,244.04853612499937,Correct! صحیح است,0,1,2,1.323353457999474,None,244.05274770799952,244.06401604200073,246.05288308300078,246.07473458299864,,,,,,,,,,,,,,,,,,,,,,,675375,001,2024-07-02_09h37.15.617,5-30,2024.1.4,None,2024-07-02 09h37.20.324275 +0900,
Images/Speaker1.jpg,Images/Speaker2.jpg,Images/Speaker3.jpg,Images/Speaker4.jpg,Audio/Speaker3_Per/P3-11-Per.wav,Speaker3,گوینده۳,0,1,1,2,0,8,8,50,,,,,,,,,,,,,246.07473458299864,,,,,,,,,,,,,,,,,,,,,,,,,,,,,,,,,,,,,,,,,,,,,246.0530452919993,246.07473458299864,246.07473458299864,246.07473458299864,246.07473458299864,246.06930504166692,246.07473458299864,246.07473458299864,247.39266995800062,Correct! صحیح است,0,1,3,1.3089671250018,None,247.39649358300085,247.40760529199906,249.39201150000008,249.415500916999,,,,,,,,,,,,,,,,,,,,,,,675375,001,2024-07-02_09h37.15.617,5-30,2024.1.4,None,2024-07-02 09h37.20.324275 +0900,
Images/Speaker1.jpg,Images/Speaker2.jpg,Images/Speaker3.jpg,Images/Speaker4.jpg,Audio/Speaker1_Per/P1-11-Per.wav,Speaker1,گوینده ۱,0,1,1,2,0,9,9,10,,,,,,,,,,,,,249.415500916999,,,,,,,,,,,,,,,,,,,,,,,,,,,,,,,,,,,,,,,,,,,,,249.39299508299882,249.415500916999,249.415500916999,249.415500916999,249.415500916999,249.42425058333225,249.415500916999,249.415500916999,250.65181362499789,Correct! صحیح است,0,1,1,1.232847084000241,None,250.65593304199865,250.66767620799874,252.65151233299912,252.67254324999885,,,,,,,,,,,,,,,,,,,,,,,675375,001,2024-07-02_09h37.15.617,5-30,2024.1.4,None,2024-07-02 09h37.20.324275 +0900,
Images/Speaker1.jpg,Images/Speaker2.jpg,Images/Speaker3.jpg,Images/Speaker4.jpg,Audio/Speaker3_Per/P3-18-Per.wav,Speaker3,گوینده۳,0,1,1,2,0,10,10,57,,,,,,,,,,,,,252.67254324999885,,,,,,,,,,,,,,,,,,,,,,,,,,,,,,,,,,,,,,,,,,,,,252.65171199999895,252.67254324999885,252.67254324999885,252.67254324999885,252.67254324999885,252.66796345866558,252.67254324999885,252.67254324999885,254.01090941700022,Correct! صحیح است,0,1,3,1.3319639170003938,None,254.01467129199955,254.02557637499922,256.0121505829993,256.0364965419976,,,,,,,,,,,,,,,,,,,,,,,675375,001,2024-07-02_09h37.15.617,5-30,2024.1.4,None,2024-07-02 09h37.20.324275 +0900,
Images/Speaker1.jpg,Images/Speaker2.jpg,Images/Speaker3.jpg,Images/Speaker4.jpg,Audio/Speaker2_Per/P2-13-Per.wav,Speaker2,گوینده۲,0,1,1,2,0,11,11,32,,,,,,,,,,,,,256.0364965419976,,,,,,,,,,,,,,,,,,,,,,,,,,,,,,,,,,,,,,,,,,,,,256.0128607080005,256.0364965419976,256.0364965419976,256.0364965419976,256.0364965419976,256.0443440833337,256.0364965419976,256.0364965419976,257.64009066699873,Correct! صحیح است,0,1,2,1.5959259580013168,None,257.644397666998,257.65343745800055,259.63867258299797,259.65959020800074,,,,,,,,,,,,,,,,,,,,,,,675375,001,2024-07-02_09h37.15.617,5-30,2024.1.4,None,2024-07-02 09h37.20.324275 +0900,
Images/Speaker1.jpg,Images/Speaker2.jpg,Images/Speaker3.jpg,Images/Speaker4.jpg,Audio/Speaker3_Per/P3-20-Per.wav,Speaker3,گوینده۳,0,1,1,2,0,12,12,59,,,,,,,,,,,,,259.65959020800074,,,,,,,,,,,,,,,,,,,,,,,,,,,,,,,,,,,,,,,,,,,,,259.6388420000003,259.65959020800074,259.65959020800074,259.65959020800074,259.65959020800074,259.65510691666736,259.65959020800074,259.65959020800074,261.29637575000015,Correct! صحیح است,0,1,3,1.6215921250004612,None,261.30033058299887,261.3116772499998,263.30257020799763,,,,,,,,,,,,,,,,,,,,,,,,675375,001,2024-07-02_09h37.15.617,5-30,2024.1.4,None,2024-07-02 09h37.20.324275 +0900,
Images/Speaker1.jpg,Images/Speaker2.jpg,Images/Speaker3.jpg,Images/Speaker4.jpg,Audio/Speaker4_Per/P4-12-Per.wav,Speaker4,گوینده۴,0,1,1,2,0,13,13,71,,,,,,,,,,,,,263.32191795799736,,,,,,,,,,,,,,,,,,,,,,,,,,,,,,,,,,,,,,,,,,,,,263.30273029199816,263.32191795799736,263.32191795799736,263.32191795799736,263.32191795799736,263.3192027496664,263.32191795799736,263.32191795799736,264.9679181669999,Correct! صحیح است,0,1,4,1.6370094999983849,None,264.97196933300074,264.98307125000065,266.96804158300074,266.98831416699977,,,,,,,,,,,,,,,,,,,,,,,675375,001,2024-07-02_09h37.15.617,5-30,2024.1.4,None,2024-07-02 09h37.20.324275 +0900,
Images/Speaker1.jpg,Images/Speaker2.jpg,Images/Speaker3.jpg,Images/Speaker4.jpg,Audio/Speaker4_Per/P4-20-Per.wav,Speaker4,گوینده۴,0,1,1,2,0,14,14,79,,,,,,,,,,,,,266.98831416699977,,,,,,,,,,,,,,,,,,,,,,,,,,,,,,,,,,,,,,,,,,,,,266.9682032919991,266.98831416699977,266.98831416699977,266.98831416699977,266.98831416699977,266.9844262496665,266.98831416699977,266.98831416699977,268.2601523329977,Correct! صحیح است,0,1,4,1.2673632080004609,None,268.26411241700043,268.27510695800083,270.25962674999755,270.280995541998,,,,,,,,,,,,,,,,,,,,,,,675375,001,2024-07-02_09h37.15.617,5-30,2024.1.4,None,2024-07-02 09h37.20.324275 +0900,
Images/Speaker1.jpg,Images/Speaker2.jpg,Images/Speaker3.jpg,Images/Speaker4.jpg,Audio/Speaker2_Per/P2-14-Per.wav,Speaker2,گوینده۲,0,1,1,2,0,15,15,33,,,,,,,,,,,,,270.280995541998,,,,,,,,,,,,,,,,,,,,,,,,,,,,,,,,,,,,,,,,,,,,,270.25979299999744,270.280995541998,270.280995541998,270.280995541998,270.280995541998,270.27601070866535,270.280995541998,270.280995541998,272.23782075000054,Correct! صحیح است,0,1,2,1.9471439580011065,None,272.24194241700025,272.25021187499806,274.23852520799846,274.25959087500087,,,,,,,,,,,,,,,,,,,,,,,675375,001,2024-07-02_09h37.15.617,5-30,2024.1.4,None,2024-07-02 09h37.20.324275 +0900,
Images/Speaker1.jpg,Images/Speaker2.jpg,Images/Speaker3.jpg,Images/Speaker4.jpg,Audio/Speaker2_Per/P2-11-Per.wav,Speaker2,گوینده۲,0,1,1,2,0,16,16,30,,,,,,,,,,,,,274.25959087500087,,,,,,,,,,,,,,,,,,,,,,,,,,,,,,,,,,,,,,,,,,,,,274.23869874999946,274.25959087500087,274.25959087500087,274.25959087500087,274.25959087500087,274.254836708664,274.25959087500087,274.25959087500087,276.0333632080001,Correct! صحیح است,0,1,2,1.7725386669990257,None,276.03740016699885,276.0488844169995,278.03270883299774,278.05312762500034,,,,,,,,,,,,,,,,,,,,,,,675375,001,2024-07-02_09h37.15.617,5-30,2024.1.4,None,2024-07-02 09h37.20.324275 +0900,
Images/Speaker1.jpg,Images/Speaker2.jpg,Images/Speaker3.jpg,Images/Speaker4.jpg,Audio/Speaker2_Per/P2-18-Per.wav,Speaker2,گوینده۲,0,1,1,2,0,17,17,37,,,,,,,,,,,,,278.05312762500034,,,,,,,,,,,,,,,,,,,,,,,,,,,,,,,,,,,,,,,,,,,,,278.03287516699856,278.05312762500034,278.05312762500034,278.05312762500034,278.05312762500034,278.0490815416672,278.05312762500034,278.05312762500034,279.1437833329983,Correct! صحیح است,0,1,2,1.0871199159992102,None,279.1479038329999,279.1602067499989,281.1470688749978,281.1695248750002,,,,,,,,,,,,,,,,,,,,,,,675375,001,2024-07-02_09h37.15.617,5-30,2024.1.4,None,2024-07-02 09h37.20.324275 +0900,
Images/Speaker1.jpg,Images/Speaker2.jpg,Images/Speaker3.jpg,Images/Speaker4.jpg,Audio/Speaker4_Per/P4-5-Per.wav,Speaker4,گوینده۴,0,1,1,2,0,18,18,64,,,,,,,,,,,,,281.1695248750002,,,,,,,,,,,,,,,,,,,,,,,,,,,,,,,,,,,,,,,,,,,,,281.14801304199864,281.1695248750002,281.1695248750002,281.1695248750002,281.1695248750002,281.1794255833306,281.1695248750002,281.1695248750002,283.40662362500007,Correct! صحیح است,0,1,4,2.236077292000118,None,283.4107355419983,283.421916416999,285.40446916699875,285.42571408299773,,,,,,,,,,,,,,,,,,,,,,,675375,001,2024-07-02_09h37.15.617,5-30,2024.1.4,None,2024-07-02 09h37.20.324275 +0900,
Images/Speaker1.jpg,Images/Speaker2.jpg,Images/Speaker3.jpg,Images/Speaker4.jpg,Audio/Speaker4_Per/P4-2-Per.wav,Speaker4,گوینده۴,0,1,1,2,0,19,19,61,,,,,,,,,,,,,285.42571408299773,,,,,,,,,,,,,,,,,,,,,,,,,,,,,,,,,,,,,,,,,,,,,285.4046345829993,285.42571408299773,285.42571408299773,285.42571408299773,285.42571408299773,285.4209342496654,285.42571408299773,285.42571408299773,286.9455512079985,Correct! صحیح است,0,1,4,1.5096708750024845,None,286.94950762499866,286.95993649999946,288.95431420800014,,,,,,,,,,,,,,,,,,,,,,,,675375,001,2024-07-02_09h37.15.617,5-30,2024.1.4,None,2024-07-02 09h37.20.324275 +0900,
Images/Speaker1.jpg,Images/Speaker2.jpg,Images/Speaker3.jpg,Images/Speaker4.jpg,Audio/Speaker3_Per/P3-19-Per.wav,Speaker3,گوینده۳,0,1,1,2,0,20,20,58,,,,,,,,,,,,,288.9786039999999,,,,,,,,,,,,,,,,,,,,,,,,,,,,,,,,,,,,,,,,,,,,,288.95488020799894,288.9786039999999,288.9786039999999,288.9786039999999,288.9786039999999,288.9875142913338,288.9786039999999,288.9786039999999,290.38922120799907,Correct! صحیح است,0,1,3,1.4092283749996568,None,290.3929542499973,290.4039815420001,292.3882534999975,292.4082755419986,,,,,,,,,,,,,,,,,,,,,,,675375,001,2024-07-02_09h37.15.617,5-30,2024.1.4,None,2024-07-02 09h37.20.324275 +0900,
Images/Speaker1.jpg,Images/Speaker2.jpg,Images/Speaker3.jpg,Images/Speaker4.jpg,Audio/Speaker4_Per/P4-10-Per.wav,Speaker4,گوینده۴,0,1,1,2,0,21,21,69,,,,,,,,,,,,,292.4082755419986,,,,,,,,,,,,,,,,,,,,,,,,,,,,,,,,,,,,,,,,,,,,,292.3884079999989,292.4082755419986,292.4082755419986,292.4082755419986,292.4082755419986,292.4046970836646,292.4082755419986,292.4082755419986,293.85674816699975,Correct! صحیح است,0,1,4,1.4474415000004228,None,293.86076445800063,293.8717077500005,295.8608605829977,,,,,,,,,,,,,,,,,,,,,,,,675375,001,2024-07-02_09h37.15.617,5-30,2024.1.4,None,2024-07-02 09h37.20.324275 +0900,
Images/Speaker1.jpg,Images/Speaker2.jpg,Images/Speaker3.jpg,Images/Speaker4.jpg,Audio/Speaker1_Per/P1-7-Per.wav,Speaker1,گوینده ۱,0,1,1,2,0,22,22,6,,,,,,,,,,,,,295.88369341699945,,,,,,,,,,,,,,,,,,,,,,,,,,,,,,,,,,,,,,,,,,,,,295.86150008299956,295.88369341699945,295.88369341699945,295.88369341699945,295.88369341699945,295.8773834586648,295.88369341699945,295.88369341699945,297.24113108299935,Correct! صحیح است,0,1,1,1.3488120840011106,None,297.24487770799897,297.25442779199875,299.2469026250001,,,,,,,,,,,,,,,,,,,,,,,,675375,001,2024-07-02_09h37.15.617,5-30,2024.1.4,None,2024-07-02 09h37.20.324275 +0900,
Images/Speaker1.jpg,Images/Speaker2.jpg,Images/Speaker3.jpg,Images/Speaker4.jpg,Audio/Speaker1_Per/P1-4-Per.wav,Speaker1,گوینده ۱,0,1,1,2,0,23,23,3,,,,,,,,,,,,,299.270236291999,,,,,,,,,,,,,,,,,,,,,,,,,,,,,,,,,,,,,,,,,,,,,299.24747104199923,299.270236291999,299.270236291999,299.270236291999,299.270236291999,299.28009525033167,299.270236291999,299.270236291999,300.7173029999976,Correct! صحیح است,0,1,1,1.4358597909995297,None,300.7210877079997,300.7292478749987,302.72222558299836,,,,,,,,,,,,,,,,,,,,,,,,675375,001,2024-07-02_09h37.15.617,5-30,2024.1.4,None,2024-07-02 09h37.20.324275 +0900,
Images/Speaker1.jpg,Images/Speaker2.jpg,Images/Speaker3.jpg,Images/Speaker4.jpg,Audio/Speaker1_Per/P1-19-Per.wav,Speaker1,گوینده ۱,0,1,1,2,0,24,24,18,,,,,,,,,,,,,302.7438853329986,,,,,,,,,,,,,,,,,,,,,,,,,,,,,,,,,,,,,,,,,,,,,302.72238104200005,302.7438853329986,302.7438853329986,302.7438853329986,302.7438853329986,302.73886029166556,302.7438853329986,302.7438853329986,304.526324167,Correct! صحیح است,0,1,1,1.780396166999708,None,304.5310382919997,304.5434838330002,306.53028933300084,306.5558576669973,,,,,,,,,,,,,,,,,,,,,,,675375,001,2024-07-02_09h37.15.617,5-30,2024.1.4,None,2024-07-02 09h37.20.324275 +0900,
Images/Speaker1.jpg,Images/Speaker2.jpg,Images/Speaker3.jpg,Images/Speaker4.jpg,Audio/Speaker1_Per/P1-4-Per.wav,Speaker1,گوینده ۱,0,1,1,2,0,25,25,13,,,,,,,,,,,,,306.5558576669973,,,,,,,,,,,,,,,,,,,,,,,,,,,,,,,,,,,,,,,,,,,,,306.53123387499727,306.5558576669973,306.5558576669973,306.5558576669973,306.5558576669973,306.5625715413339,306.5558576669973,306.5558576669973,307.7232773329997,Correct! صحیح است,0,1,1,1.166382249997696,None,307.7273942920001,307.738425749998,309.72261379200063,309.74392066699875,,,,,,,,,,,,,,,,,,,,,,,675375,001,2024-07-02_09h37.15.617,5-30,2024.1.4,None,2024-07-02 09h37.20.324275 +0900,
Images/Speaker1.jpg,Images/Speaker2.jpg,Images/Speaker3.jpg,Images/Speaker4.jpg,Audio/Speaker3_Per/P3-8-Per.wav,Speaker3,گوینده۳,0,1,1,2,0,26,26,47,,,,,,,,,,,,,309.74392066699875,,,,,,,,,,,,,,,,,,,,,,,,,,,,,,,,,,,,,,,,,,,,,309.7227735419983,309.74392066699875,309.74392066699875,309.74392066699875,309.74392066699875,309.73907174966394,309.74392066699875,309.74392066699875,311.1770907499995,Correct! صحیح است,0,1,3,1.4212350000016158,None,311.18084158299826,311.19328066699745,313.18095329199787,313.20551024999804,,,,,,,,,,,,,,,,,,,,,,,675375,001,2024-07-02_09h37.15.617,5-30,2024.1.4,None,2024-07-02 09h37.20.324275 +0900,
Images/Speaker1.jpg,Images/Speaker2.jpg,Images/Speaker3.jpg,Images/Speaker4.jpg,Audio/Speaker4_Per/P4-3-Per.wav,Speaker4,گوینده۴,0,1,1,2,0,27,27,62,,,,,,,,,,,,,313.20551024999804,,,,,,,,,,,,,,,,,,,,,,,,,,,,,,,,,,,,,,,,,,,,,313.18191979199764,313.20551024999804,313.20551024999804,313.20551024999804,313.20551024999804,313.2128565003336,313.20551024999804,313.20551024999804,315.05645345800076,Correct! صحیح است,0,1,4,1.8473242919972108,None,315.06025804199817,315.07187258299746,317.06020725000053,317.0814460420006,,,,,,,,,,,,,,,,,,,,,,,675375,001,2024-07-02_09h37.15.617,5-30,2024.1.4,None,2024-07-02 09h37.20.324275 +0900,
Images/Speaker1.jpg,Images/Speaker2.jpg,Images/Speaker3.jpg,Images/Speaker4.jpg,Audio/Speaker3_Per/P3-13-Per.wav,Speaker3,گوینده۳,0,1,1,2,0,28,28,52,,,,,,,,,,,,,317.0814460420006,,,,,,,,,,,,,,,,,,,,,,,,,,,,,,,,,,,,,,,,,,,,,317.06038954199903,317.0814460420006,317.0814460420006,317.0814460420006,317.0814460420006,317.07662929166713,317.0814460420006,317.0814460420006,318.6432595419974,Correct! صحیح است,0,1,3,1.5523863749986049,None,318.64716012499775,318.6584465829983,320.65419983299944,,,,,,,,,,,,,,,,,,,,,,,,675375,001,2024-07-02_09h37.15.617,5-30,2024.1.4,None,2024-07-02 09h37.20.324275 +0900,
Images/Speaker1.jpg,Images/Speaker2.jpg,Images/Speaker3.jpg,Images/Speaker4.jpg,Audio/Speaker3_Per/P3-6-Per.wav,Speaker3,گوینده۳,0,1,1,2,0,29,29,45,,,,,,,,,,,,,320.6784515830004,,,,,,,,,,,,,,,,,,,,,,,,,,,,,,,,,,,,,,,,,,,,,320.65479804200004,320.6784515830004,320.6784515830004,320.6784515830004,320.6784515830004,320.6873951663333,320.6784515830004,320.6784515830004,322.60841000000073,Correct! صحیح است,0,1,3,1.921397291996982,None,322.61220241699993,322.6230308749982,324.6175858329989,,,,,,,,,,,,,,,,,,,,,,,,675375,001,2024-07-02_09h37.15.617,5-30,2024.1.4,None,2024-07-02 09h37.20.324275 +0900,
Images/Speaker1.jpg,Images/Speaker2.jpg,Images/Speaker3.jpg,Images/Speaker4.jpg,Audio/Speaker1_Per/P1-3-Per.wav,Speaker1,گوینده ۱,0,1,1,2,0,30,30,2,,,,,,,,,,,,,324.6384290829992,,,,,,,,,,,,,,,,,,,,,,,,,,,,,,,,,,,,,,,,,,,,,324.6177447080008,324.6384290829992,324.6384290829992,324.6384290829992,324.6384290829992,324.6342195836662,324.6384290829992,324.6384290829992,325.8418213749974,Correct! صحیح است,0,1,1,1.2010705829998187,None,325.84598341699893,325.8573424999995,327.84387145800065,327.864190166998,,,,,,,,,,,,,,,,,,,,,,,675375,001,2024-07-02_09h37.15.617,5-30,2024.1.4,None,2024-07-02 09h37.20.324275 +0900,
Images/Speaker1.jpg,Images/Speaker2.jpg,Images/Speaker3.jpg,Images/Speaker4.jpg,Audio/Speaker3_Per/P3-12-Per.wav,Speaker3,گوینده۳,0,1,1,2,0,31,31,51,,,,,,,,,,,,,327.864190166998,,,,,,,,,,,,,,,,,,,,,,,,,,,,,,,,,,,,,,,,,,,,,327.8440263329976,327.864190166998,327.864190166998,327.864190166998,327.864190166998,327.8602917916653,327.864190166998,327.864190166998,329.6871268750001,Correct! صحیح است,0,1,3,1.8145951250007784,None,329.69095904200003,329.6993415420002,331.686689457998,331.70689808300085,,,,,,,,,,,,,,,,,,,,,,,675375,001,2024-07-02_09h37.15.617,5-30,2024.1.4,None,2024-07-02 09h37.20.324275 +0900,
Images/Speaker1.jpg,Images/Speaker2.jpg,Images/Speaker3.jpg,Images/Speaker4.jpg,Audio/Speaker1_Per/P1-8-Per.wav,Speaker1,گوینده ۱,0,1,1,2,0,32,32,7,,,,,,,,,,,,,331.70689808300085,,,,,,,,,,,,,,,,,,,,,,,,,,,,,,,,,,,,,,,,,,,,,331.68685025000013,331.70689808300085,331.70689808300085,331.70689808300085,331.70689808300085,331.7031050416665,331.70689808300085,331.70689808300085,333.16475329199966,Correct! صحیح است,0,1,1,1.455500292002398,None,333.1687689169994,333.17986895799913,335.1692671669989,335.19143474999873,,,,,,,,,,,,,,,,,,,,,,,675375,001,2024-07-02_09h37.15.617,5-30,2024.1.4,None,2024-07-02 09h37.20.324275 +0900,
Images/Speaker1.jpg,Images/Speaker2.jpg,Images/Speaker3.jpg,Images/Speaker4.jpg,Audio/Speaker2_Per/P2-16-Per.wav,Speaker2,گوینده۲,0,1,1,2,0,33,33,35,,,,,,,,,,,,,335.19143474999873,,,,,,,,,,,,,,,,,,,,,,,,,,,,,,,,,,,,,,,,,,,,,335.1698039999974,335.19143474999873,335.19143474999873,335.19143474999873,335.19143474999873,335.20161120833336,335.19143474999873,335.19143474999873,336.4645564579987,Correct! صحیح است,0,1,2,1.2653245420005987,None,336.4684891249999,336.47688412500065,338.46665754199785,338.48896941699786,,,,,,,,,,,,,,,,,,,,,,,675375,001,2024-07-02_09h37.15.617,5-30,2024.1.4,None,2024-07-02 09h37.20.324275 +0900,
Images/Speaker1.jpg,Images/Speaker2.jpg,Images/Speaker3.jpg,Images/Speaker4.jpg,Audio/Speaker2_Per/P2-3-Per.wav,Speaker2,گوینده۲,0,1,1,2,0,34,34,22,,,,,,,,,,,,,338.48896941699786,,,,,,,,,,,,,,,,,,,,,,,,,,,,,,,,,,,,,,,,,,,,,338.46760820800046,338.48896941699786,338.48896941699786,338.48896941699786,338.48896941699786,338.4988495003313,338.48896941699786,338.48896941699786,339.9267507080003,Correct! صحیح است,0,1,2,1.4349711670001852,None,339.9310105420009,339.9423683749992,341.9292972500007,341.95417799999996,,,,,,,,,,,,,,,,,,,,,,,675375,001,2024-07-02_09h37.15.617,5-30,2024.1.4,None,2024-07-02 09h37.20.324275 +0900,
Images/Speaker1.jpg,Images/Speaker2.jpg,Images/Speaker3.jpg,Images/Speaker4.jpg,Audio/Speaker4_Per/P4-4-Per.wav,Speaker4,گوینده۴,0,1,1,2,0,35,35,63,,,,,,,,,,,,,341.95417799999996,,,,,,,,,,,,,,,,,,,,,,,,,,,,,,,,,,,,,,,,,,,,,341.93008933300007,341.95417799999996,341.95417799999996,341.95417799999996,341.95417799999996,341.96180091633187,341.95417799999996,341.95417799999996,343.33132716699765,Correct! صحیح است,0,1,4,1.372641832997033,None,343.3350688749997,343.3456257500002,345.33362249999846,345.35429937499794,,,,,,,,,,,,,,,,,,,,,,,675375,001,2024-07-02_09h37.15.617,5-30,2024.1.4,None,2024-07-02 09h37.20.324275 +0900,
Images/Speaker1.jpg,Images/Speaker2.jpg,Images/Speaker3.jpg,Images/Speaker4.jpg,Audio/Speaker2_Per/P2-12-Per.wav,Speaker2,گوینده۲,0,1,1,2,0,36,36,31,,,,,,,,,,,,,345.35429937499794,,,,,,,,,,,,,,,,,,,,,,,,,,,,,,,,,,,,,,,,,,,,,345.3337846249997,345.35429937499794,345.35429937499794,345.35429937499794,345.35429937499794,345.3499826246664,345.35429937499794,345.35429937499794,347.1847634580008,Correct! صحیح است,0,1,2,1.8287090420017194,None,347.1887690000003,347.20001687499825,349.1863999169982,349.20680891699885,,,,,,,,,,,,,,,,,,,,,,,675375,001,2024-07-02_09h37.15.617,5-30,2024.1.4,None,2024-07-02 09h37.20.324275 +0900,
Images/Speaker1.jpg,Images/Speaker2.jpg,Images/Speaker3.jpg,Images/Speaker4.jpg,Audio/Speaker1_Per/P1-16-Per.wav,Speaker1,گوینده ۱,0,1,1,2,0,37,37,15,,,,,,,,,,,,,349.20680891699885,,,,,,,,,,,,,,,,,,,,,,,,,,,,,,,,,,,,,,,,,,,,,349.1866049579985,349.20680891699885,349.20680891699885,349.20680891699885,349.20680891699885,349.2027602916644,349.20680891699885,349.20680891699885,350.60913199999777,Correct! صحیح است,0,1,1,1.3918406670018157,None,350.61289858300006,350.62451141699785,352.6197565830007,,,,,,,,,,,,,,,,,,,,,,,,675375,001,2024-07-02_09h37.15.617,5-30,2024.1.4,None,2024-07-02 09h37.20.324275 +0900,
Images/Speaker1.jpg,Images/Speaker2.jpg,Images/Speaker3.jpg,Images/Speaker4.jpg,Audio/Speaker4_Per/P4-6-Per.wav,Speaker4,گوینده۴,0,1,1,2,0,38,38,65,,,,,,,,,,,,,352.64471287500055,,,,,,,,,,,,,,,,,,,,,,,,,,,,,,,,,,,,,,,,,,,,,352.6203815000008,352.64471287500055,352.64471287500055,352.64471287500055,352.64471287500055,352.65287275033234,352.64471287500055,352.64471287500055,354.19712162499854,Correct! صحیح است,0,1,4,1.5493639999986044,None,354.20220054200036,354.215102416998,356.2030759169975,,,,,,,,,,,,,,,,,,,,,,,,675375,001,2024-07-02_09h37.15.617,5-30,2024.1.4,None,2024-07-02 09h37.20.324275 +0900,
Images/Speaker1.jpg,Images/Speaker2.jpg,Images/Speaker3.jpg,Images/Speaker4.jpg,Audio/Speaker2_Per/P2-4-Per.wav,Speaker2,گوینده۲,0,1,1,2,0,39,39,23,,,,,,,,,,,,,356.22532995800066,,,,,,,,,,,,,,,,,,,,,,,,,,,,,,,,,,,,,,,,,,,,,356.2032466669989,356.22532995800066,356.22532995800066,356.22532995800066,356.22532995800066,356.21967837466605,356.22532995800066,356.22532995800066,358.09295095799826,Correct! صحیح است,0,1,2,1.856153541997628,None,358.0967250419999,358.10520175000056,360.09372962499765,360.1151606249987,,,,,,,,,,,,,,,,,,,,,,,675375,001,2024-07-02_09h37.15.617,5-30,2024.1.4,None,2024-07-02 09h37.20.324275 +0900,
Images/Speaker1.jpg,Images/Speaker2.jpg,Images/Speaker3.jpg,Images/Speaker4.jpg,Audio/Speaker2_Per/P2-2-Per.wav,Speaker2,گوینده۲,0,1,1,2,0,40,40,21,,,,,,,,,,,,,360.1151606249987,,,,,,,,,,,,,,,,,,,,,,,,,,,,,,,,,,,,,,,,,,,,,360.09388041700004,360.1151606249987,360.1151606249987,360.1151606249987,360.1151606249987,360.11015816666645,360.1151606249987,360.1151606249987,361.1767676669988,Correct! صحیح است,0,1,2,1.0548124580018339,None,361.1807838329987,361.19168158299726,363.17706029200053,363.19694824999897,,,,,,,,,,,,,,,,,,,,,,,675375,001,2024-07-02_09h37.15.617,5-30,2024.1.4,None,2024-07-02 09h37.20.324275 +0900,
Images/Speaker1.jpg,Images/Speaker2.jpg,Images/Speaker3.jpg,Images/Speaker4.jpg,Audio/Speaker4_Per/P4-17-Per.wav,Speaker4,گوینده۴,0,1,1,2,0,41,41,76,,,,,,,,,,,,,363.19694824999897,,,,,,,,,,,,,,,,,,,,,,,,,,,,,,,,,,,,,,,,,,,,,363.1772214169978,363.19694824999897,363.19694824999897,363.19694824999897,363.19694824999897,363.19350387466716,363.19694824999897,363.19694824999897,365.31851995800025,Correct! صحیح است,0,1,4,2.110081999999238,None,365.322691207999,365.3338493329975,367.31878524999775,367.34102474999963,,,,,,,,,,,,,,,,,,,,,,,675375,001,2024-07-02_09h37.15.617,5-30,2024.1.4,None,2024-07-02 09h37.20.324275 +0900,
Images/Speaker1.jpg,Images/Speaker2.jpg,Images/Speaker3.jpg,Images/Speaker4.jpg,Audio/Speaker3_Per/P3-5-Per.wav,Speaker3,گوینده۳,0,1,1,2,0,42,42,44,,,,,,,,,,,,,367.34102474999963,,,,,,,,,,,,,,,,,,,,,,,,,,,,,,,,,,,,,,,,,,,,,367.3197144580008,367.34102474999963,367.34102474999963,367.34102474999963,367.34102474999963,367.33450191666657,367.34102474999963,367.34102474999963,369.18960999999763,Correct! صحیح است,0,1,3,1.847458000000188,None,369.19392720799806,369.20553024999754,371.18918083300014,371.21121095799754,,,,,,,,,,,,,,,,,,,,,,,675375,001,2024-07-02_09h37.15.617,5-30,2024.1.4,None,2024-07-02 09h37.20.324275 +0900,
Images/Speaker1.jpg,Images/Speaker2.jpg,Images/Speaker3.jpg,Images/Speaker4.jpg,Audio/Speaker4_Per/P4-15-Per.wav,Speaker4,گوینده۴,0,1,1,2,0,43,43,74,,,,,,,,,,,,,371.21121095799754,,,,,,,,,,,,,,,,,,,,,,,,,,,,,,,,,,,,,,,,,,,,,371.1893576670009,371.21121095799754,371.21121095799754,371.21121095799754,371.21121095799754,371.2055904586671,371.21121095799754,371.21121095799754,372.652241374999,Correct! صحیح است,0,1,4,1.4398654159995203,None,372.6564749579993,372.6677784169988,374.6507529169976,374.67165224999917,,,,,,,,,,,,,,,,,,,,,,,675375,001,2024-07-02_09h37.15.617,5-30,2024.1.4,None,2024-07-02 09h37.20.324275 +0900,
Images/Speaker1.jpg,Images/Speaker2.jpg,Images/Speaker3.jpg,Images/Speaker4.jpg,Audio/Speaker3_Per/P3-7-Per.wav,Speaker3,گوینده۳,0,1,1,2,0,44,44,46,,,,,,,,,,,,,374.67165224999917,,,,,,,,,,,,,,,,,,,,,,,,,,,,,,,,,,,,,,,,,,,,,374.6509277080004,374.67165224999917,374.67165224999917,374.67165224999917,374.67165224999917,374.6671037496674,374.67165224999917,374.67165224999917,376.4244846670008,Correct! صحیح است,0,1,3,1.746274707998964,None,376.4284827499978,376.43976683299843,378.4340354579981,,,,,,,,,,,,,,,,,,,,,,,,675375,001,2024-07-02_09h37.15.617,5-30,2024.1.4,None,2024-07-02 09h37.20.324275 +0900,
Images/Speaker1.jpg,Images/Speaker2.jpg,Images/Speaker3.jpg,Images/Speaker4.jpg,Audio/Speaker4_Per/P4-8-Per.wav,Speaker4,گوینده۴,0,1,1,2,0,45,45,67,,,,,,,,,,,,,378.4558940829993,,,,,,,,,,,,,,,,,,,,,,,,,,,,,,,,,,,,,,,,,,,,,378.43419108300077,378.4558940829993,378.4558940829993,378.4558940829993,378.4558940829993,378.45067116666564,378.4558940829993,378.4558940829993,379.83342224999797,Correct! صحیح است,0,1,4,1.373566166999808,None,379.8376970829995,379.8489738749995,381.84444475000055,,,,,,,,,,,,,,,,,,,,,,,,675375,001,2024-07-02_09h37.15.617,5-30,2024.1.4,None,2024-07-02 09h37.20.324275 +0900,
Images/Speaker1.jpg,Images/Speaker2.jpg,Images/Speaker3.jpg,Images/Speaker4.jpg,Audio/Speaker3_Per/P3-17-Per.wav,Speaker3,گوینده۳,0,1,1,2,0,46,46,56,,,,,,,,,,,,,381.8646773750006,,,,,,,,,,,,,,,,,,,,,,,,,,,,,,,,,,,,,,,,,,,,,381.8446412919984,381.8646773750006,381.8646773750006,381.8646773750006,381.8646773750006,381.8610658746659,381.8646773750006,381.8646773750006,384.0432507500009,Correct! صحیح است,0,1,3,2.169329457999993,None,384.0474384579975,384.05856612500065,386.04788695800016,386.0706341669975,,,,,,,,,,,,,,,,,,,,,,,675375,001,2024-07-02_09h37.15.617,5-30,2024.1.4,None,2024-07-02 09h37.20.324275 +0900,
Images/Speaker1.jpg,Images/Speaker2.jpg,Images/Speaker3.jpg,Images/Speaker4.jpg,Audio/Speaker3_Per/P3-16-Per.wav,Speaker3,گوینده۳,0,1,1,2,0,47,47,55,,,,,,,,,,,,,386.0706341669975,,,,,,,,,,,,,,,,,,,,,,,,,,,,,,,,,,,,,,,,,,,,,386.0488252920004,386.0706341669975,386.0706341669975,386.0706341669975,386.0706341669975,386.0800251663318,386.0706341669975,386.0706341669975,387.72731787500015,Correct! صحیح است,0,1,3,1.6557164170008036,None,387.73152375000063,387.74339983299797,389.73126791699906,389.7517740830008,,,,,,,,,,,,,,,,,,,,,,,675375,001,2024-07-02_09h37.15.617,5-30,2024.1.4,None,2024-07-02 09h37.20.324275 +0900,
Images/Speaker1.jpg,Images/Speaker2.jpg,Images/Speaker3.jpg,Images/Speaker4.jpg,Audio/Speaker1_Per/P1-9-Per.wav,Speaker1,گوینده ۱,0,1,1,2,0,48,48,8,,,,,,,,,,,,,389.7517740830008,,,,,,,,,,,,,,,,,,,,,,,,,,,,,,,,,,,,,,,,,,,,,389.73143612499916,389.7517740830008,389.7517740830008,389.7517740830008,389.7517740830008,389.74765841666544,389.7517740830008,389.7517740830008,391.2830894580002,Correct! صحیح است,0,1,1,1.5276045829996292,None,391.28715891699903,391.29802079199726,393.2872957079999,393.31097650000083,,,,,,,,,,,,,,,,,,,,,,,675375,001,2024-07-02_09h37.15.617,5-30,2024.1.4,None,2024-07-02 09h37.20.324275 +0900,
Images/Speaker1.jpg,Images/Speaker2.jpg,Images/Speaker3.jpg,Images/Speaker4.jpg,Audio/Speaker3_Per/P3-1-Per.wav,Speaker3,گوینده۳,0,1,1,2,0,49,49,40,,,,,,,,,,,,,393.31097650000083,,,,,,,,,,,,,,,,,,,,,,,,,,,,,,,,,,,,,,,,,,,,,393.2879295419989,393.31097650000083,393.31097650000083,393.31097650000083,393.31097650000083,393.31956187533115,393.31097650000083,393.31097650000083,395.3735535829983,Incorrect! The correct answer is Speaker3. نادرست! پاسخ صحیح گوینده۳ است,0,1,4,2.059806583001773,None,395.37767424999765,395.3903897079981,397.37342091699975,397.39514891699946,,,,,,,,,,,,,,,,,,,,,,,675375,001,2024-07-02_09h37.15.617,5-30,2024.1.4,None,2024-07-02 09h37.20.324275 +0900,
Images/Speaker1.jpg,Images/Speaker2.jpg,Images/Speaker3.jpg,Images/Speaker4.jpg,Audio/Speaker2_Per/P2-15-Per.wav,Speaker2,گوینده۲,0,1,1,2,0,50,50,34,,,,,,,,,,,,,397.39514891699946,,,,,,,,,,,,,,,,,,,,,,,,,,,,,,,,,,,,,,,,,,,,,397.37357625000004,397.39514891699946,397.39514891699946,397.39514891699946,397.39514891699946,397.38986841666724,397.39514891699946,397.39514891699946,398.9266921669987,Correct! صحیح است,0,1,2,1.5260531250023632,None,398.9309469580003,398.94227449999744,400.93471249999857,,,,,,,,,,,,,,,,,,,,,,,,675375,001,2024-07-02_09h37.15.617,5-30,2024.1.4,None,2024-07-02 09h37.20.324275 +0900,
Images/Speaker1.jpg,Images/Speaker2.jpg,Images/Speaker3.jpg,Images/Speaker4.jpg,Audio/Speaker3_Per/P3-9-Per.wav,Speaker3,گوینده۳,0,1,1,2,0,51,51,48,,,,,,,,,,,,,400.95843366699773,,,,,,,,,,,,,,,,,,,,,,,,,,,,,,,,,,,,,,,,,,,,,400.9352355419978,400.95843366699773,400.95843366699773,400.95843366699773,400.95843366699773,400.96790941633344,400.95843366699773,400.95843366699773,403.55219487499926,Correct! صحیح است,0,1,3,2.5845950410002843,None,403.5563019580004,403.56753795799887,405.55636550000054,,,,,,,,,,,,,,,,,,,,,,,,675375,001,2024-07-02_09h37.15.617,5-30,2024.1.4,None,2024-07-02 09h37.20.324275 +0900,
Images/Speaker1.jpg,Images/Speaker2.jpg,Images/Speaker3.jpg,Images/Speaker4.jpg,Audio/Speaker2_Per/P2-17-Per.wav,Speaker2,گوینده۲,0,1,1,2,0,52,52,36,,,,,,,,,,,,,405.5771437500007,,,,,,,,,,,,,,,,,,,,,,,,,,,,,,,,,,,,,,,,,,,,,405.55654416700054,405.5771437500007,405.5771437500007,405.5771437500007,405.5771437500007,405.57299287466617,405.5771437500007,405.5771437500007,406.8039515829987,Correct! صحیح است,0,1,2,1.219068750000588,None,406.8078930829979,406.81751537499804,408.8060726250005,408.82685024999955,,,,,,,,,,,,,,,,,,,,,,,675375,001,2024-07-02_09h37.15.617,5-30,2024.1.4,None,2024-07-02 09h37.20.324275 +0900,
Images/Speaker1.jpg,Images/Speaker2.jpg,Images/Speaker3.jpg,Images/Speaker4.jpg,Audio/Speaker1_Per/P1-1-Per.wav,Speaker1,گوینده ۱,0,1,1,2,0,53,53,0,,,,,,,,,,,,,408.82685024999955,,,,,,,,,,,,,,,,,,,,,,,,,,,,,,,,,,,,,,,,,,,,,408.8062433749983,408.82685024999955,408.82685024999955,408.82685024999955,408.82685024999955,408.82245354166685,408.82685024999955,408.82685024999955,410.86602983299963,Correct! صحیح است,0,1,1,2.035572124997998,None,410.869810917,410.8811437919976,412.87046520799777,412.8921130419985,,,,,,,,,,,,,,,,,,,,,,,675375,001,2024-07-02_09h37.15.617,5-30,2024.1.4,None,2024-07-02 09h37.20.324275 +0900,
Images/Speaker1.jpg,Images/Speaker2.jpg,Images/Speaker3.jpg,Images/Speaker4.jpg,Audio/Speaker1_Per/P1-12-Per.wav,Speaker1,گوینده ۱,0,1,1,2,0,54,54,11,,,,,,,,,,,,,412.8921130419985,,,,,,,,,,,,,,,,,,,,,,,,,,,,,,,,,,,,,,,,,,,,,412.87111012499736,412.8921130419985,412.8921130419985,412.8921130419985,412.8921130419985,412.8859927086671,412.8921130419985,412.8921130419985,414.2002881669978,Correct! صحیح است,0,1,1,1.2991506250000384,None,414.204111791998,414.21234099999856,416.1974535829977,416.2185507079994,,,,,,,,,,,,,,,,,,,,,,,675375,001,2024-07-02_09h37.15.617,5-30,2024.1.4,None,2024-07-02 09h37.20.324275 +0900,
Images/Speaker1.jpg,Images/Speaker2.jpg,Images/Speaker3.jpg,Images/Speaker4.jpg,Audio/Speaker3_Per/P3-3-Per.wav,Speaker3,گوینده۳,0,1,1,2,0,55,55,42,,,,,,,,,,,,,416.2185507079994,,,,,,,,,,,,,,,,,,,,,,,,,,,,,,,,,,,,,,,,,,,,,416.19761041699894,416.2185507079994,416.2185507079994,416.2185507079994,416.2185507079994,416.21389574966474,416.2185507079994,416.2185507079994,418.50251600000047,Correct! صحیح است,0,1,3,2.281136624998908,None,418.5066628329987,418.517020416999,420.50601624999763,420.5309075829973,,,,,,,,,,,,,,,,,,,,,,,675375,001,2024-07-02_09h37.15.617,5-30,2024.1.4,None,2024-07-02 09h37.20.324275 +0900,
Images/Speaker1.jpg,Images/Speaker2.jpg,Images/Speaker3.jpg,Images/Speaker4.jpg,Audio/Speaker1_Per/P1-5-Per.wav,Speaker1,گوینده ۱,0,1,1,2,0,56,56,4,,,,,,,,,,,,,420.5309075829973,,,,,,,,,,,,,,,,,,,,,,,,,,,,,,,,,,,,,,,,,,,,,420.5068446669975,420.5309075829973,420.5309075829973,420.5309075829973,420.5309075829973,420.5383096253322,420.5309075829973,420.5309075829973,421.69888962500045,Correct! صحیح است,0,1,1,1.1570657499978552,None,421.70367112500026,421.716225791999,423.70060304199797,423.72195262499736,,,,,,,,,,,,,,,,,,,,,,,675375,001,2024-07-02_09h37.15.617,5-30,2024.1.4,None,2024-07-02 09h37.20.324275 +0900,
Images/Speaker1.jpg,Images/Speaker2.jpg,Images/Speaker3.jpg,Images/Speaker4.jpg,Audio/Speaker1_Per/P1-20-Per.wav,Speaker1,گوینده ۱,0,1,1,2,0,57,57,19,,,,,,,,,,,,,423.72195262499736,,,,,,,,,,,,,,,,,,,,,,,,,,,,,,,,,,,,,,,,,,,,,423.7007634170004,423.72195262499736,423.72195262499736,423.72195262499736,423.72195262499736,423.7169607086655,423.72195262499736,423.72195262499736,424.8640355419993,Correct! صحیح است,0,1,1,1.134551333001582,None,424.86794912500045,424.8792916249986,426.86390762500014,426.8849921250003,,,,,,,,,,,,,,,,,,,,,,,675375,001,2024-07-02_09h37.15.617,5-30,2024.1.4,None,2024-07-02 09h37.20.324275 +0900,
Images/Speaker1.jpg,Images/Speaker2.jpg,Images/Speaker3.jpg,Images/Speaker4.jpg,Audio/Speaker2_Per/P2-9-Per.wav,Speaker2,گوینده۲,0,1,1,2,0,58,58,28,,,,,,,,,,,,,426.8849921250003,,,,,,,,,,,,,,,,,,,,,,,,,,,,,,,,,,,,,,,,,,,,,426.86408216699783,426.8849921250003,426.8849921250003,426.8849921250003,426.8849921250003,426.880352999666,426.8849921250003,426.8849921250003,427.9565956669976,Correct! صحیح است,0,1,2,1.0691139580012532,None,427.9604510419995,427.9715134170001,429.95507041699966,429.9793065829981,,,,,,,,,,,,,,,,,,,,,,,675375,001,2024-07-02_09h37.15.617,5-30,2024.1.4,None,2024-07-02 09h37.20.324275 +0900,
Images/Speaker1.jpg,Images/Speaker2.jpg,Images/Speaker3.jpg,Images/Speaker4.jpg,Audio/Speaker4_Per/P4-9-Per.wav,Speaker4,گوینده۴,0,1,1,2,0,59,59,68,,,,,,,,,,,,,429.9793065829981,,,,,,,,,,,,,,,,,,,,,,,,,,,,,,,,,,,,,,,,,,,,,429.95590162499866,429.9793065829981,429.9793065829981,429.9793065829981,429.9793065829981,429.98753675033413,429.9793065829981,429.9793065829981,431.48403162499744,Correct! صحیح است,0,1,4,1.4991375839999819,None,431.48827645799975,431.49904245799917,433.4828891670004,433.50683841700084,,,,,,,,,,,,,,,,,,,,,,,675375,001,2024-07-02_09h37.15.617,5-30,2024.1.4,None,2024-07-02 09h37.20.324275 +0900,
Images/Speaker1.jpg,Images/Speaker2.jpg,Images/Speaker3.jpg,Images/Speaker4.jpg,Audio/Speaker1_Per/P1-18-Per.wav,Speaker1,گوینده ۱,0,1,1,2,0,60,60,17,,,,,,,,,,,,,433.50683841700084,,,,,,,,,,,,,,,,,,,,,,,,,,,,,,,,,,,,,,,,,,,,,433.48305424999853,433.50683841700084,433.50683841700084,433.50683841700084,433.50683841700084,433.5159734583326,433.50683841700084,433.50683841700084,434.98144004200003,Correct! صحیح است,0,1,1,1.4734282919998805,None,434.98516941699927,434.9963586669983,436.9862112499977,,,,,,,,,,,,,,,,,,,,,,,,675375,001,2024-07-02_09h37.15.617,5-30,2024.1.4,None,2024-07-02 09h37.20.324275 +0900,
Images/Speaker1.jpg,Images/Speaker2.jpg,Images/Speaker3.jpg,Images/Speaker4.jpg,Audio/Speaker4_Per/P4-19-Per.wav,Speaker4,گوینده۴,0,1,1,2,0,61,61,78,,,,,,,,,,,,,437.0073538329998,,,,,,,,,,,,,,,,,,,,,,,,,,,,,,,,,,,,,,,,,,,,,436.98638516699793,437.0073538329998,437.0073538329998,437.0073538329998,437.0073538329998,437.00280954166396,437.0073538329998,437.0073538329998,438.54070045799745,Correct! صحیح است,0,1,4,1.5295900829987659,None,438.54490216699924,438.5555797079978,440.5419838329981,440.5635555000008,,,,,,,,,,,,,,,,,,,,,,,675375,001,2024-07-02_09h37.15.617,5-30,2024.1.4,None,2024-07-02 09h37.20.324275 +0900,
Images/Speaker1.jpg,Images/Speaker2.jpg,Images/Speaker3.jpg,Images/Speaker4.jpg,Audio/Speaker1_Per/P1-10-Per.wav,Speaker1,گوینده ۱,0,1,1,2,0,62,62,9,,,,,,,,,,,,,440.5635555000008,,,,,,,,,,,,,,,,,,,,,,,,,,,,,,,,,,,,,,,,,,,,,440.5421573329986,440.5635555000008,440.5635555000008,440.5635555000008,440.5635555000008,440.55834124966736,440.5635555000008,440.5635555000008,441.7430777919981,Correct! صحیح است,0,1,1,1.1749760419988888,None,441.74742308299756,441.7591140000004,443.7458999999981,443.76775191699926,,,,,,,,,,,,,,,,,,,,,,,675375,001,2024-07-02_09h37.15.617,5-30,2024.1.4,None,2024-07-02 09h37.20.324275 +0900,
Images/Speaker1.jpg,Images/Speaker2.jpg,Images/Speaker3.jpg,Images/Speaker4.jpg,Audio/Speaker4_Per/P4-7-Per.wav,Speaker4,گوینده۴,0,1,1,2,0,63,63,66,,,,,,,,,,,,,443.76775191699926,,,,,,,,,,,,,,,,,,,,,,,,,,,,,,,,,,,,,,,,,,,,,443.74666929199884,443.76775191699926,443.76775191699926,443.76775191699926,443.76775191699926,443.76168966666614,443.76775191699926,443.76775191699926,445.6708292080002,Correct! صحیح است,0,1,4,1.8981479169997328,None,445.6748989999978,445.6858216670007,447.6714307080001,447.691070375,,,,,,,,,,,,,,,,,,,,,,,675375,001,2024-07-02_09h37.15.617,5-30,2024.1.4,None,2024-07-02 09h37.20.324275 +0900,
Images/Speaker1.jpg,Images/Speaker2.jpg,Images/Speaker3.jpg,Images/Speaker4.jpg,Audio/Speaker1_Per/P1-17-Per.wav,Speaker1,گوینده ۱,0,1,1,2,0,64,64,16,,,,,,,,,,,,,447.691070375,,,,,,,,,,,,,,,,,,,,,,,,,,,,,,,,,,,,,,,,,,,,,447.6715998330001,447.691070375,447.691070375,447.691070375,447.691070375,447.6878739996648,447.691070375,447.691070375,448.9829558749989,Correct! صحیح است,0,1,1,1.2834265419987787,None,448.9868097079998,448.9956256250007,450.98078349999923,451.0021835419975,,,,,,,,,,,,,,,,,,,,,,,675375,001,2024-07-02_09h37.15.617,5-30,2024.1.4,None,2024-07-02 09h37.20.324275 +0900,
Images/Speaker1.jpg,Images/Speaker2.jpg,Images/Speaker3.jpg,Images/Speaker4.jpg,Audio/Speaker3_Per/P3-10-Per.wav,Speaker3,گوینده۳,0,1,1,2,0,65,65,49,,,,,,,,,,,,,451.0021835419975,,,,,,,,,,,,,,,,,,,,,,,,,,,,,,,,,,,,,,,,,,,,,450.98094995800056,451.0021835419975,451.0021835419975,451.0021835419975,451.0021835419975,450.9971948746645,451.0021835419975,451.0021835419975,452.59314316699965,Correct! صحیح است,0,1,3,1.5847782919991005,None,452.59708558299826,452.60805770799925,454.59754774999965,454.62148004199844,,,,,,,,,,,,,,,,,,,,,,,675375,001,2024-07-02_09h37.15.617,5-30,2024.1.4,None,2024-07-02 09h37.20.324275 +0900,
Images/Speaker1.jpg,Images/Speaker2.jpg,Images/Speaker3.jpg,Images/Speaker4.jpg,Audio/Speaker2_Per/P2-20-Per.wav,Speaker2,گوینده۲,0,1,1,2,0,66,66,39,,,,,,,,,,,,,454.62148004199844,,,,,,,,,,,,,,,,,,,,,,,,,,,,,,,,,,,,,,,,,,,,,454.5984777079975,454.62148004199844,454.62148004199844,454.62148004199844,454.62148004199844,454.62976533333176,454.62148004199844,454.62148004199844,456.2257879579993,Correct! صحیح است,0,1,2,1.5997257920025731,None,456.22973374999856,456.24123820800014,458.227613957999,458.2517007919996,,,,,,,,,,,,,,,,,,,,,,,675375,001,2024-07-02_09h37.15.617,5-30,2024.1.4,None,2024-07-02 09h37.20.324275 +0900,
Images/Speaker1.jpg,Images/Speaker2.jpg,Images/Speaker3.jpg,Images/Speaker4.jpg,Audio/Speaker1_Per/P1-13-Per.wav,Speaker1,گوینده ۱,0,1,1,2,0,67,67,12,,,,,,,,,,,,,458.2517007919996,,,,,,,,,,,,,,,,,,,,,,,,,,,,,,,,,,,,,,,,,,,,,458.22781374999977,458.2517007919996,458.2517007919996,458.2517007919996,458.2517007919996,458.26062987533123,458.2517007919996,458.2517007919996,459.6352749580001,Correct! صحیح است,0,1,1,1.3714442910022626,None,459.63904333299797,459.6502413749986,461.63368612499835,461.65457524999874,,,,,,,,,,,,,,,,,,,,,,,675375,001,2024-07-02_09h37.15.617,5-30,2024.1.4,None,2024-07-02 09h37.20.324275 +0900,
Images/Speaker1.jpg,Images/Speaker2.jpg,Images/Speaker3.jpg,Images/Speaker4.jpg,Audio/Speaker4_Per/P4-14-Per.wav,Speaker4,گوینده۴,0,1,1,2,0,68,68,73,,,,,,,,,,,,,461.65457524999874,,,,,,,,,,,,,,,,,,,,,,,,,,,,,,,,,,,,,,,,,,,,,461.6338927500001,461.65457524999874,461.65457524999874,461.65457524999874,461.65457524999874,461.6500093336656,461.65457524999874,461.65457524999874,463.94854937499986,Correct! صحیح است,0,1,4,2.290859749999072,None,463.95249649999823,463.963748416998,465.9474615420004,465.97128562500075,,,,,,,,,,,,,,,,,,,,,,,675375,001,2024-07-02_09h37.15.617,5-30,2024.1.4,None,2024-07-02 09h37.20.324275 +0900,
