SpeakerImage1,SpeakerImage2,SpeakerImage3,SpeakerImage4,TrainingSound,EnglishCorrectAnswer,PersianCorrectAnswer,repeated_TrainingLoopGroup1.thisRepN,repeated_TrainingLoopGroup1.thisTrialN,repeated_TrainingLoopGroup1.thisN,repeated_TrainingLoopGroup1.thisIndex,TrainingLoopGroup1.thisRepN,TrainingLoopGroup1.thisTrialN,TrainingLoopGroup1.thisN,TrainingLoopGroup1.thisIndex,thisRow.t,notes,trial.started,trial.stopped,GroupSelection.started,GroupInstructions.started,key_resp.started,GroupSelection.stopped,key_resp.keys,key_resp.rt,key_resp.duration,HeadphoneCheck.started,text_13.started,mouse.started,checkbox.started,HeadphoneCheck.stopped,mouse.x,mouse.y,mouse.leftButton,mouse.midButton,mouse.rightButton,mouse.time,mouse.clicked_name,Headphone_Used,Introduction.started,text_2.started,image.started,sound_8.started,text_4.started,text_2.stopped,image.stopped,text_4.stopped,image_7.started,sound_10.started,text_5.started,image_7.stopped,text_5.stopped,image_8.started,sound_12.started,text_6.started,image_8.stopped,text_6.stopped,image_9.started,sound_14.started,text_7.started,image_9.stopped,text_7.stopped,Introduction.stopped,Instructions.started,InstructionText.started,InstructionText.stopped,Instructions.stopped,InitializeExperiment.started,InitializeExperiment.stopped,TrainingGroup1.started,image_1.started,image_2.started,image_3.started,image_4.started,sound1.started,Instruction.started,ResponseKey.started,SessionNumberText.started,TrainingGroup1.stopped,feedbackText,correct_responses_group1,total_trials_group1,ResponseKey.keys,ResponseKey.rt,ResponseKey.duration,FeedbackRoutine1.started,FeedbackText.started,FeedbackRoutine1.stopped,Break.started,Break.stopped,FeedbackText.stopped,break_message.started,participant,session,date,expName,psychopyVersion,frameRate,expStart,
,,,,,,,,,,,,,,,,,0.009387124999193475,0.009711292004794814,,,,,,,,,,,,,,,,,,,,,,,,,,,,,,,,,,,,,,,,,,,,,,,,,,,,,,,,,,,,,,,,,,,,,,,,,,688901,001,2024-08-02_15h28.23.128,5-34 ready-monolingual persian speaker,2024.1.5,None,2024-08-02 15h28.29.551554 +0900,
,,,,,,,,,,,,,,,,,,,0.009723625000333413,0.014984000001277309,0.014984000001277309,1.5211395000005723,1,1.4667864999937592,None,,,,,,,,,,,,,,,,,,,,,,,,,,,,,,,,,,,,,,,,,,,,,,,,,,,,,,,,,,,,,,,,,,,688901,001,2024-08-02_15h28.23.128,5-34 ready-monolingual persian speaker,2024.1.5,None,2024-08-02 15h28.29.551554 +0900,
,,,,,,,,,,,,,,,,,,,,,,,,,,1.521168083003431,1.5315136670033098,0.00019066599634243175,1.5315136670033098,2.0694753330026288,[-0.12118126272912423],[0.2668024439918534],[1],[0],[0],[0.5474153750037658],[],False,,,,,,,,,,,,,,,,,,,,,,,,,,,,,,,,,,,,,,,,,,,,,,,,,,,,,,688901,001,2024-08-02_15h28.23.128,5-34 ready-monolingual persian speaker,2024.1.5,None,2024-08-02 15h28.29.551554 +0900,
,,,,,,,,,,,,,,,,,,,,,,,,,,,,,,,,,,,,,,,2.0696618750007474,2.11157208300574,7.066258792001463,7.076463249668692,7.066258792001463,7.102830916999665,15.062570792004408,15.062570792004408,15.062570792004408,15.0746866246666,15.062570792004408,23.05681437500607,23.05681437500607,23.06156870799896,23.073481041672736,23.06156870799896,31.05763675000344,31.05763675000344,31.063088082999457,31.074303416670105,31.063088082999457,39.059895417005464,39.059895417005464,39.04734550000285,,,,,,,,,,,,,,,,,,,,,,,,,,,,,,688901,001,2024-08-02_15h28.23.128,5-34 ready-monolingual persian speaker,2024.1.5,None,2024-08-02 15h28.29.551554 +0900,
,,,,,,,,,,,,,,,,,,,,,,,,,,,,,,,,,,,,,,,,,,,,,,,,,,,,,,,,,,,,,,,39.04737925000518,39.064294042000256,40.131240833004995,40.04929316700145,,,,,,,,,,,,,,,,,,,,,,,,,,688901,001,2024-08-02_15h28.23.128,5-34 ready-monolingual persian speaker,2024.1.5,None,2024-08-02 15h28.29.551554 +0900,
,,,,,,,,,,,,,,,,,,,,,,,,,,,,,,,,,,,,,,,,,,,,,,,,,,,,,,,,,,,,,,,,,,,40.049327375003486,40.04951699999947,,,,,,,,,,,,,,,,,,,,,,,,688901,001,2024-08-02_15h28.23.128,5-34 ready-monolingual persian speaker,2024.1.5,None,2024-08-02 15h28.29.551554 +0900,
Images/Speaker1.jpg,Images/Speaker2.jpg,Images/Speaker3.jpg,Images/Speaker4.jpg,Audio/Speaker3_Per/P3-2-Per.wav,Speaker3,گوینده۳,0,0,0,6,0,0,0,41,40.131240833004995,,,,,,,,,,,,,,,,,,,,,,,,,,,,,,,,,,,,,,,,,,,,,,,,,,,,,,40.10144204200333,40.131240833004995,40.131240833004995,40.131240833004995,40.131240833004995,40.132409541334106,40.131240833004995,40.131240833004995,40.131240833004995,41.73324512500403,نادرست! پاسخ صحیح گوینده۳ است,0,1,1,1.5928760409951792,None,41.73771654200391,41.755347417005396,43.743809250001505,43.7438515419999,43.74393304200203,,,688901,001,2024-08-02_15h28.23.128,5-34 ready-monolingual persian speaker,2024.1.5,None,2024-08-02 15h28.29.551554 +0900,
Images/Speaker1.jpg,Images/Speaker2.jpg,Images/Speaker3.jpg,Images/Speaker4.jpg,Audio/Speaker1_Per/P1-2-Per.wav,Speaker1,گوینده ۱,0,0,0,6,0,1,1,1,43.771930250004516,,,,,,,,,,,,,,,,,,,,,,,,,,,,,,,,,,,,,,,,,,,,,,,,,,,,,,43.74454304200481,43.771930250004516,43.771930250004516,43.771930250004516,43.771930250004516,43.77700250033425,43.771930250004516,43.771930250004516,43.771930250004516,44.755708125005185,صحیح است,1,2,1,0.9800157499994384,None,44.759603458005586,44.76997929200297,46.7537709169992,46.753780833001656,46.753803833002166,46.77832079200016,,688901,001,2024-08-02_15h28.23.128,5-34 ready-monolingual persian speaker,2024.1.5,None,2024-08-02 15h28.29.551554 +0900,
Images/Speaker1.jpg,Images/Speaker2.jpg,Images/Speaker3.jpg,Images/Speaker4.jpg,Audio/Speaker2_Per/P2-12-Per.wav,Speaker2,گوینده۲,0,0,0,6,0,2,2,31,46.77832079200016,,,,,,,,,,,,,,,,,,,,,,,,,,,,,,,,,,,,,,,,,,,,,,,,,,,,,,46.753991333003796,46.77832079200016,46.77832079200016,46.77832079200016,46.77832079200016,46.78687495833631,46.77832079200016,46.77832079200016,46.77832079200016,46.97623508300603,نادرست! پاسخ صحیح گوینده۲ است,1,3,1,0.19310308399872156,None,46.980537708004704,46.99248875000194,48.98180725000566,48.9818157500049,48.98183862500446,,,688901,001,2024-08-02_15h28.23.128,5-34 ready-monolingual persian speaker,2024.1.5,None,2024-08-02 15h28.29.551554 +0900,
Images/Speaker1.jpg,Images/Speaker2.jpg,Images/Speaker3.jpg,Images/Speaker4.jpg,Audio/Speaker4_Per/P4-14-Per.wav,Speaker4,گوینده۴,0,0,0,6,0,3,3,73,49.01140237499931,,,,,,,,,,,,,,,,,,,,,,,,,,,,,,,,,,,,,,,,,,,,,,,,,,,,,,48.98200254200492,49.01140237499931,49.01140237499931,49.01140237499931,49.01140237499931,49.015107750332874,49.01140237499931,49.01140237499931,49.01140237499931,49.324312417003966,نادرست! پاسخ صحیح گوینده۴ است,1,4,1,0.3111531250033295,None,49.32841987500433,49.339761583003565,51.32630912500463,51.32634287499968,51.32640716700553,51.35198758300248,,688901,001,2024-08-02_15h28.23.128,5-34 ready-monolingual persian speaker,2024.1.5,None,2024-08-02 15h28.29.551554 +0900,
Images/Speaker1.jpg,Images/Speaker2.jpg,Images/Speaker3.jpg,Images/Speaker4.jpg,Audio/Speaker4_Per/P4-9-Per.wav,Speaker4,گوینده۴,0,0,0,6,0,4,4,68,51.35198758300248,,,,,,,,,,,,,,,,,,,,,,,,,,,,,,,,,,,,,,,,,,,,,,,,,,,,,,51.32695125000464,51.35198758300248,51.35198758300248,51.35198758300248,51.35198758300248,51.35873062533258,51.35198758300248,51.35198758300248,51.35198758300248,51.509696625005745,نادرست! پاسخ صحیح گوینده۴ است,1,5,1,0.15619149999838555,None,51.51397133299906,51.525155708004604,53.51257770800294,53.51260941700457,53.51269604200206,53.539521833001345,,688901,001,2024-08-02_15h28.23.128,5-34 ready-monolingual persian speaker,2024.1.5,None,2024-08-02 15h28.29.551554 +0900,
Images/Speaker1.jpg,Images/Speaker2.jpg,Images/Speaker3.jpg,Images/Speaker4.jpg,Audio/Speaker3_Per/P3-17-Per.wav,Speaker3,گوینده۳,0,0,0,6,0,5,5,56,53.539521833001345,,,,,,,,,,,,,,,,,,,,,,,,,,,,,,,,,,,,,,,,,,,,,,,,,,,,,,53.513605292006105,53.539521833001345,53.539521833001345,53.539521833001345,53.539521833001345,53.54503629133299,53.539521833001345,53.539521833001345,53.539521833001345,55.2884508749994,نادرست! پاسخ صحیح گوینده۳ است,1,6,1,1.7415168750012526,None,55.29246887499903,55.30179687499913,57.29375750000327,57.293769916999736,57.29379045800306,,,688901,001,2024-08-02_15h28.23.128,5-34 ready-monolingual persian speaker,2024.1.5,None,2024-08-02 15h28.29.551554 +0900,
Images/Speaker1.jpg,Images/Speaker2.jpg,Images/Speaker3.jpg,Images/Speaker4.jpg,Audio/Speaker1_Per/P1-8-Per.wav,Speaker1,گوینده ۱,0,0,0,6,0,6,6,7,57.322616249999555,,,,,,,,,,,,,,,,,,,,,,,,,,,,,,,,,,,,,,,,,,,,,,,,,,,,,,57.29445625000517,57.322616249999555,57.322616249999555,57.322616249999555,57.322616249999555,57.32704437533587,57.322616249999555,57.322616249999555,57.322616249999555,57.62694820800243,صحیح است,2,7,1,0.30064000000129454,None,57.63119329199981,57.641488875000505,59.63520124999923,59.635241042000416,59.635309792000044,,,688901,001,2024-08-02_15h28.23.128,5-34 ready-monolingual persian speaker,2024.1.5,None,2024-08-02 15h28.29.551554 +0900,
Images/Speaker1.jpg,Images/Speaker2.jpg,Images/Speaker3.jpg,Images/Speaker4.jpg,Audio/Speaker1_Per/P1-4-Per.wav,Speaker1,گوینده ۱,0,0,0,6,0,7,7,13,59.663056833000155,,,,,,,,,,,,,,,,,,,,,,,,,,,,,,,,,,,,,,,,,,,,,,,,,,,,,,59.63590733300225,59.663056833000155,59.663056833000155,59.663056833000155,59.663056833000155,59.6683634163351,59.663056833000155,59.663056833000155,59.663056833000155,59.98933679200127,صحیح است,3,8,1,0.3239956670004176,None,59.99310516699916,60.00394570800563,61.99370841700147,61.99374029200408,61.99379900000349,62.023248958001204,,688901,001,2024-08-02_15h28.23.128,5-34 ready-monolingual persian speaker,2024.1.5,None,2024-08-02 15h28.29.551554 +0900,
Images/Speaker1.jpg,Images/Speaker2.jpg,Images/Speaker3.jpg,Images/Speaker4.jpg,Audio/Speaker4_Per/P4-13-Per.wav,Speaker4,گوینده۴,0,0,0,6,0,8,8,72,62.023248958001204,,,,,,,,,,,,,,,,,,,,,,,,,,,,,,,,,,,,,,,,,,,,,,,,,,,,,,61.9945796250031,62.023248958001204,62.023248958001204,62.023248958001204,62.023248958001204,62.02614645833867,62.023248958001204,62.023248958001204,62.023248958001204,62.14657687500585,نادرست! پاسخ صحیح گوینده۴ است,3,9,1,0.12126345800061245,None,62.150604000002204,62.16201408300549,64.14947966700129,64.1494899169993,64.14950770800351,64.174041708,,688901,001,2024-08-02_15h28.23.128,5-34 ready-monolingual persian speaker,2024.1.5,None,2024-08-02 15h28.29.551554 +0900,
Images/Speaker1.jpg,Images/Speaker2.jpg,Images/Speaker3.jpg,Images/Speaker4.jpg,Audio/Speaker1_Per/P1-16-Per.wav,Speaker1,گوینده ۱,0,0,0,6,0,9,9,15,64.174041708,,,,,,,,,,,,,,,,,,,,,,,,,,,,,,,,,,,,,,,,,,,,,,,,,,,,,,64.14967466700182,64.174041708,64.174041708,64.174041708,64.174041708,64.18260508333381,64.174041708,64.174041708,64.174041708,64.38425283300603,صحیح است,4,10,1,0.19893149999552406,None,64.38812195799983,64.39890325000306,66.39067725000496,66.39070929200534,66.39076895800099,,,688901,001,2024-08-02_15h28.23.128,5-34 ready-monolingual persian speaker,2024.1.5,None,2024-08-02 15h28.29.551554 +0900,
Images/Speaker1.jpg,Images/Speaker2.jpg,Images/Speaker3.jpg,Images/Speaker4.jpg,Audio/Speaker3_Per/P3-12-Per.wav,Speaker3,گوینده۳,0,0,0,6,0,10,10,51,66.41753616700589,,,,,,,,,,,,,,,,,,,,,,,,,,,,,,,,,,,,,,,,,,,,,,,,,,,,,,66.39138054200157,66.41753616700589,66.41753616700589,66.41753616700589,66.41753616700589,66.42385245833478,66.41753616700589,66.41753616700589,66.41753616700589,66.57461150000017,نادرست! پاسخ صحیح گوینده۳ است,4,11,1,0.14607245800289093,None,66.57833191700047,66.58937670800515,68.57275775000016,68.57277029200486,68.57278937500087,68.5956876670025,,688901,001,2024-08-02_15h28.23.128,5-34 ready-monolingual persian speaker,2024.1.5,None,2024-08-02 15h28.29.551554 +0900,
Images/Speaker1.jpg,Images/Speaker2.jpg,Images/Speaker3.jpg,Images/Speaker4.jpg,Audio/Speaker4_Per/P4-19-Per.wav,Speaker4,گوینده۴,0,0,0,6,0,11,11,78,68.5956876670025,,,,,,,,,,,,,,,,,,,,,,,,,,,,,,,,,,,,,,,,,,,,,,,,,,,,,,68.57298179200006,68.5956876670025,68.5956876670025,68.5956876670025,68.5956876670025,68.58916199966576,68.5956876670025,68.5956876670025,68.5956876670025,69.46522633299901,نادرست! پاسخ صحیح گوینده۴ است,4,12,1,0.8603728749949369,None,69.46936216700124,69.48049462500057,71.46796933300357,71.46797908300505,71.46800766700471,71.48976162500185,,688901,001,2024-08-02_15h28.23.128,5-34 ready-monolingual persian speaker,2024.1.5,None,2024-08-02 15h28.29.551554 +0900,
Images/Speaker1.jpg,Images/Speaker2.jpg,Images/Speaker3.jpg,Images/Speaker4.jpg,Audio/Speaker3_Per/P3-3-Per.wav,Speaker3,گوینده۳,0,0,0,6,0,12,12,42,71.48976162500185,,,,,,,,,,,,,,,,,,,,,,,,,,,,,,,,,,,,,,,,,,,,,,,,,,,,,,71.46817604199896,71.48976162500185,71.48976162500185,71.48976162500185,71.48976162500185,71.48435841667039,71.48976162500185,71.48976162500185,71.48976162500185,71.92405250000593,نادرست! پاسخ صحیح گوینده۳ است,4,13,1,0.42822891700052423,None,71.92813237500377,71.9396751250024,73.93531462499959,73.93532350000169,73.93534595800156,,,688901,001,2024-08-02_15h28.23.128,5-34 ready-monolingual persian speaker,2024.1.5,None,2024-08-02 15h28.29.551554 +0900,
Images/Speaker1.jpg,Images/Speaker2.jpg,Images/Speaker3.jpg,Images/Speaker4.jpg,Audio/Speaker1_Per/P1-7-Per.wav,Speaker1,گوینده ۱,0,0,0,6,0,13,13,6,73.96284329199989,,,,,,,,,,,,,,,,,,,,,,,,,,,,,,,,,,,,,,,,,,,,,,,,,,,,,,73.93553000000247,73.96284329199989,73.96284329199989,73.96284329199989,73.96284329199989,73.96861225033402,73.96284329199989,73.96284329199989,73.96284329199989,74.47495141700347,صحیح است,5,14,1,0.500330707996909,None,74.47912491700117,74.48740954200184,76.47020508300193,76.47021487500024,76.47023666700261,76.49348679200193,,688901,001,2024-08-02_15h28.23.128,5-34 ready-monolingual persian speaker,2024.1.5,None,2024-08-02 15h28.29.551554 +0900,
Images/Speaker1.jpg,Images/Speaker2.jpg,Images/Speaker3.jpg,Images/Speaker4.jpg,Audio/Speaker3_Per/P3-4-Per.wav,Speaker3,گوینده۳,0,0,0,6,0,14,14,43,76.49348679200193,,,,,,,,,,,,,,,,,,,,,,,,,,,,,,,,,,,,,,,,,,,,,,,,,,,,,,76.47040887500043,76.49348679200193,76.49348679200193,76.49348679200193,76.49348679200193,76.48667549966582,76.49348679200193,76.49348679200193,76.49348679200193,76.82560704200296,نادرست! پاسخ صحیح گوینده۳ است,5,15,1,0.32764091699937126,None,76.8294385420013,76.8407670000015,78.83551141700445,78.83552158300154,78.8355424170004,,,688901,001,2024-08-02_15h28.23.128,5-34 ready-monolingual persian speaker,2024.1.5,None,2024-08-02 15h28.29.551554 +0900,
Images/Speaker1.jpg,Images/Speaker2.jpg,Images/Speaker3.jpg,Images/Speaker4.jpg,Audio/Speaker2_Per/P2-15-Per.wav,Speaker2,گوینده۲,0,0,0,6,0,15,15,34,78.8605402500034,,,,,,,,,,,,,,,,,,,,,,,,,,,,,,,,,,,,,,,,,,,,,,,,,,,,,,78.83570920800412,78.8605402500034,78.8605402500034,78.8605402500034,78.8605402500034,78.86881083333768,78.8605402500034,78.8605402500034,78.8605402500034,79.07997766700282,نادرست! پاسخ صحیح گوینده۲ است,5,16,1,0.21658000000024913,None,79.08387266700447,79.09467362500436,81.08777725000255,81.08781475000433,81.0878940420007,,,688901,001,2024-08-02_15h28.23.128,5-34 ready-monolingual persian speaker,2024.1.5,None,2024-08-02 15h28.29.551554 +0900,
Images/Speaker1.jpg,Images/Speaker2.jpg,Images/Speaker3.jpg,Images/Speaker4.jpg,Audio/Speaker1_Per/P1-18-Per.wav,Speaker1,گوینده ۱,0,0,0,6,0,16,16,17,81.11216575000435,,,,,,,,,,,,,,,,,,,,,,,,,,,,,,,,,,,,,,,,,,,,,,,,,,,,,,81.08848212500016,81.11216575000435,81.11216575000435,81.11216575000435,81.11216575000435,81.12094087533526,81.11216575000435,81.11216575000435,81.11216575000435,81.27419320800254,صحیح است,6,17,1,0.15151329199579777,None,81.27815391700278,81.2884880000056,83.27741387500282,83.27742279200174,83.27744166699995,83.30129650000163,,688901,001,2024-08-02_15h28.23.128,5-34 ready-monolingual persian speaker,2024.1.5,None,2024-08-02 15h28.29.551554 +0900,
Images/Speaker1.jpg,Images/Speaker2.jpg,Images/Speaker3.jpg,Images/Speaker4.jpg,Audio/Speaker4_Per/P4-17-Per.wav,Speaker4,گوینده۴,0,0,0,6,0,17,17,76,83.30129650000163,,,,,,,,,,,,,,,,,,,,,,,,,,,,,,,,,,,,,,,,,,,,,,,,,,,,,,83.2776015000054,83.30129650000163,83.30129650000163,83.30129650000163,83.30129650000163,83.31041025033531,83.30129650000163,83.30129650000163,83.30129650000163,83.74641258300107,نادرست! پاسخ صحیح گوینده۴ است,6,18,1,0.442118582999683,None,83.75040387500485,83.76188720800565,85.75802004200523,85.75802925000608,85.75805629200477,,,688901,001,2024-08-02_15h28.23.128,5-34 ready-monolingual persian speaker,2024.1.5,None,2024-08-02 15h28.29.551554 +0900,
Images/Speaker1.jpg,Images/Speaker2.jpg,Images/Speaker3.jpg,Images/Speaker4.jpg,Audio/Speaker2_Per/P2-11-Per.wav,Speaker2,گوینده۲,0,0,0,6,0,18,18,30,85.78273895800521,,,,,,,,,,,,,,,,,,,,,,,,,,,,,,,,,,,,,,,,,,,,,,,,,,,,,,85.75823583300371,85.78273895800521,85.78273895800521,85.78273895800521,85.78273895800521,85.79131154133259,85.78273895800521,85.78273895800521,85.78273895800521,86.21818075000192,نادرست! پاسخ صحیح گوینده۲ است,6,19,1,0.4324004160007462,None,86.22228770800575,86.23331654200592,88.22510112500458,88.22513650000474,88.22520487500151,,,688901,001,2024-08-02_15h28.23.128,5-34 ready-monolingual persian speaker,2024.1.5,None,2024-08-02 15h28.29.551554 +0900,
Images/Speaker1.jpg,Images/Speaker2.jpg,Images/Speaker3.jpg,Images/Speaker4.jpg,Audio/Speaker3_Per/P3-8-Per.wav,Speaker3,گوینده۳,0,0,0,6,0,19,19,47,88.25128133300313,,,,,,,,,,,,,,,,,,,,,,,,,,,,,,,,,,,,,,,,,,,,,,,,,,,,,,88.22578708299989,88.25128133300313,88.25128133300313,88.25128133300313,88.25128133300313,88.25827645833536,88.25128133300313,88.25128133300313,88.25128133300313,88.46015725000325,نادرست! پاسخ صحیح گوینده۳ است,6,20,1,0.20560549999936484,None,88.46416258300451,88.47513254200021,90.46886225000344,90.46889954200014,90.4689652080051,,,688901,001,2024-08-02_15h28.23.128,5-34 ready-monolingual persian speaker,2024.1.5,None,2024-08-02 15h28.29.551554 +0900,
Images/Speaker1.jpg,Images/Speaker2.jpg,Images/Speaker3.jpg,Images/Speaker4.jpg,Audio/Speaker1_Per/P1-1-Per.wav,Speaker1,گوینده ۱,0,0,0,6,0,20,20,0,90.49458133300504,,,,,,,,,,,,,,,,,,,,,,,,,,,,,,,,,,,,,,,,,,,,,,,,,,,,,,90.46961833300156,90.49458133300504,90.49458133300504,90.49458133300504,90.49458133300504,90.50197541633727,90.49458133300504,90.49458133300504,90.49458133300504,90.70772345799924,صحیح است,7,21,1,0.21223737500258721,None,90.71169412500603,90.72204016700562,92.71244887500507,92.71248841700435,92.71255920800468,,,688901,001,2024-08-02_15h28.23.128,5-34 ready-monolingual persian speaker,2024.1.5,None,2024-08-02 15h28.29.551554 +0900,
Images/Speaker1.jpg,Images/Speaker2.jpg,Images/Speaker3.jpg,Images/Speaker4.jpg,Audio/Speaker4_Per/P4-11-Per.wav,Speaker4,گوینده۴,0,0,0,6,0,21,21,70,92.74152308300108,,,,,,,,,,,,,,,,,,,,,,,,,,,,,,,,,,,,,,,,,,,,,,,,,,,,,,92.71327404200565,92.74152308300108,92.74152308300108,92.74152308300108,92.74152308300108,92.74563295833698,92.74152308300108,92.74152308300108,92.74152308300108,92.98436712500552,نادرست! پاسخ صحیح گوینده۴ است,7,22,1,0.24127649999718415,None,92.98825866699917,92.99987233299908,94.98873425000056,94.98877254200488,94.98884941700089,,,688901,001,2024-08-02_15h28.23.128,5-34 ready-monolingual persian speaker,2024.1.5,None,2024-08-02 15h28.29.551554 +0900,
Images/Speaker1.jpg,Images/Speaker2.jpg,Images/Speaker3.jpg,Images/Speaker4.jpg,Audio/Speaker4_Per/P4-2-Per.wav,Speaker4,گوینده۴,0,0,0,6,0,22,22,61,95.0149071670021,,,,,,,,,,,,,,,,,,,,,,,,,,,,,,,,,,,,,,,,,,,,,,,,,,,,,,94.98944954200124,95.0149071670021,95.0149071670021,95.0149071670021,95.0149071670021,95.02188000033541,95.0149071670021,95.0149071670021,95.0149071670021,95.21109387500474,نادرست! پاسخ صحیح گوینده۴ است,7,23,1,0.18837783300114097,None,95.21479741700023,95.22588145800546,97.21334995800134,97.21336062499904,97.21340350000537,97.23764683300396,,688901,001,2024-08-02_15h28.23.128,5-34 ready-monolingual persian speaker,2024.1.5,None,2024-08-02 15h28.29.551554 +0900,
Images/Speaker1.jpg,Images/Speaker2.jpg,Images/Speaker3.jpg,Images/Speaker4.jpg,Audio/Speaker4_Per/P4-10-Per.wav,Speaker4,گوینده۴,0,0,0,6,0,23,23,69,97.23764683300396,,,,,,,,,,,,,,,,,,,,,,,,,,,,,,,,,,,,,,,,,,,,,,,,,,,,,,97.21357812500355,97.23764683300396,97.23764683300396,97.23764683300396,97.23764683300396,97.24641962533545,97.23764683300396,97.23764683300396,97.23764683300396,97.32225908300461,نادرست! پاسخ صحیح گوینده۴ است,7,24,1,0.07665762499527773,None,97.32638750000478,97.33751775000565,99.32821908299957,99.3282305419998,99.32825408300414,,,688901,001,2024-08-02_15h28.23.128,5-34 ready-monolingual persian speaker,2024.1.5,None,2024-08-02 15h28.29.551554 +0900,
Images/Speaker1.jpg,Images/Speaker2.jpg,Images/Speaker3.jpg,Images/Speaker4.jpg,Audio/Speaker3_Per/P3-14-Per.wav,Speaker3,گوینده۳,0,0,0,6,0,24,24,53,99.35231362500053,,,,,,,,,,,,,,,,,,,,,,,,,,,,,,,,,,,,,,,,,,,,,,,,,,,,,,99.32844212499913,99.35231362500053,99.35231362500053,99.35231362500053,99.35231362500053,99.36151737533558,99.35231362500053,99.35231362500053,99.35231362500053,99.69469912500062,نادرست! پاسخ صحیح گوینده۳ است,7,25,1,0.3370270419982262,None,99.6985573330021,99.70941875000426,101.69800208300148,101.69802866700047,101.69807604200469,101.72623320799903,,688901,001,2024-08-02_15h28.23.128,5-34 ready-monolingual persian speaker,2024.1.5,None,2024-08-02 15h28.29.551554 +0900,
Images/Speaker1.jpg,Images/Speaker2.jpg,Images/Speaker3.jpg,Images/Speaker4.jpg,Audio/Speaker2_Per/P2-7-Per.wav,Speaker2,گوینده۲,0,0,0,6,0,25,25,26,101.72623320799903,,,,,,,,,,,,,,,,,,,,,,,,,,,,,,,,,,,,,,,,,,,,,,,,,,,,,,101.6989556250046,101.72623320799903,101.72623320799903,101.72623320799903,101.72623320799903,101.7305500003354,101.72623320799903,101.72623320799903,101.72623320799903,102.4663370000053,نادرست! پاسخ صحیح گوینده۲ است,7,26,1,0.7293390420018113,None,102.4709915420026,102.48305925000022,104.47088412500307,104.47089337500074,104.47093187500286,104.49328137500561,,688901,001,2024-08-02_15h28.23.128,5-34 ready-monolingual persian speaker,2024.1.5,None,2024-08-02 15h28.29.551554 +0900,
Images/Speaker1.jpg,Images/Speaker2.jpg,Images/Speaker3.jpg,Images/Speaker4.jpg,Audio/Speaker1_Per/P1-13-Per.wav,Speaker1,گوینده ۱,0,0,0,6,0,26,26,12,104.49328137500561,,,,,,,,,,,,,,,,,,,,,,,,,,,,,,,,,,,,,,,,,,,,,,,,,,,,,,104.47114437500568,104.49328137500561,104.49328137500561,104.49328137500561,104.49328137500561,104.48737112466576,104.49328137500561,104.49328137500561,104.49328137500561,105.79177175000223,صحیح است,8,27,1,1.2904914160026237,None,105.7955494170019,105.80351399999927,107.7909619580023,107.79099912500533,107.7910579580057,107.81879024999944,,688901,001,2024-08-02_15h28.23.128,5-34 ready-monolingual persian speaker,2024.1.5,None,2024-08-02 15h28.29.551554 +0900,
Images/Speaker1.jpg,Images/Speaker2.jpg,Images/Speaker3.jpg,Images/Speaker4.jpg,Audio/Speaker2_Per/P2-1-Per.wav,Speaker2,گوینده۲,0,0,0,6,0,27,27,20,107.81879024999944,,,,,,,,,,,,,,,,,,,,,,,,,,,,,,,,,,,,,,,,,,,,,,,,,,,,,,107.79208887500135,107.81879024999944,107.81879024999944,107.81879024999944,107.81879024999944,107.8234202083336,107.81879024999944,107.81879024999944,107.81879024999944,109.52146920800442,نادرست! پاسخ صحیح گوینده۲ است,8,28,1,1.699400917001185,None,109.52553774999978,109.53686816700065,111.52426333300536,111.52429875000234,111.524361667005,111.55225620800047,,688901,001,2024-08-02_15h28.23.128,5-34 ready-monolingual persian speaker,2024.1.5,None,2024-08-02 15h28.29.551554 +0900,
Images/Speaker1.jpg,Images/Speaker2.jpg,Images/Speaker3.jpg,Images/Speaker4.jpg,Audio/Speaker3_Per/P3-13-Per.wav,Speaker3,گوینده۳,0,0,0,6,0,28,28,52,111.55225620800047,,,,,,,,,,,,,,,,,,,,,,,,,,,,,,,,,,,,,,,,,,,,,,,,,,,,,,111.52524200000335,111.55225620800047,111.55225620800047,111.55225620800047,111.55225620800047,111.55675291633864,111.55225620800047,111.55225620800047,111.55225620800047,111.8605270420012,نادرست! پاسخ صحیح گوینده۳ است,8,29,1,0.305062542000087,None,111.86458883299929,111.87588383300317,113.8628165830014,113.86282700000447,113.86284758300462,113.88538604200585,,688901,001,2024-08-02_15h28.23.128,5-34 ready-monolingual persian speaker,2024.1.5,None,2024-08-02 15h28.29.551554 +0900,
Images/Speaker1.jpg,Images/Speaker2.jpg,Images/Speaker3.jpg,Images/Speaker4.jpg,Audio/Speaker3_Per/P3-18-Per.wav,Speaker3,گوینده۳,0,0,0,6,0,29,29,57,113.88538604200585,,,,,,,,,,,,,,,,,,,,,,,,,,,,,,,,,,,,,,,,,,,,,,,,,,,,,,113.8630176670049,113.88538604200585,113.88538604200585,113.88538604200585,113.88538604200585,113.87928441667124,113.88538604200585,113.88538604200585,113.88538604200585,114.4258329170043,نادرست! پاسخ صحیح گوینده۳ است,8,30,1,0.5348517089951201,None,114.429622458003,114.44113487499999,116.4239546250028,116.42396550000558,116.42398683300416,116.44882395800232,,688901,001,2024-08-02_15h28.23.128,5-34 ready-monolingual persian speaker,2024.1.5,None,2024-08-02 15h28.29.551554 +0900,
Images/Speaker1.jpg,Images/Speaker2.jpg,Images/Speaker3.jpg,Images/Speaker4.jpg,Audio/Speaker4_Per/P4-5-Per.wav,Speaker4,گوینده۴,0,0,0,6,0,30,30,64,116.44882395800232,,,,,,,,,,,,,,,,,,,,,,,,,,,,,,,,,,,,,,,,,,,,,,,,,,,,,,116.42419250000239,116.44882395800232,116.44882395800232,116.44882395800232,116.44882395800232,116.45708458333732,116.44882395800232,116.44882395800232,116.44882395800232,116.67980195800192,نادرست! پاسخ صحیح گوینده۴ است,8,31,1,0.22437883299426176,None,116.68398504200013,116.69500145799975,118.6827137920045,118.68277329199918,118.68283779200283,118.70983600000181,,688901,001,2024-08-02_15h28.23.128,5-34 ready-monolingual persian speaker,2024.1.5,None,2024-08-02 15h28.29.551554 +0900,
Images/Speaker1.jpg,Images/Speaker2.jpg,Images/Speaker3.jpg,Images/Speaker4.jpg,Audio/Speaker4_Per/P4-3-Per.wav,Speaker4,گوینده۴,0,0,0,6,0,31,31,62,118.70983600000181,,,,,,,,,,,,,,,,,,,,,,,,,,,,,,,,,,,,,,,,,,,,,,,,,,,,,,118.6837960000048,118.70983600000181,118.70983600000181,118.70983600000181,118.70983600000181,118.71521450033518,118.70983600000181,118.70983600000181,118.70983600000181,118.90152320800553,نادرست! پاسخ صحیح گوینده۴ است,8,32,1,0.18810362499789335,None,118.90526887500164,118.9169192920017,120.90727350000088,120.90731620800216,120.90739916700113,,,688901,001,2024-08-02_15h28.23.128,5-34 ready-monolingual persian speaker,2024.1.5,None,2024-08-02 15h28.29.551554 +0900,
Images/Speaker1.jpg,Images/Speaker2.jpg,Images/Speaker3.jpg,Images/Speaker4.jpg,Audio/Speaker3_Per/P3-1-Per.wav,Speaker3,گوینده۳,0,0,0,6,0,32,32,40,120.9353132920005,,,,,,,,,,,,,,,,,,,,,,,,,,,,,,,,,,,,,,,,,,,,,,,,,,,,,,120.90808091700455,120.9353132920005,120.9353132920005,120.9353132920005,120.9353132920005,120.94045016633802,120.9353132920005,120.9353132920005,120.9353132920005,121.3461664580027,نادرست! پاسخ صحیح گوینده۳ است,8,33,1,0.40384658300172305,None,121.34993416700308,121.3613024580045,123.35688220800512,123.35690933300066,123.35697483300464,,,688901,001,2024-08-02_15h28.23.128,5-34 ready-monolingual persian speaker,2024.1.5,None,2024-08-02 15h28.29.551554 +0900,
Images/Speaker1.jpg,Images/Speaker2.jpg,Images/Speaker3.jpg,Images/Speaker4.jpg,Audio/Speaker2_Per/P2-2-Per.wav,Speaker2,گوینده۲,0,0,0,6,0,33,33,21,123.38635162500577,,,,,,,,,,,,,,,,,,,,,,,,,,,,,,,,,,,,,,,,,,,,,,,,,,,,,,123.35765120800352,123.38635162500577,123.38635162500577,123.38635162500577,123.38635162500577,123.39004050033739,123.38635162500577,123.38635162500577,123.38635162500577,123.78061824999895,نادرست! پاسخ صحیح گوینده۲ است,8,34,1,0.39329979100148194,None,123.78434241700597,123.79566491700098,125.78068241700385,125.78070595800091,125.78074287500203,125.80519012500008,,688901,001,2024-08-02_15h28.23.128,5-34 ready-monolingual persian speaker,2024.1.5,None,2024-08-02 15h28.29.551554 +0900,
Images/Speaker1.jpg,Images/Speaker2.jpg,Images/Speaker3.jpg,Images/Speaker4.jpg,Audio/Speaker3_Per/P3-11-Per.wav,Speaker3,گوینده۳,0,0,0,6,0,34,34,50,125.80519012500008,,,,,,,,,,,,,,,,,,,,,,,,,,,,,,,,,,,,,,,,,,,,,,,,,,,,,,125.78091625000525,125.80519012500008,125.80519012500008,125.80519012500008,125.80519012500008,125.81374225033554,125.80519012500008,125.80519012500008,125.80519012500008,126.57087854199926,نادرست! پاسخ صحیح گوینده۳ است,8,35,1,0.7643382919995929,None,126.57501220799895,126.5864067500006,128.57204870800342,128.57205879200046,128.57208195800195,128.59392504200514,,688901,001,2024-08-02_15h28.23.128,5-34 ready-monolingual persian speaker,2024.1.5,None,2024-08-02 15h28.29.551554 +0900,
Images/Speaker1.jpg,Images/Speaker2.jpg,Images/Speaker3.jpg,Images/Speaker4.jpg,Audio/Speaker2_Per/P2-4-Per.wav,Speaker2,گوینده۲,0,0,0,6,0,35,35,23,128.59392504200514,,,,,,,,,,,,,,,,,,,,,,,,,,,,,,,,,,,,,,,,,,,,,,,,,,,,,,128.57224591699924,128.59392504200514,128.59392504200514,128.59392504200514,128.59392504200514,128.58846070866664,128.59392504200514,128.59392504200514,128.59392504200514,128.89643758300372,نادرست! پاسخ صحیح گوینده۲ است,8,36,1,0.3000820000015665,None,128.9003294580034,128.91184387500107,130.89886300000217,130.89887179200014,130.89889054200466,130.92388670800574,,688901,001,2024-08-02_15h28.23.128,5-34 ready-monolingual persian speaker,2024.1.5,None,2024-08-02 15h28.29.551554 +0900,
Images/Speaker1.jpg,Images/Speaker2.jpg,Images/Speaker3.jpg,Images/Speaker4.jpg,Audio/Speaker1_Per/P1-6-Per.wav,Speaker1,گوینده ۱,0,0,0,6,0,36,36,5,130.92388670800574,,,,,,,,,,,,,,,,,,,,,,,,,,,,,,,,,,,,,,,,,,,,,,,,,,,,,,130.89905883300526,130.92388670800574,130.92388670800574,130.92388670800574,130.92388670800574,130.9319099163336,130.92388670800574,130.92388670800574,130.92388670800574,131.91391295799986,صحیح است,9,37,1,0.98787820799771,None,131.9177711670054,131.92850650000037,133.91178425000544,133.91179679200286,133.91181637500267,133.93542458300362,,688901,001,2024-08-02_15h28.23.128,5-34 ready-monolingual persian speaker,2024.1.5,None,2024-08-02 15h28.29.551554 +0900,
Images/Speaker1.jpg,Images/Speaker2.jpg,Images/Speaker3.jpg,Images/Speaker4.jpg,Audio/Speaker2_Per/P2-5-Per.wav,Speaker2,گوینده۲,0,0,0,6,0,37,37,24,133.93542458300362,,,,,,,,,,,,,,,,,,,,,,,,,,,,,,,,,,,,,,,,,,,,,,,,,,,,,,133.9119922500031,133.93542458300362,133.93542458300362,133.93542458300362,133.93542458300362,133.92824987467273,133.93542458300362,133.93542458300362,133.93542458300362,135.2094688750003,نادرست! پاسخ صحیح گوینده۲ است,9,38,1,1.2697717499977443,None,135.2148207499995,135.22737037500337,137.21123762500065,137.21127079200232,137.2113444580027,137.2387464170024,,688901,001,2024-08-02_15h28.23.128,5-34 ready-monolingual persian speaker,2024.1.5,None,2024-08-02 15h28.29.551554 +0900,
Images/Speaker1.jpg,Images/Speaker2.jpg,Images/Speaker3.jpg,Images/Speaker4.jpg,Audio/Speaker1_Per/P1-20-Per.wav,Speaker1,گوینده ۱,0,0,0,6,0,38,38,19,137.2387464170024,,,,,,,,,,,,,,,,,,,,,,,,,,,,,,,,,,,,,,,,,,,,,,,,,,,,,,137.21221004200197,137.2387464170024,137.2387464170024,137.2387464170024,137.2387464170024,137.243755291333,137.2387464170024,137.2387464170024,137.2387464170024,139.6740867080007,صحیح است,10,39,1,2.4317350420024013,None,139.67785600000207,139.68817695799953,141.67356879200088,141.6735927500049,141.67361883300327,141.69858079199912,,688901,001,2024-08-02_15h28.23.128,5-34 ready-monolingual persian speaker,2024.1.5,None,2024-08-02 15h28.29.551554 +0900,
Images/Speaker1.jpg,Images/Speaker2.jpg,Images/Speaker3.jpg,Images/Speaker4.jpg,Audio/Speaker3_Per/P3-20-Per.wav,Speaker3,گوینده۳,0,0,0,6,0,39,39,59,141.69858079199912,,,,,,,,,,,,,,,,,,,,,,,,,,,,,,,,,,,,,,,,,,,,,,,,,,,,,,141.6737872080048,141.69858079199912,141.69858079199912,141.69858079199912,141.69858079199912,141.70669091633368,141.69858079199912,141.69858079199912,141.69858079199912,144.15702129200508,نادرست! پاسخ صحیح گوینده۳ است,10,40,1,2.4491107079957146,None,144.16101537500072,144.172644667,146.16643491700233,146.16644454200286,146.1690632500031,,,688901,001,2024-08-02_15h28.23.128,5-34 ready-monolingual persian speaker,2024.1.5,None,2024-08-02 15h28.29.551554 +0900,
Images/Speaker1.jpg,Images/Speaker2.jpg,Images/Speaker3.jpg,Images/Speaker4.jpg,Audio/Speaker2_Per/P2-18-Per.wav,Speaker2,گوینده۲,0,0,0,6,0,40,40,37,146.19285154200043,,,,,,,,,,,,,,,,,,,,,,,,,,,,,,,,,,,,,,,,,,,,,,,,,,,,,,146.16926037500525,146.19285154200043,146.19285154200043,146.19285154200043,146.19285154200043,146.1997272913364,146.19285154200043,146.19285154200043,146.19285154200043,152.19616945800226,نادرست! پاسخ صحیح گوینده۲ است,10,41,1,6.001166958994872,None,152.19640741700277,152.20758162499988,154.19133475000126,154.191347167005,154.19425787500222,154.19405454200023,154.19405454200023,688901,001,2024-08-02_15h28.23.128,5-34 ready-monolingual persian speaker,2024.1.5,None,2024-08-02 15h28.29.551554 +0900,
Images/Speaker1.jpg,Images/Speaker2.jpg,Images/Speaker3.jpg,Images/Speaker4.jpg,Audio/Speaker2_Per/P2-6-Per.wav,Speaker2,گوینده۲,0,0,0,6,0,41,41,25,154.21573825000087,,,,,,,,,,,,,,,,,,,,,,,,,,,,,,,,,,,,,,,,,,,,,,,,,,,,,,154.19444345800002,156.18790804200398,156.18790804200398,156.18790804200398,156.18790804200398,156.1971191246669,156.18790804200398,156.18790804200398,156.18790804200398,159.44094687500183,نادرست! پاسخ صحیح گوینده۲ است,10,42,1,3.241878209002607,None,159.44116758300515,159.45225658300478,161.442417708,161.44246058299905,161.44255933300155,,,688901,001,2024-08-02_15h28.23.128,5-34 ready-monolingual persian speaker,2024.1.5,None,2024-08-02 15h28.29.551554 +0900,
Images/Speaker1.jpg,Images/Speaker2.jpg,Images/Speaker3.jpg,Images/Speaker4.jpg,Audio/Speaker4_Per/P4-20-Per.wav,Speaker4,گوینده۴,0,0,0,6,0,42,42,79,161.46677487499983,,,,,,,,,,,,,,,,,,,,,,,,,,,,,,,,,,,,,,,,,,,,,,,,,,,,,,161.44321204200241,161.46677487499983,161.46677487499983,161.46677487499983,161.46677487499983,161.47558608333253,161.46677487499983,161.46677487499983,161.46677487499983,163.25807533300394,نادرست! پاسخ صحیح گوینده۴ است,10,43,1,1.7822710830005235,None,163.262350625002,163.27405941700272,165.25881087500602,165.25882391699997,165.25885458300036,165.28402862499934,,688901,001,2024-08-02_15h28.23.128,5-34 ready-monolingual persian speaker,2024.1.5,None,2024-08-02 15h28.29.551554 +0900,
,,,,,,,,,,,,,,,165.28402862499934,,,,,,,,,,,,,,,,,,,,,,,,,,,,,,,,,,,,,,,,,,,,,,,,,,,,,,165.25905379200412,165.28402862499934,165.28402862499934,165.28402862499934,165.28402862499934,165.29190333333878,165.28402862499934,165.28402862499934,165.28402862499934,,,,,,,,,,,,,,,,,,,,,,
