SpeakerImage1,SpeakerImage2,SpeakerImage3,SpeakerImage4,TrainingSound,EnglishCorrectAnswer,PersianCorrectAnswer,repeated_TrainingloopGroup1.thisRepN,repeated_TrainingloopGroup1.thisTrialN,repeated_TrainingloopGroup1.thisN,repeated_TrainingloopGroup1.thisIndex,TrainingLoopGroup1.thisRepN,TrainingLoopGroup1.thisTrialN,TrainingLoopGroup1.thisN,TrainingLoopGroup1.thisIndex,thisRow.t,notes,trial.started,trial.stopped,GroupSelection.started,GroupInstructions.started,key_resp.started,GroupSelection.stopped,key_resp.keys,key_resp.rt,key_resp.duration,Introduction.started,text_2.started,image.started,sound_7.started,text_4.started,text_2.stopped,sound_8.started,image.stopped,text_4.stopped,image_7.started,sound_9.started,text_5.started,sound_10.started,image_7.stopped,text_5.stopped,image_8.started,sound_11.started,text_6.started,sound_12.started,image_9.started,sound_13.started,text_7.started,image_8.stopped,text_6.stopped,sound_14.started,image_9.stopped,text_7.stopped,Introduction.stopped,Instructions.started,InstructionText.started,InstructionText.stopped,Instructions.stopped,InitializeExperiment.started,InitializeExperiment.stopped,CheckAccuracy1.started,accuracy_group1,proceed_to_test,CheckAccuracy1.stopped,participant,session,date,expName,psychopyVersion,frameRate,expStart,
,,,,,,,,,,,,,,,,,0.009552833000270766,0.009875957999611273,,,,,,,,,,,,,,,,,,,,,,,,,,,,,,,,,,,,,,,,,,,,,,708454,001,2024-07-03_14h09.26.400,5-all in one,2024.1.4,None,2024-07-03 14h09.31.280814 +0900,
,,,,,,,,,,,,,,,,,,,0.009890790999634191,0.014419291001104284,0.014419291001104284,1.3796538750011678,2,1.3297624159986299,None,,,,,,,,,,,,,,,,,,,,,,,,,,,,,,,,,,,,,,,708454,001,2024-07-03_14h09.26.400,5-all in one,2024.1.4,None,2024-07-03 14h09.31.280814 +0900,
,,,,,,,,,,,,,,,,,,,,,,,,,,1.379679790999944,1.4330222910011798,6.3761808750005,6.386584874666611,6.3761808750005,6.428804041001058,11.380927957667398,16.37283104100061,16.37283104100061,16.37283104100061,16.38023491666742,16.37283104100061,21.380055291667546,26.359764750000977,26.359764750000977,26.382736290999674,26.391059916666805,26.382736290999674,31.38865791666673,36.37088541600133,36.37960437466633,36.37088541600133,36.376946708000105,36.376946708000105,41.387905582667614,46.36941470800048,46.36941470800048,46.35897829100031,,,,,,,,,,,708454,001,2024-07-03_14h09.26.400,5-all in one,2024.1.4,None,2024-07-03 14h09.31.280814 +0900,
,,,,,,,,,,,,,,,,,,,,,,,,,,,,,,,,,,,,,,,,,,,,,,,,,,,,,,46.35899579100078,46.37512129100105,65.85470504099976,47.36465591600063,,,,,,,708454,001,2024-07-03_14h09.26.400,5-all in one,2024.1.4,None,2024-07-03 14h09.31.280814 +0900,
,,,,,,,,,,,,,,,,,,,,,,,,,,,,,,,,,,,,,,,,,,,,,,,,,,,,,,,,,,47.36469212500015,47.36496566599999,,,,,708454,001,2024-07-03_14h09.26.400,5-all in one,2024.1.4,None,2024-07-03 14h09.31.280814 +0900,
Images/Speaker1.jpg,Images/Speaker2.jpg,Images/Speaker3.jpg,Images/Speaker4.jpg,Audio/Speaker3_Per/P3-20-Per.wav,Speaker3,گوینده۳,0,0,0,59,,,,,65.85470504099976,,,,,,,,,,,,,,,,,,,,,,,,,,,,,,,,,,,,,,,,,,,,,47.419917875000465,0.0,False,47.420259124999575,708454,001,2024-07-03_14h09.26.400,5-all in one,2024.1.4,None,2024-07-03 14h09.31.280814 +0900,
Images/Speaker1.jpg,Images/Speaker2.jpg,Images/Speaker3.jpg,Images/Speaker4.jpg,Audio/Speaker1_Per/P1-15-Per.wav,Speaker1,گوینده ۱,0,1,1,14,,,,,65.85470504099976,,,,,,,,,,,,,,,,,,,,,,,,,,,,,,,,,,,,,,,,,,,,,47.43860158300049,0.0,False,47.438871791000565,708454,001,2024-07-03_14h09.26.400,5-all in one,2024.1.4,None,2024-07-03 14h09.31.280814 +0900,
Images/Speaker1.jpg,Images/Speaker2.jpg,Images/Speaker3.jpg,Images/Speaker4.jpg,Audio/Speaker1_Per/P1-11-Per.wav,Speaker1,گوینده ۱,0,2,2,10,,,,,65.85470504099976,,,,,,,,,,,,,,,,,,,,,,,,,,,,,,,,,,,,,,,,,,,,,47.456698291000066,0.0,False,47.456919375001235,708454,001,2024-07-03_14h09.26.400,5-all in one,2024.1.4,None,2024-07-03 14h09.31.280814 +0900,
Images/Speaker1.jpg,Images/Speaker2.jpg,Images/Speaker3.jpg,Images/Speaker4.jpg,Audio/Speaker4_Per/P4-9-Per.wav,Speaker4,گوینده۴,0,3,3,68,,,,,65.85470504099976,,,,,,,,,,,,,,,,,,,,,,,,,,,,,,,,,,,,,,,,,,,,,47.47370583300108,0.0,False,47.47391645800053,708454,001,2024-07-03_14h09.26.400,5-all in one,2024.1.4,None,2024-07-03 14h09.31.280814 +0900,
Images/Speaker1.jpg,Images/Speaker2.jpg,Images/Speaker3.jpg,Images/Speaker4.jpg,Audio/Speaker4_Per/P4-7-Per.wav,Speaker4,گوینده۴,0,4,4,66,,,,,65.85470504099976,,,,,,,,,,,,,,,,,,,,,,,,,,,,,,,,,,,,,,,,,,,,,47.48987258300076,0.0,False,47.49006525000004,708454,001,2024-07-03_14h09.26.400,5-all in one,2024.1.4,None,2024-07-03 14h09.31.280814 +0900,
Images/Speaker1.jpg,Images/Speaker2.jpg,Images/Speaker3.jpg,Images/Speaker4.jpg,Audio/Speaker1_Per/P1-17-Per.wav,Speaker1,گوینده ۱,0,5,5,16,,,,,65.85470504099976,,,,,,,,,,,,,,,,,,,,,,,,,,,,,,,,,,,,,,,,,,,,,47.50581583300118,0.0,False,47.50604745800047,708454,001,2024-07-03_14h09.26.400,5-all in one,2024.1.4,None,2024-07-03 14h09.31.280814 +0900,
Images/Speaker1.jpg,Images/Speaker2.jpg,Images/Speaker3.jpg,Images/Speaker4.jpg,Audio/Speaker3_Per/P3-19-Per.wav,Speaker3,گوینده۳,0,6,6,58,,,,,65.85470504099976,,,,,,,,,,,,,,,,,,,,,,,,,,,,,,,,,,,,,,,,,,,,,47.521784458000184,0.0,False,47.52202337500057,708454,001,2024-07-03_14h09.26.400,5-all in one,2024.1.4,None,2024-07-03 14h09.31.280814 +0900,
Images/Speaker1.jpg,Images/Speaker2.jpg,Images/Speaker3.jpg,Images/Speaker4.jpg,Audio/Speaker3_Per/P3-12-Per.wav,Speaker3,گوینده۳,0,7,7,51,,,,,65.85470504099976,,,,,,,,,,,,,,,,,,,,,,,,,,,,,,,,,,,,,,,,,,,,,47.53835954100032,0.0,False,47.53853929100114,708454,001,2024-07-03_14h09.26.400,5-all in one,2024.1.4,None,2024-07-03 14h09.31.280814 +0900,
Images/Speaker1.jpg,Images/Speaker2.jpg,Images/Speaker3.jpg,Images/Speaker4.jpg,Audio/Speaker1_Per/P1-4-Per.wav,Speaker1,گوینده ۱,0,8,8,13,,,,,65.85470504099976,,,,,,,,,,,,,,,,,,,,,,,,,,,,,,,,,,,,,,,,,,,,,47.55447229099991,0.0,False,47.55464162499993,708454,001,2024-07-03_14h09.26.400,5-all in one,2024.1.4,None,2024-07-03 14h09.31.280814 +0900,
Images/Speaker1.jpg,Images/Speaker2.jpg,Images/Speaker3.jpg,Images/Speaker4.jpg,Audio/Speaker3_Per/P3-14-Per.wav,Speaker3,گوینده۳,0,9,9,53,,,,,65.85470504099976,,,,,,,,,,,,,,,,,,,,,,,,,,,,,,,,,,,,,,,,,,,,,47.57042312500016,0.0,False,47.57059391599978,708454,001,2024-07-03_14h09.26.400,5-all in one,2024.1.4,None,2024-07-03 14h09.31.280814 +0900,
Images/Speaker1.jpg,Images/Speaker2.jpg,Images/Speaker3.jpg,Images/Speaker4.jpg,Audio/Speaker1_Per/P1-16-Per.wav,Speaker1,گوینده ۱,0,10,10,15,,,,,65.85470504099976,,,,,,,,,,,,,,,,,,,,,,,,,,,,,,,,,,,,,,,,,,,,,47.586348415999964,0.0,False,47.58652583299954,708454,001,2024-07-03_14h09.26.400,5-all in one,2024.1.4,None,2024-07-03 14h09.31.280814 +0900,
Images/Speaker1.jpg,Images/Speaker2.jpg,Images/Speaker3.jpg,Images/Speaker4.jpg,Audio/Speaker2_Per/P2-15-Per.wav,Speaker2,گوینده۲,0,11,11,34,,,,,65.85470504099976,,,,,,,,,,,,,,,,,,,,,,,,,,,,,,,,,,,,,,,,,,,,,47.602558291000605,0.0,False,47.60279954100042,708454,001,2024-07-03_14h09.26.400,5-all in one,2024.1.4,None,2024-07-03 14h09.31.280814 +0900,
Images/Speaker1.jpg,Images/Speaker2.jpg,Images/Speaker3.jpg,Images/Speaker4.jpg,Audio/Speaker3_Per/P3-17-Per.wav,Speaker3,گوینده۳,0,12,12,56,,,,,65.85470504099976,,,,,,,,,,,,,,,,,,,,,,,,,,,,,,,,,,,,,,,,,,,,,47.61860183300087,0.0,False,47.61884479100081,708454,001,2024-07-03_14h09.26.400,5-all in one,2024.1.4,None,2024-07-03 14h09.31.280814 +0900,
Images/Speaker1.jpg,Images/Speaker2.jpg,Images/Speaker3.jpg,Images/Speaker4.jpg,Audio/Speaker2_Per/P2-20-Per.wav,Speaker2,گوینده۲,0,13,13,39,,,,,65.85470504099976,,,,,,,,,,,,,,,,,,,,,,,,,,,,,,,,,,,,,,,,,,,,,47.63449845800096,0.0,False,47.63471370800107,708454,001,2024-07-03_14h09.26.400,5-all in one,2024.1.4,None,2024-07-03 14h09.31.280814 +0900,
Images/Speaker1.jpg,Images/Speaker2.jpg,Images/Speaker3.jpg,Images/Speaker4.jpg,Audio/Speaker1_Per/P1-7-Per.wav,Speaker1,گوینده ۱,0,14,14,6,,,,,65.85470504099976,,,,,,,,,,,,,,,,,,,,,,,,,,,,,,,,,,,,,,,,,,,,,47.65044495800066,0.0,False,47.65061774999958,708454,001,2024-07-03_14h09.26.400,5-all in one,2024.1.4,None,2024-07-03 14h09.31.280814 +0900,
Images/Speaker1.jpg,Images/Speaker2.jpg,Images/Speaker3.jpg,Images/Speaker4.jpg,Audio/Speaker3_Per/P3-6-Per.wav,Speaker3,گوینده۳,0,15,15,45,,,,,65.85470504099976,,,,,,,,,,,,,,,,,,,,,,,,,,,,,,,,,,,,,,,,,,,,,47.66666616600014,0.0,False,47.66685183300069,708454,001,2024-07-03_14h09.26.400,5-all in one,2024.1.4,None,2024-07-03 14h09.31.280814 +0900,
Images/Speaker1.jpg,Images/Speaker2.jpg,Images/Speaker3.jpg,Images/Speaker4.jpg,Audio/Speaker3_Per/P3-18-Per.wav,Speaker3,گوینده۳,0,16,16,57,,,,,65.85470504099976,,,,,,,,,,,,,,,,,,,,,,,,,,,,,,,,,,,,,,,,,,,,,47.68281454099997,0.0,False,47.68300720800107,708454,001,2024-07-03_14h09.26.400,5-all in one,2024.1.4,None,2024-07-03 14h09.31.280814 +0900,
Images/Speaker1.jpg,Images/Speaker2.jpg,Images/Speaker3.jpg,Images/Speaker4.jpg,Audio/Speaker2_Per/P2-10-Per.wav,Speaker2,گوینده۲,0,17,17,29,,,,,65.85470504099976,,,,,,,,,,,,,,,,,,,,,,,,,,,,,,,,,,,,,,,,,,,,,47.699140000000625,0.0,False,47.69933354100067,708454,001,2024-07-03_14h09.26.400,5-all in one,2024.1.4,None,2024-07-03 14h09.31.280814 +0900,
Images/Speaker1.jpg,Images/Speaker2.jpg,Images/Speaker3.jpg,Images/Speaker4.jpg,Audio/Speaker3_Per/P3-1-Per.wav,Speaker3,گوینده۳,0,18,18,40,,,,,65.85470504099976,,,,,,,,,,,,,,,,,,,,,,,,,,,,,,,,,,,,,,,,,,,,,47.71507879099954,0.0,False,47.71531250000044,708454,001,2024-07-03_14h09.26.400,5-all in one,2024.1.4,None,2024-07-03 14h09.31.280814 +0900,
Images/Speaker1.jpg,Images/Speaker2.jpg,Images/Speaker3.jpg,Images/Speaker4.jpg,Audio/Speaker1_Per/P1-12-Per.wav,Speaker1,گوینده ۱,0,19,19,11,,,,,65.85470504099976,,,,,,,,,,,,,,,,,,,,,,,,,,,,,,,,,,,,,,,,,,,,,47.73150916600025,0.0,False,47.73170308299996,708454,001,2024-07-03_14h09.26.400,5-all in one,2024.1.4,None,2024-07-03 14h09.31.280814 +0900,
Images/Speaker1.jpg,Images/Speaker2.jpg,Images/Speaker3.jpg,Images/Speaker4.jpg,Audio/Speaker3_Per/P3-7-Per.wav,Speaker3,گوینده۳,0,20,20,46,,,,,65.85470504099976,,,,,,,,,,,,,,,,,,,,,,,,,,,,,,,,,,,,,,,,,,,,,47.74767824999981,0.0,False,47.747860790999766,708454,001,2024-07-03_14h09.26.400,5-all in one,2024.1.4,None,2024-07-03 14h09.31.280814 +0900,
Images/Speaker1.jpg,Images/Speaker2.jpg,Images/Speaker3.jpg,Images/Speaker4.jpg,Audio/Speaker2_Per/P2-12-Per.wav,Speaker2,گوینده۲,0,21,21,31,,,,,65.85470504099976,,,,,,,,,,,,,,,,,,,,,,,,,,,,,,,,,,,,,,,,,,,,,47.76372625000113,0.0,False,47.763910083000155,708454,001,2024-07-03_14h09.26.400,5-all in one,2024.1.4,None,2024-07-03 14h09.31.280814 +0900,
Images/Speaker1.jpg,Images/Speaker2.jpg,Images/Speaker3.jpg,Images/Speaker4.jpg,Audio/Speaker4_Per/P4-6-Per.wav,Speaker4,گوینده۴,0,22,22,65,,,,,65.85470504099976,,,,,,,,,,,,,,,,,,,,,,,,,,,,,,,,,,,,,,,,,,,,,47.779665041000044,0.0,False,47.779863875000956,708454,001,2024-07-03_14h09.26.400,5-all in one,2024.1.4,None,2024-07-03 14h09.31.280814 +0900,
Images/Speaker1.jpg,Images/Speaker2.jpg,Images/Speaker3.jpg,Images/Speaker4.jpg,Audio/Speaker3_Per/P3-2-Per.wav,Speaker3,گوینده۳,0,23,23,41,,,,,65.85470504099976,,,,,,,,,,,,,,,,,,,,,,,,,,,,,,,,,,,,,,,,,,,,,47.79624579099982,0.0,False,47.79646862499976,708454,001,2024-07-03_14h09.26.400,5-all in one,2024.1.4,None,2024-07-03 14h09.31.280814 +0900,
Images/Speaker1.jpg,Images/Speaker2.jpg,Images/Speaker3.jpg,Images/Speaker4.jpg,Audio/Speaker3_Per/P3-9-Per.wav,Speaker3,گوینده۳,0,24,24,48,,,,,65.85470504099976,,,,,,,,,,,,,,,,,,,,,,,,,,,,,,,,,,,,,,,,,,,,,47.81216120800127,0.0,False,47.812349333000384,708454,001,2024-07-03_14h09.26.400,5-all in one,2024.1.4,None,2024-07-03 14h09.31.280814 +0900,
Images/Speaker1.jpg,Images/Speaker2.jpg,Images/Speaker3.jpg,Images/Speaker4.jpg,Audio/Speaker2_Per/P2-14-Per.wav,Speaker2,گوینده۲,0,25,25,33,,,,,65.85470504099976,,,,,,,,,,,,,,,,,,,,,,,,,,,,,,,,,,,,,,,,,,,,,47.82806595799957,0.0,False,47.828306375000466,708454,001,2024-07-03_14h09.26.400,5-all in one,2024.1.4,None,2024-07-03 14h09.31.280814 +0900,
Images/Speaker1.jpg,Images/Speaker2.jpg,Images/Speaker3.jpg,Images/Speaker4.jpg,Audio/Speaker2_Per/P2-7-Per.wav,Speaker2,گوینده۲,0,26,26,26,,,,,65.85470504099976,,,,,,,,,,,,,,,,,,,,,,,,,,,,,,,,,,,,,,,,,,,,,47.843980999999985,0.0,False,47.84419562500079,708454,001,2024-07-03_14h09.26.400,5-all in one,2024.1.4,None,2024-07-03 14h09.31.280814 +0900,
Images/Speaker1.jpg,Images/Speaker2.jpg,Images/Speaker3.jpg,Images/Speaker4.jpg,Audio/Speaker1_Per/P1-19-Per.wav,Speaker1,گوینده ۱,0,27,27,18,,,,,65.85470504099976,,,,,,,,,,,,,,,,,,,,,,,,,,,,,,,,,,,,,,,,,,,,,47.86070812500111,0.0,False,47.86091829100042,708454,001,2024-07-03_14h09.26.400,5-all in one,2024.1.4,None,2024-07-03 14h09.31.280814 +0900,
Images/Speaker1.jpg,Images/Speaker2.jpg,Images/Speaker3.jpg,Images/Speaker4.jpg,Audio/Speaker2_Per/P2-3-Per.wav,Speaker2,گوینده۲,0,28,28,22,,,,,65.85470504099976,,,,,,,,,,,,,,,,,,,,,,,,,,,,,,,,,,,,,,,,,,,,,47.876604041000974,0.0,False,47.87678799999958,708454,001,2024-07-03_14h09.26.400,5-all in one,2024.1.4,None,2024-07-03 14h09.31.280814 +0900,
Images/Speaker1.jpg,Images/Speaker2.jpg,Images/Speaker3.jpg,Images/Speaker4.jpg,Audio/Speaker1_Per/P1-5-Per.wav,Speaker1,گوینده ۱,0,29,29,4,,,,,65.85470504099976,,,,,,,,,,,,,,,,,,,,,,,,,,,,,,,,,,,,,,,,,,,,,47.89254625000103,0.0,False,47.89274762500099,708454,001,2024-07-03_14h09.26.400,5-all in one,2024.1.4,None,2024-07-03 14h09.31.280814 +0900,
Images/Speaker1.jpg,Images/Speaker2.jpg,Images/Speaker3.jpg,Images/Speaker4.jpg,Audio/Speaker4_Per/P4-5-Per.wav,Speaker4,گوینده۴,0,30,30,64,,,,,65.85470504099976,,,,,,,,,,,,,,,,,,,,,,,,,,,,,,,,,,,,,,,,,,,,,47.90866674999961,0.0,False,47.9088595000012,708454,001,2024-07-03_14h09.26.400,5-all in one,2024.1.4,None,2024-07-03 14h09.31.280814 +0900,
Images/Speaker1.jpg,Images/Speaker2.jpg,Images/Speaker3.jpg,Images/Speaker4.jpg,Audio/Speaker3_Per/P3-10-Per.wav,Speaker3,گوینده۳,0,31,31,49,,,,,65.85470504099976,,,,,,,,,,,,,,,,,,,,,,,,,,,,,,,,,,,,,,,,,,,,,47.925166750001154,0.0,False,47.92533112500132,708454,001,2024-07-03_14h09.26.400,5-all in one,2024.1.4,None,2024-07-03 14h09.31.280814 +0900,
Images/Speaker1.jpg,Images/Speaker2.jpg,Images/Speaker3.jpg,Images/Speaker4.jpg,Audio/Speaker2_Per/P2-6-Per.wav,Speaker2,گوینده۲,0,32,32,25,,,,,65.85470504099976,,,,,,,,,,,,,,,,,,,,,,,,,,,,,,,,,,,,,,,,,,,,,47.9413778750004,0.0,False,47.9415456250008,708454,001,2024-07-03_14h09.26.400,5-all in one,2024.1.4,None,2024-07-03 14h09.31.280814 +0900,
Images/Speaker1.jpg,Images/Speaker2.jpg,Images/Speaker3.jpg,Images/Speaker4.jpg,Audio/Speaker1_Per/P1-9-Per.wav,Speaker1,گوینده ۱,0,33,33,8,,,,,65.85470504099976,,,,,,,,,,,,,,,,,,,,,,,,,,,,,,,,,,,,,,,,,,,,,47.95735112500006,0.0,False,47.95754083300017,708454,001,2024-07-03_14h09.26.400,5-all in one,2024.1.4,None,2024-07-03 14h09.31.280814 +0900,
Images/Speaker1.jpg,Images/Speaker2.jpg,Images/Speaker3.jpg,Images/Speaker4.jpg,Audio/Speaker2_Per/P2-18-Per.wav,Speaker2,گوینده۲,0,34,34,37,,,,,65.85470504099976,,,,,,,,,,,,,,,,,,,,,,,,,,,,,,,,,,,,,,,,,,,,,47.97328974999982,0.0,False,47.973485915999845,708454,001,2024-07-03_14h09.26.400,5-all in one,2024.1.4,None,2024-07-03 14h09.31.280814 +0900,
Images/Speaker1.jpg,Images/Speaker2.jpg,Images/Speaker3.jpg,Images/Speaker4.jpg,Audio/Speaker1_Per/P1-8-Per.wav,Speaker1,گوینده ۱,0,35,35,7,,,,,65.85470504099976,,,,,,,,,,,,,,,,,,,,,,,,,,,,,,,,,,,,,,,,,,,,,47.989690374999554,0.0,False,47.98987983299958,708454,001,2024-07-03_14h09.26.400,5-all in one,2024.1.4,None,2024-07-03 14h09.31.280814 +0900,
Images/Speaker1.jpg,Images/Speaker2.jpg,Images/Speaker3.jpg,Images/Speaker4.jpg,Audio/Speaker2_Per/P2-17-Per.wav,Speaker2,گوینده۲,0,36,36,36,,,,,65.85470504099976,,,,,,,,,,,,,,,,,,,,,,,,,,,,,,,,,,,,,,,,,,,,,48.00592675000007,0.0,False,48.00611208299961,708454,001,2024-07-03_14h09.26.400,5-all in one,2024.1.4,None,2024-07-03 14h09.31.280814 +0900,
Images/Speaker1.jpg,Images/Speaker2.jpg,Images/Speaker3.jpg,Images/Speaker4.jpg,Audio/Speaker4_Per/P4-14-Per.wav,Speaker4,گوینده۴,0,37,37,73,,,,,65.85470504099976,,,,,,,,,,,,,,,,,,,,,,,,,,,,,,,,,,,,,,,,,,,,,48.02194054100073,0.0,False,48.02210216599997,708454,001,2024-07-03_14h09.26.400,5-all in one,2024.1.4,None,2024-07-03 14h09.31.280814 +0900,
Images/Speaker1.jpg,Images/Speaker2.jpg,Images/Speaker3.jpg,Images/Speaker4.jpg,Audio/Speaker4_Per/P4-18-Per.wav,Speaker4,گوینده۴,0,38,38,77,,,,,65.85470504099976,,,,,,,,,,,,,,,,,,,,,,,,,,,,,,,,,,,,,,,,,,,,,48.037931041000775,0.0,False,48.03812266600107,708454,001,2024-07-03_14h09.26.400,5-all in one,2024.1.4,None,2024-07-03 14h09.31.280814 +0900,
Images/Speaker1.jpg,Images/Speaker2.jpg,Images/Speaker3.jpg,Images/Speaker4.jpg,Audio/Speaker4_Per/P4-3-Per.wav,Speaker4,گوینده۴,0,39,39,62,,,,,65.85470504099976,,,,,,,,,,,,,,,,,,,,,,,,,,,,,,,,,,,,,,,,,,,,,48.054280083000776,0.0,False,48.05450712499987,708454,001,2024-07-03_14h09.26.400,5-all in one,2024.1.4,None,2024-07-03 14h09.31.280814 +0900,
Images/Speaker1.jpg,Images/Speaker2.jpg,Images/Speaker3.jpg,Images/Speaker4.jpg,Audio/Speaker1_Per/P1-1-Per.wav,Speaker1,گوینده ۱,0,40,40,0,,,,,65.85470504099976,,,,,,,,,,,,,,,,,,,,,,,,,,,,,,,,,,,,,,,,,,,,,48.07036262499969,0.0,False,48.07054295800117,708454,001,2024-07-03_14h09.26.400,5-all in one,2024.1.4,None,2024-07-03 14h09.31.280814 +0900,
Images/Speaker1.jpg,Images/Speaker2.jpg,Images/Speaker3.jpg,Images/Speaker4.jpg,Audio/Speaker4_Per/P4-13-Per.wav,Speaker4,گوینده۴,0,41,41,72,,,,,65.85470504099976,,,,,,,,,,,,,,,,,,,,,,,,,,,,,,,,,,,,,,,,,,,,,48.0863556660006,0.0,False,48.086558582999714,708454,001,2024-07-03_14h09.26.400,5-all in one,2024.1.4,None,2024-07-03 14h09.31.280814 +0900,
Images/Speaker1.jpg,Images/Speaker2.jpg,Images/Speaker3.jpg,Images/Speaker4.jpg,Audio/Speaker3_Per/P3-11-Per.wav,Speaker3,گوینده۳,0,42,42,50,,,,,65.85470504099976,,,,,,,,,,,,,,,,,,,,,,,,,,,,,,,,,,,,,,,,,,,,,48.10240212499957,0.0,False,48.1025760829998,708454,001,2024-07-03_14h09.26.400,5-all in one,2024.1.4,None,2024-07-03 14h09.31.280814 +0900,
Images/Speaker1.jpg,Images/Speaker2.jpg,Images/Speaker3.jpg,Images/Speaker4.jpg,Audio/Speaker2_Per/P2-2-Per.wav,Speaker2,گوینده۲,0,43,43,21,,,,,65.85470504099976,,,,,,,,,,,,,,,,,,,,,,,,,,,,,,,,,,,,,,,,,,,,,48.11873087499953,0.0,False,48.118948625000485,708454,001,2024-07-03_14h09.26.400,5-all in one,2024.1.4,None,2024-07-03 14h09.31.280814 +0900,
Images/Speaker1.jpg,Images/Speaker2.jpg,Images/Speaker3.jpg,Images/Speaker4.jpg,Audio/Speaker4_Per/P4-12-Per.wav,Speaker4,گوینده۴,0,44,44,71,,,,,65.85470504099976,,,,,,,,,,,,,,,,,,,,,,,,,,,,,,,,,,,,,,,,,,,,,48.13485383300031,0.0,False,48.135029166000095,708454,001,2024-07-03_14h09.26.400,5-all in one,2024.1.4,None,2024-07-03 14h09.31.280814 +0900,
Images/Speaker1.jpg,Images/Speaker2.jpg,Images/Speaker3.jpg,Images/Speaker4.jpg,Audio/Speaker4_Per/P4-11-Per.wav,Speaker4,گوینده۴,0,45,45,70,,,,,65.85470504099976,,,,,,,,,,,,,,,,,,,,,,,,,,,,,,,,,,,,,,,,,,,,,48.15082900000016,0.0,False,48.151000375000876,708454,001,2024-07-03_14h09.26.400,5-all in one,2024.1.4,None,2024-07-03 14h09.31.280814 +0900,
Images/Speaker1.jpg,Images/Speaker2.jpg,Images/Speaker3.jpg,Images/Speaker4.jpg,Audio/Speaker3_Per/P3-4-Per.wav,Speaker3,گوینده۳,0,46,46,43,,,,,65.85470504099976,,,,,,,,,,,,,,,,,,,,,,,,,,,,,,,,,,,,,,,,,,,,,48.166787166001086,0.0,False,48.16699191600128,708454,001,2024-07-03_14h09.26.400,5-all in one,2024.1.4,None,2024-07-03 14h09.31.280814 +0900,
Images/Speaker1.jpg,Images/Speaker2.jpg,Images/Speaker3.jpg,Images/Speaker4.jpg,Audio/Speaker3_Per/P3-8-Per.wav,Speaker3,گوینده۳,0,47,47,47,,,,,65.85470504099976,,,,,,,,,,,,,,,,,,,,,,,,,,,,,,,,,,,,,,,,,,,,,48.183123708000494,0.0,False,48.1833283750002,708454,001,2024-07-03_14h09.26.400,5-all in one,2024.1.4,None,2024-07-03 14h09.31.280814 +0900,
Images/Speaker1.jpg,Images/Speaker2.jpg,Images/Speaker3.jpg,Images/Speaker4.jpg,Audio/Speaker1_Per/P1-20-Per.wav,Speaker1,گوینده ۱,0,48,48,19,,,,,65.85470504099976,,,,,,,,,,,,,,,,,,,,,,,,,,,,,,,,,,,,,,,,,,,,,48.199139915999694,0.0,False,48.19935587500004,708454,001,2024-07-03_14h09.26.400,5-all in one,2024.1.4,None,2024-07-03 14h09.31.280814 +0900,
Images/Speaker1.jpg,Images/Speaker2.jpg,Images/Speaker3.jpg,Images/Speaker4.jpg,Audio/Speaker1_Per/P1-13-Per.wav,Speaker1,گوینده ۱,0,49,49,12,,,,,65.85470504099976,,,,,,,,,,,,,,,,,,,,,,,,,,,,,,,,,,,,,,,,,,,,,48.215135041000394,0.0,False,48.215332750000016,708454,001,2024-07-03_14h09.26.400,5-all in one,2024.1.4,None,2024-07-03 14h09.31.280814 +0900,
Images/Speaker1.jpg,Images/Speaker2.jpg,Images/Speaker3.jpg,Images/Speaker4.jpg,Audio/Speaker3_Per/P3-5-Per.wav,Speaker3,گوینده۳,0,50,50,44,,,,,65.85470504099976,,,,,,,,,,,,,,,,,,,,,,,,,,,,,,,,,,,,,,,,,,,,,48.231127041000946,0.0,False,48.23133245800091,708454,001,2024-07-03_14h09.26.400,5-all in one,2024.1.4,None,2024-07-03 14h09.31.280814 +0900,
Images/Speaker1.jpg,Images/Speaker2.jpg,Images/Speaker3.jpg,Images/Speaker4.jpg,Audio/Speaker4_Per/P4-4-Per.wav,Speaker4,گوینده۴,0,51,51,63,,,,,65.85470504099976,,,,,,,,,,,,,,,,,,,,,,,,,,,,,,,,,,,,,,,,,,,,,48.24756954100121,0.0,False,48.24779204100014,708454,001,2024-07-03_14h09.26.400,5-all in one,2024.1.4,None,2024-07-03 14h09.31.280814 +0900,
Images/Speaker1.jpg,Images/Speaker2.jpg,Images/Speaker3.jpg,Images/Speaker4.jpg,Audio/Speaker2_Per/P2-13-Per.wav,Speaker2,گوینده۲,0,52,52,32,,,,,65.85470504099976,,,,,,,,,,,,,,,,,,,,,,,,,,,,,,,,,,,,,,,,,,,,,48.26367645800019,0.0,False,48.26386625000123,708454,001,2024-07-03_14h09.26.400,5-all in one,2024.1.4,None,2024-07-03 14h09.31.280814 +0900,
Images/Speaker1.jpg,Images/Speaker2.jpg,Images/Speaker3.jpg,Images/Speaker4.jpg,Audio/Speaker3_Per/P3-16-Per.wav,Speaker3,گوینده۳,0,53,53,55,,,,,65.85470504099976,,,,,,,,,,,,,,,,,,,,,,,,,,,,,,,,,,,,,,,,,,,,,48.279845750001186,0.0,False,48.28003616600108,708454,001,2024-07-03_14h09.26.400,5-all in one,2024.1.4,None,2024-07-03 14h09.31.280814 +0900,
Images/Speaker1.jpg,Images/Speaker2.jpg,Images/Speaker3.jpg,Images/Speaker4.jpg,Audio/Speaker1_Per/P1-6-Per.wav,Speaker1,گوینده ۱,0,54,54,5,,,,,65.85470504099976,,,,,,,,,,,,,,,,,,,,,,,,,,,,,,,,,,,,,,,,,,,,,48.29573254100069,0.0,False,48.295965458000865,708454,001,2024-07-03_14h09.26.400,5-all in one,2024.1.4,None,2024-07-03 14h09.31.280814 +0900,
Images/Speaker1.jpg,Images/Speaker2.jpg,Images/Speaker3.jpg,Images/Speaker4.jpg,Audio/Speaker4_Per/P4-17-Per.wav,Speaker4,گوینده۴,0,55,55,76,,,,,65.85470504099976,,,,,,,,,,,,,,,,,,,,,,,,,,,,,,,,,,,,,,,,,,,,,48.3121704160003,0.0,False,48.31236016600087,708454,001,2024-07-03_14h09.26.400,5-all in one,2024.1.4,None,2024-07-03 14h09.31.280814 +0900,
Images/Speaker1.jpg,Images/Speaker2.jpg,Images/Speaker3.jpg,Images/Speaker4.jpg,Audio/Speaker4_Per/P4-8-Per.wav,Speaker4,گوینده۴,0,56,56,67,,,,,65.85470504099976,,,,,,,,,,,,,,,,,,,,,,,,,,,,,,,,,,,,,,,,,,,,,48.3282332079998,0.0,False,48.328428124999846,708454,001,2024-07-03_14h09.26.400,5-all in one,2024.1.4,None,2024-07-03 14h09.31.280814 +0900,
Images/Speaker1.jpg,Images/Speaker2.jpg,Images/Speaker3.jpg,Images/Speaker4.jpg,Audio/Speaker4_Per/P4-2-Per.wav,Speaker4,گوینده۴,0,57,57,61,,,,,65.85470504099976,,,,,,,,,,,,,,,,,,,,,,,,,,,,,,,,,,,,,,,,,,,,,48.34426166600133,0.0,False,48.34445145800055,708454,001,2024-07-03_14h09.26.400,5-all in one,2024.1.4,None,2024-07-03 14h09.31.280814 +0900,
Images/Speaker1.jpg,Images/Speaker2.jpg,Images/Speaker3.jpg,Images/Speaker4.jpg,Audio/Speaker3_Per/P3-3-Per.wav,Speaker3,گوینده۳,0,58,58,42,,,,,65.85470504099976,,,,,,,,,,,,,,,,,,,,,,,,,,,,,,,,,,,,,,,,,,,,,48.36011616600081,0.0,False,48.36032420800075,708454,001,2024-07-03_14h09.26.400,5-all in one,2024.1.4,None,2024-07-03 14h09.31.280814 +0900,
Images/Speaker1.jpg,Images/Speaker2.jpg,Images/Speaker3.jpg,Images/Speaker4.jpg,Audio/Speaker3_Per/P3-13-Per.wav,Speaker3,گوینده۳,0,59,59,52,,,,,65.85470504099976,,,,,,,,,,,,,,,,,,,,,,,,,,,,,,,,,,,,,,,,,,,,,48.376597458000106,0.0,False,48.37677670800076,708454,001,2024-07-03_14h09.26.400,5-all in one,2024.1.4,None,2024-07-03 14h09.31.280814 +0900,
Images/Speaker1.jpg,Images/Speaker2.jpg,Images/Speaker3.jpg,Images/Speaker4.jpg,Audio/Speaker2_Per/P2-1-Per.wav,Speaker2,گوینده۲,0,60,60,20,,,,,65.85470504099976,,,,,,,,,,,,,,,,,,,,,,,,,,,,,,,,,,,,,,,,,,,,,48.392729541001245,0.0,False,48.39293608300068,708454,001,2024-07-03_14h09.26.400,5-all in one,2024.1.4,None,2024-07-03 14h09.31.280814 +0900,
Images/Speaker1.jpg,Images/Speaker2.jpg,Images/Speaker3.jpg,Images/Speaker4.jpg,Audio/Speaker2_Per/P2-4-Per.wav,Speaker2,گوینده۲,0,61,61,23,,,,,65.85470504099976,,,,,,,,,,,,,,,,,,,,,,,,,,,,,,,,,,,,,,,,,,,,,48.40869145800025,0.0,False,48.408882166000694,708454,001,2024-07-03_14h09.26.400,5-all in one,2024.1.4,None,2024-07-03 14h09.31.280814 +0900,
Images/Speaker1.jpg,Images/Speaker2.jpg,Images/Speaker3.jpg,Images/Speaker4.jpg,Audio/Speaker1_Per/P1-2-Per.wav,Speaker1,گوینده ۱,0,62,62,1,,,,,65.85470504099976,,,,,,,,,,,,,,,,,,,,,,,,,,,,,,,,,,,,,,,,,,,,,48.42471270799979,0.0,False,48.424908375000086,708454,001,2024-07-03_14h09.26.400,5-all in one,2024.1.4,None,2024-07-03 14h09.31.280814 +0900,
Images/Speaker1.jpg,Images/Speaker2.jpg,Images/Speaker3.jpg,Images/Speaker4.jpg,Audio/Speaker4_Per/P4-20-Per.wav,Speaker4,گوینده۴,0,63,63,79,,,,,65.85470504099976,,,,,,,,,,,,,,,,,,,,,,,,,,,,,,,,,,,,,,,,,,,,,48.490960208000615,0.0,False,48.49124416599989,708454,001,2024-07-03_14h09.26.400,5-all in one,2024.1.4,None,2024-07-03 14h09.31.280814 +0900,
Images/Speaker1.jpg,Images/Speaker2.jpg,Images/Speaker3.jpg,Images/Speaker4.jpg,Audio/Speaker2_Per/P2-11-Per.wav,Speaker2,گوینده۲,0,64,64,30,,,,,65.85470504099976,,,,,,,,,,,,,,,,,,,,,,,,,,,,,,,,,,,,,,,,,,,,,48.50731654100127,0.0,False,48.50750875000085,708454,001,2024-07-03_14h09.26.400,5-all in one,2024.1.4,None,2024-07-03 14h09.31.280814 +0900,
Images/Speaker1.jpg,Images/Speaker2.jpg,Images/Speaker3.jpg,Images/Speaker4.jpg,Audio/Speaker2_Per/P2-19-Per.wav,Speaker2,گوینده۲,0,65,65,38,,,,,65.85470504099976,,,,,,,,,,,,,,,,,,,,,,,,,,,,,,,,,,,,,,,,,,,,,48.52358025000103,0.0,False,48.52377549999983,708454,001,2024-07-03_14h09.26.400,5-all in one,2024.1.4,None,2024-07-03 14h09.31.280814 +0900,
Images/Speaker1.jpg,Images/Speaker2.jpg,Images/Speaker3.jpg,Images/Speaker4.jpg,Audio/Speaker4_Per/P4-19-Per.wav,Speaker4,گوینده۴,0,66,66,78,,,,,65.85470504099976,,,,,,,,,,,,,,,,,,,,,,,,,,,,,,,,,,,,,,,,,,,,,48.54018758300117,0.0,False,48.540361166000366,708454,001,2024-07-03_14h09.26.400,5-all in one,2024.1.4,None,2024-07-03 14h09.31.280814 +0900,
Images/Speaker1.jpg,Images/Speaker2.jpg,Images/Speaker3.jpg,Images/Speaker4.jpg,Audio/Speaker4_Per/P4-16-Per.wav,Speaker4,گوینده۴,0,67,67,75,,,,,65.85470504099976,,,,,,,,,,,,,,,,,,,,,,,,,,,,,,,,,,,,,,,,,,,,,48.55623374999959,0.0,False,48.556394125000224,708454,001,2024-07-03_14h09.26.400,5-all in one,2024.1.4,None,2024-07-03 14h09.31.280814 +0900,
Images/Speaker1.jpg,Images/Speaker2.jpg,Images/Speaker3.jpg,Images/Speaker4.jpg,Audio/Speaker4_Per/P4-10-Per.wav,Speaker4,گوینده۴,0,68,68,69,,,,,65.85470504099976,,,,,,,,,,,,,,,,,,,,,,,,,,,,,,,,,,,,,,,,,,,,,48.572379125000225,0.0,False,48.57259283300118,708454,001,2024-07-03_14h09.26.400,5-all in one,2024.1.4,None,2024-07-03 14h09.31.280814 +0900,
Images/Speaker1.jpg,Images/Speaker2.jpg,Images/Speaker3.jpg,Images/Speaker4.jpg,Audio/Speaker2_Per/P2-9-Per.wav,Speaker2,گوینده۲,0,69,69,28,,,,,65.85470504099976,,,,,,,,,,,,,,,,,,,,,,,,,,,,,,,,,,,,,,,,,,,,,48.5882459580007,0.0,False,48.58846354100024,708454,001,2024-07-03_14h09.26.400,5-all in one,2024.1.4,None,2024-07-03 14h09.31.280814 +0900,
Images/Speaker1.jpg,Images/Speaker2.jpg,Images/Speaker3.jpg,Images/Speaker4.jpg,Audio/Speaker2_Per/P2-8-Per.wav,Speaker2,گوینده۲,0,70,70,27,,,,,65.85470504099976,,,,,,,,,,,,,,,,,,,,,,,,,,,,,,,,,,,,,,,,,,,,,48.60481337500096,0.0,False,48.60498745800032,708454,001,2024-07-03_14h09.26.400,5-all in one,2024.1.4,None,2024-07-03 14h09.31.280814 +0900,
Images/Speaker1.jpg,Images/Speaker2.jpg,Images/Speaker3.jpg,Images/Speaker4.jpg,Audio/Speaker1_Per/P1-10-Per.wav,Speaker1,گوینده ۱,0,71,71,9,,,,,65.85470504099976,,,,,,,,,,,,,,,,,,,,,,,,,,,,,,,,,,,,,,,,,,,,,48.62075816600009,0.0,False,48.620927416000995,708454,001,2024-07-03_14h09.26.400,5-all in one,2024.1.4,None,2024-07-03 14h09.31.280814 +0900,
Images/Speaker1.jpg,Images/Speaker2.jpg,Images/Speaker3.jpg,Images/Speaker4.jpg,Audio/Speaker1_Per/P1-18-Per.wav,Speaker1,گوینده ۱,0,72,72,17,,,,,65.85470504099976,,,,,,,,,,,,,,,,,,,,,,,,,,,,,,,,,,,,,,,,,,,,,48.63669433300129,0.0,False,48.63686304099974,708454,001,2024-07-03_14h09.26.400,5-all in one,2024.1.4,None,2024-07-03 14h09.31.280814 +0900,
Images/Speaker1.jpg,Images/Speaker2.jpg,Images/Speaker3.jpg,Images/Speaker4.jpg,Audio/Speaker3_Per/P3-15-Per.wav,Speaker3,گوینده۳,0,73,73,54,,,,,65.85470504099976,,,,,,,,,,,,,,,,,,,,,,,,,,,,,,,,,,,,,,,,,,,,,48.65264195800046,0.0,False,48.65282795799976,708454,001,2024-07-03_14h09.26.400,5-all in one,2024.1.4,None,2024-07-03 14h09.31.280814 +0900,
Images/Speaker1.jpg,Images/Speaker2.jpg,Images/Speaker3.jpg,Images/Speaker4.jpg,Audio/Speaker1_Per/P1-3-Per.wav,Speaker1,گوینده ۱,0,74,74,2,,,,,65.85470504099976,,,,,,,,,,,,,,,,,,,,,,,,,,,,,,,,,,,,,,,,,,,,,48.66911849999997,0.0,False,48.66930120800134,708454,001,2024-07-03_14h09.26.400,5-all in one,2024.1.4,None,2024-07-03 14h09.31.280814 +0900,
Images/Speaker1.jpg,Images/Speaker2.jpg,Images/Speaker3.jpg,Images/Speaker4.jpg,Audio/Speaker2_Per/P2-16-Per.wav,Speaker2,گوینده۲,0,75,75,35,,,,,65.85470504099976,,,,,,,,,,,,,,,,,,,,,,,,,,,,,,,,,,,,,,,,,,,,,48.685071457999584,0.0,False,48.68525416600096,708454,001,2024-07-03_14h09.26.400,5-all in one,2024.1.4,None,2024-07-03 14h09.31.280814 +0900,
Images/Speaker1.jpg,Images/Speaker2.jpg,Images/Speaker3.jpg,Images/Speaker4.jpg,Audio/Speaker4_Per/P4-15-Per.wav,Speaker4,گوینده۴,0,76,76,74,,,,,65.85470504099976,,,,,,,,,,,,,,,,,,,,,,,,,,,,,,,,,,,,,,,,,,,,,48.700966708000124,0.0,False,48.701160374999745,708454,001,2024-07-03_14h09.26.400,5-all in one,2024.1.4,None,2024-07-03 14h09.31.280814 +0900,
Images/Speaker1.jpg,Images/Speaker2.jpg,Images/Speaker3.jpg,Images/Speaker4.jpg,Audio/Speaker2_Per/P2-5-Per.wav,Speaker2,گوینده۲,0,77,77,24,,,,,65.85470504099976,,,,,,,,,,,,,,,,,,,,,,,,,,,,,,,,,,,,,,,,,,,,,48.71679595800015,0.0,False,48.717006208000385,708454,001,2024-07-03_14h09.26.400,5-all in one,2024.1.4,None,2024-07-03 14h09.31.280814 +0900,
Images/Speaker1.jpg,Images/Speaker2.jpg,Images/Speaker3.jpg,Images/Speaker4.jpg,Audio/Speaker1_Per/P1-4-Per.wav,Speaker1,گوینده ۱,0,78,78,3,,,,,65.85470504099976,,,,,,,,,,,,,,,,,,,,,,,,,,,,,,,,,,,,,,,,,,,,,48.733542166000916,0.0,False,48.733705833001295,708454,001,2024-07-03_14h09.26.400,5-all in one,2024.1.4,None,2024-07-03 14h09.31.280814 +0900,
Images/Speaker1.jpg,Images/Speaker2.jpg,Images/Speaker3.jpg,Images/Speaker4.jpg,Audio/Speaker4_Per/P4-1-Per.wav,Speaker4,گوینده۴,0,79,79,60,,,,,65.85470504099976,,,,,,,,,,,,,,,,,,,,,,,,,,,,,,,,,,,,,,,,,,,,,48.74951866599986,0.0,False,48.74970041599954,708454,001,2024-07-03_14h09.26.400,5-all in one,2024.1.4,None,2024-07-03 14h09.31.280814 +0900,
Images/Speaker1.jpg,Images/Speaker2.jpg,Images/Speaker3.jpg,Images/Speaker4.jpg,Audio/Speaker3_Per/P3-18-Per.wav,Speaker3,گوینده۳,1,0,80,57,,,,,65.85470504099976,,,,,,,,,,,,,,,,,,,,,,,,,,,,,,,,,,,,,,,,,,,,,48.76546037499975,0.0,False,48.765666082999815,708454,001,2024-07-03_14h09.26.400,5-all in one,2024.1.4,None,2024-07-03 14h09.31.280814 +0900,
Images/Speaker1.jpg,Images/Speaker2.jpg,Images/Speaker3.jpg,Images/Speaker4.jpg,Audio/Speaker1_Per/P1-10-Per.wav,Speaker1,گوینده ۱,1,1,81,9,,,,,65.85470504099976,,,,,,,,,,,,,,,,,,,,,,,,,,,,,,,,,,,,,,,,,,,,,48.781382458000735,0.0,False,48.78156320800008,708454,001,2024-07-03_14h09.26.400,5-all in one,2024.1.4,None,2024-07-03 14h09.31.280814 +0900,
Images/Speaker1.jpg,Images/Speaker2.jpg,Images/Speaker3.jpg,Images/Speaker4.jpg,Audio/Speaker1_Per/P1-1-Per.wav,Speaker1,گوینده ۱,1,2,82,0,,,,,65.85470504099976,,,,,,,,,,,,,,,,,,,,,,,,,,,,,,,,,,,,,,,,,,,,,48.797904208000546,0.0,False,48.798096624999744,708454,001,2024-07-03_14h09.26.400,5-all in one,2024.1.4,None,2024-07-03 14h09.31.280814 +0900,
Images/Speaker1.jpg,Images/Speaker2.jpg,Images/Speaker3.jpg,Images/Speaker4.jpg,Audio/Speaker2_Per/P2-3-Per.wav,Speaker2,گوینده۲,1,3,83,22,,,,,65.85470504099976,,,,,,,,,,,,,,,,,,,,,,,,,,,,,,,,,,,,,,,,,,,,,48.81377312500081,0.0,False,48.813964250000936,708454,001,2024-07-03_14h09.26.400,5-all in one,2024.1.4,None,2024-07-03 14h09.31.280814 +0900,
Images/Speaker1.jpg,Images/Speaker2.jpg,Images/Speaker3.jpg,Images/Speaker4.jpg,Audio/Speaker1_Per/P1-4-Per.wav,Speaker1,گوینده ۱,1,4,84,3,,,,,65.85470504099976,,,,,,,,,,,,,,,,,,,,,,,,,,,,,,,,,,,,,,,,,,,,,48.82961016599984,0.0,False,48.829804708000665,708454,001,2024-07-03_14h09.26.400,5-all in one,2024.1.4,None,2024-07-03 14h09.31.280814 +0900,
Images/Speaker1.jpg,Images/Speaker2.jpg,Images/Speaker3.jpg,Images/Speaker4.jpg,Audio/Speaker1_Per/P1-4-Per.wav,Speaker1,گوینده ۱,1,5,85,13,,,,,65.85470504099976,,,,,,,,,,,,,,,,,,,,,,,,,,,,,,,,,,,,,,,,,,,,,48.845759416000874,0.0,False,48.84593716600102,708454,001,2024-07-03_14h09.26.400,5-all in one,2024.1.4,None,2024-07-03 14h09.31.280814 +0900,
Images/Speaker1.jpg,Images/Speaker2.jpg,Images/Speaker3.jpg,Images/Speaker4.jpg,Audio/Speaker1_Per/P1-15-Per.wav,Speaker1,گوینده ۱,1,6,86,14,,,,,65.85470504099976,,,,,,,,,,,,,,,,,,,,,,,,,,,,,,,,,,,,,,,,,,,,,48.862309833000836,0.0,False,48.86249733300065,708454,001,2024-07-03_14h09.26.400,5-all in one,2024.1.4,None,2024-07-03 14h09.31.280814 +0900,
Images/Speaker1.jpg,Images/Speaker2.jpg,Images/Speaker3.jpg,Images/Speaker4.jpg,Audio/Speaker1_Per/P1-13-Per.wav,Speaker1,گوینده ۱,1,7,87,12,,,,,65.85470504099976,,,,,,,,,,,,,,,,,,,,,,,,,,,,,,,,,,,,,,,,,,,,,48.87829166600022,0.0,False,48.8784972909998,708454,001,2024-07-03_14h09.26.400,5-all in one,2024.1.4,None,2024-07-03 14h09.31.280814 +0900,
Images/Speaker1.jpg,Images/Speaker2.jpg,Images/Speaker3.jpg,Images/Speaker4.jpg,Audio/Speaker1_Per/P1-8-Per.wav,Speaker1,گوینده ۱,1,8,88,7,,,,,65.85470504099976,,,,,,,,,,,,,,,,,,,,,,,,,,,,,,,,,,,,,,,,,,,,,48.894208083000194,0.0,False,48.89438558300026,708454,001,2024-07-03_14h09.26.400,5-all in one,2024.1.4,None,2024-07-03 14h09.31.280814 +0900,
Images/Speaker1.jpg,Images/Speaker2.jpg,Images/Speaker3.jpg,Images/Speaker4.jpg,Audio/Speaker3_Per/P3-6-Per.wav,Speaker3,گوینده۳,1,9,89,45,,,,,65.85470504099976,,,,,,,,,,,,,,,,,,,,,,,,,,,,,,,,,,,,,,,,,,,,,48.91028512500088,0.0,False,48.91047270800118,708454,001,2024-07-03_14h09.26.400,5-all in one,2024.1.4,None,2024-07-03 14h09.31.280814 +0900,
Images/Speaker1.jpg,Images/Speaker2.jpg,Images/Speaker3.jpg,Images/Speaker4.jpg,Audio/Speaker3_Per/P3-4-Per.wav,Speaker3,گوینده۳,1,10,90,43,,,,,65.85470504099976,,,,,,,,,,,,,,,,,,,,,,,,,,,,,,,,,,,,,,,,,,,,,48.926947707999716,0.0,False,48.92712675000075,708454,001,2024-07-03_14h09.26.400,5-all in one,2024.1.4,None,2024-07-03 14h09.31.280814 +0900,
Images/Speaker1.jpg,Images/Speaker2.jpg,Images/Speaker3.jpg,Images/Speaker4.jpg,Audio/Speaker4_Per/P4-4-Per.wav,Speaker4,گوینده۴,1,11,91,63,,,,,65.85470504099976,,,,,,,,,,,,,,,,,,,,,,,,,,,,,,,,,,,,,,,,,,,,,48.94292391599993,0.0,False,48.94310104100077,708454,001,2024-07-03_14h09.26.400,5-all in one,2024.1.4,None,2024-07-03 14h09.31.280814 +0900,
Images/Speaker1.jpg,Images/Speaker2.jpg,Images/Speaker3.jpg,Images/Speaker4.jpg,Audio/Speaker2_Per/P2-5-Per.wav,Speaker2,گوینده۲,1,12,92,24,,,,,65.85470504099976,,,,,,,,,,,,,,,,,,,,,,,,,,,,,,,,,,,,,,,,,,,,,48.95890700000018,0.0,False,48.95910449999974,708454,001,2024-07-03_14h09.26.400,5-all in one,2024.1.4,None,2024-07-03 14h09.31.280814 +0900,
Images/Speaker1.jpg,Images/Speaker2.jpg,Images/Speaker3.jpg,Images/Speaker4.jpg,Audio/Speaker4_Per/P4-6-Per.wav,Speaker4,گوینده۴,1,13,93,65,,,,,65.85470504099976,,,,,,,,,,,,,,,,,,,,,,,,,,,,,,,,,,,,,,,,,,,,,48.97473820800042,0.0,False,48.974922625000545,708454,001,2024-07-03_14h09.26.400,5-all in one,2024.1.4,None,2024-07-03 14h09.31.280814 +0900,
Images/Speaker1.jpg,Images/Speaker2.jpg,Images/Speaker3.jpg,Images/Speaker4.jpg,Audio/Speaker1_Per/P1-16-Per.wav,Speaker1,گوینده ۱,1,14,94,15,,,,,65.85470504099976,,,,,,,,,,,,,,,,,,,,,,,,,,,,,,,,,,,,,,,,,,,,,48.99114733300121,0.0,False,48.991321000001335,708454,001,2024-07-03_14h09.26.400,5-all in one,2024.1.4,None,2024-07-03 14h09.31.280814 +0900,
Images/Speaker1.jpg,Images/Speaker2.jpg,Images/Speaker3.jpg,Images/Speaker4.jpg,Audio/Speaker4_Per/P4-10-Per.wav,Speaker4,گوینده۴,1,15,95,69,,,,,65.85470504099976,,,,,,,,,,,,,,,,,,,,,,,,,,,,,,,,,,,,,,,,,,,,,49.007190541000455,0.0,False,49.00740370800122,708454,001,2024-07-03_14h09.26.400,5-all in one,2024.1.4,None,2024-07-03 14h09.31.280814 +0900,
Images/Speaker1.jpg,Images/Speaker2.jpg,Images/Speaker3.jpg,Images/Speaker4.jpg,Audio/Speaker1_Per/P1-7-Per.wav,Speaker1,گوینده ۱,1,16,96,6,,,,,65.85470504099976,,,,,,,,,,,,,,,,,,,,,,,,,,,,,,,,,,,,,,,,,,,,,49.02310595800009,0.0,False,49.023314707999816,708454,001,2024-07-03_14h09.26.400,5-all in one,2024.1.4,None,2024-07-03 14h09.31.280814 +0900,
Images/Speaker1.jpg,Images/Speaker2.jpg,Images/Speaker3.jpg,Images/Speaker4.jpg,Audio/Speaker3_Per/P3-19-Per.wav,Speaker3,گوینده۳,1,17,97,58,,,,,65.85470504099976,,,,,,,,,,,,,,,,,,,,,,,,,,,,,,,,,,,,,,,,,,,,,49.039119375000155,0.0,False,49.03934341599961,708454,001,2024-07-03_14h09.26.400,5-all in one,2024.1.4,None,2024-07-03 14h09.31.280814 +0900,
Images/Speaker1.jpg,Images/Speaker2.jpg,Images/Speaker3.jpg,Images/Speaker4.jpg,Audio/Speaker1_Per/P1-5-Per.wav,Speaker1,گوینده ۱,1,18,98,4,,,,,65.85470504099976,,,,,,,,,,,,,,,,,,,,,,,,,,,,,,,,,,,,,,,,,,,,,49.05569183300031,0.0,False,49.05588441600048,708454,001,2024-07-03_14h09.26.400,5-all in one,2024.1.4,None,2024-07-03 14h09.31.280814 +0900,
Images/Speaker1.jpg,Images/Speaker2.jpg,Images/Speaker3.jpg,Images/Speaker4.jpg,Audio/Speaker1_Per/P1-20-Per.wav,Speaker1,گوینده ۱,1,19,99,19,,,,,65.85470504099976,,,,,,,,,,,,,,,,,,,,,,,,,,,,,,,,,,,,,,,,,,,,,49.071661583000605,0.0,False,49.07185125000069,708454,001,2024-07-03_14h09.26.400,5-all in one,2024.1.4,None,2024-07-03 14h09.31.280814 +0900,
Images/Speaker1.jpg,Images/Speaker2.jpg,Images/Speaker3.jpg,Images/Speaker4.jpg,Audio/Speaker3_Per/P3-3-Per.wav,Speaker3,گوینده۳,1,20,100,42,,,,,65.85470504099976,,,,,,,,,,,,,,,,,,,,,,,,,,,,,,,,,,,,,,,,,,,,,49.0877526660006,0.0,False,49.087941125000725,708454,001,2024-07-03_14h09.26.400,5-all in one,2024.1.4,None,2024-07-03 14h09.31.280814 +0900,
Images/Speaker1.jpg,Images/Speaker2.jpg,Images/Speaker3.jpg,Images/Speaker4.jpg,Audio/Speaker4_Per/P4-20-Per.wav,Speaker4,گوینده۴,1,21,101,79,,,,,65.85470504099976,,,,,,,,,,,,,,,,,,,,,,,,,,,,,,,,,,,,,,,,,,,,,49.10374570800013,0.0,False,49.103933500000494,708454,001,2024-07-03_14h09.26.400,5-all in one,2024.1.4,None,2024-07-03 14h09.31.280814 +0900,
Images/Speaker1.jpg,Images/Speaker2.jpg,Images/Speaker3.jpg,Images/Speaker4.jpg,Audio/Speaker3_Per/P3-16-Per.wav,Speaker3,گوینده۳,1,22,102,55,,,,,65.85470504099976,,,,,,,,,,,,,,,,,,,,,,,,,,,,,,,,,,,,,,,,,,,,,49.1204432909999,0.0,False,49.12061133300085,708454,001,2024-07-03_14h09.26.400,5-all in one,2024.1.4,None,2024-07-03 14h09.31.280814 +0900,
Images/Speaker1.jpg,Images/Speaker2.jpg,Images/Speaker3.jpg,Images/Speaker4.jpg,Audio/Speaker3_Per/P3-5-Per.wav,Speaker3,گوینده۳,1,23,103,44,,,,,65.85470504099976,,,,,,,,,,,,,,,,,,,,,,,,,,,,,,,,,,,,,,,,,,,,,49.13627479100069,0.0,False,49.13647674999993,708454,001,2024-07-03_14h09.26.400,5-all in one,2024.1.4,None,2024-07-03 14h09.31.280814 +0900,
Images/Speaker1.jpg,Images/Speaker2.jpg,Images/Speaker3.jpg,Images/Speaker4.jpg,Audio/Speaker2_Per/P2-12-Per.wav,Speaker2,گوینده۲,1,24,104,31,,,,,65.85470504099976,,,,,,,,,,,,,,,,,,,,,,,,,,,,,,,,,,,,,,,,,,,,,49.15222741599973,0.0,False,49.152416958000686,708454,001,2024-07-03_14h09.26.400,5-all in one,2024.1.4,None,2024-07-03 14h09.31.280814 +0900,
Images/Speaker1.jpg,Images/Speaker2.jpg,Images/Speaker3.jpg,Images/Speaker4.jpg,Audio/Speaker3_Per/P3-20-Per.wav,Speaker3,گوینده۳,1,25,105,59,,,,,65.85470504099976,,,,,,,,,,,,,,,,,,,,,,,,,,,,,,,,,,,,,,,,,,,,,49.1682785410012,0.0,False,49.16845587500029,708454,001,2024-07-03_14h09.26.400,5-all in one,2024.1.4,None,2024-07-03 14h09.31.280814 +0900,
Images/Speaker1.jpg,Images/Speaker2.jpg,Images/Speaker3.jpg,Images/Speaker4.jpg,Audio/Speaker1_Per/P1-11-Per.wav,Speaker1,گوینده ۱,1,26,106,10,,,,,65.85470504099976,,,,,,,,,,,,,,,,,,,,,,,,,,,,,,,,,,,,,,,,,,,,,49.18492620800134,0.0,False,49.18513787499978,708454,001,2024-07-03_14h09.26.400,5-all in one,2024.1.4,None,2024-07-03 14h09.31.280814 +0900,
Images/Speaker1.jpg,Images/Speaker2.jpg,Images/Speaker3.jpg,Images/Speaker4.jpg,Audio/Speaker1_Per/P1-12-Per.wav,Speaker1,گوینده ۱,1,27,107,11,,,,,65.85470504099976,,,,,,,,,,,,,,,,,,,,,,,,,,,,,,,,,,,,,,,,,,,,,49.2007102080006,0.0,False,49.20087754100132,708454,001,2024-07-03_14h09.26.400,5-all in one,2024.1.4,None,2024-07-03 14h09.31.280814 +0900,
Images/Speaker1.jpg,Images/Speaker2.jpg,Images/Speaker3.jpg,Images/Speaker4.jpg,Audio/Speaker1_Per/P1-6-Per.wav,Speaker1,گوینده ۱,1,28,108,5,,,,,65.85470504099976,,,,,,,,,,,,,,,,,,,,,,,,,,,,,,,,,,,,,,,,,,,,,49.21673083300084,0.0,False,49.21693487500124,708454,001,2024-07-03_14h09.26.400,5-all in one,2024.1.4,None,2024-07-03 14h09.31.280814 +0900,
Images/Speaker1.jpg,Images/Speaker2.jpg,Images/Speaker3.jpg,Images/Speaker4.jpg,Audio/Speaker2_Per/P2-13-Per.wav,Speaker2,گوینده۲,1,29,109,32,,,,,65.85470504099976,,,,,,,,,,,,,,,,,,,,,,,,,,,,,,,,,,,,,,,,,,,,,49.23277962500106,0.0,False,49.23298516599971,708454,001,2024-07-03_14h09.26.400,5-all in one,2024.1.4,None,2024-07-03 14h09.31.280814 +0900,
Images/Speaker1.jpg,Images/Speaker2.jpg,Images/Speaker3.jpg,Images/Speaker4.jpg,Audio/Speaker4_Per/P4-1-Per.wav,Speaker4,گوینده۴,1,30,110,60,,,,,65.85470504099976,,,,,,,,,,,,,,,,,,,,,,,,,,,,,,,,,,,,,,,,,,,,,49.24926258300002,0.0,False,49.24945004100118,708454,001,2024-07-03_14h09.26.400,5-all in one,2024.1.4,None,2024-07-03 14h09.31.280814 +0900,
Images/Speaker1.jpg,Images/Speaker2.jpg,Images/Speaker3.jpg,Images/Speaker4.jpg,Audio/Speaker3_Per/P3-9-Per.wav,Speaker3,گوینده۳,1,31,111,48,,,,,65.85470504099976,,,,,,,,,,,,,,,,,,,,,,,,,,,,,,,,,,,,,,,,,,,,,49.26526487500087,0.0,False,49.26546279099966,708454,001,2024-07-03_14h09.26.400,5-all in one,2024.1.4,None,2024-07-03 14h09.31.280814 +0900,
Images/Speaker1.jpg,Images/Speaker2.jpg,Images/Speaker3.jpg,Images/Speaker4.jpg,Audio/Speaker2_Per/P2-8-Per.wav,Speaker2,گوینده۲,1,32,112,27,,,,,65.85470504099976,,,,,,,,,,,,,,,,,,,,,,,,,,,,,,,,,,,,,,,,,,,,,49.28138991600099,0.0,False,49.28156887499972,708454,001,2024-07-03_14h09.26.400,5-all in one,2024.1.4,None,2024-07-03 14h09.31.280814 +0900,
Images/Speaker1.jpg,Images/Speaker2.jpg,Images/Speaker3.jpg,Images/Speaker4.jpg,Audio/Speaker2_Per/P2-2-Per.wav,Speaker2,گوینده۲,1,33,113,21,,,,,65.85470504099976,,,,,,,,,,,,,,,,,,,,,,,,,,,,,,,,,,,,,,,,,,,,,49.2972965830013,0.0,False,49.29752245800046,708454,001,2024-07-03_14h09.26.400,5-all in one,2024.1.4,None,2024-07-03 14h09.31.280814 +0900,
Images/Speaker1.jpg,Images/Speaker2.jpg,Images/Speaker3.jpg,Images/Speaker4.jpg,Audio/Speaker3_Per/P3-15-Per.wav,Speaker3,گوینده۳,1,34,114,54,,,,,65.85470504099976,,,,,,,,,,,,,,,,,,,,,,,,,,,,,,,,,,,,,,,,,,,,,49.31403879100071,0.0,False,49.31422604100044,708454,001,2024-07-03_14h09.26.400,5-all in one,2024.1.4,None,2024-07-03 14h09.31.280814 +0900,
Images/Speaker1.jpg,Images/Speaker2.jpg,Images/Speaker3.jpg,Images/Speaker4.jpg,Audio/Speaker3_Per/P3-13-Per.wav,Speaker3,گوینده۳,1,35,115,52,,,,,65.85470504099976,,,,,,,,,,,,,,,,,,,,,,,,,,,,,,,,,,,,,,,,,,,,,49.32992158300112,0.0,False,49.3301205000007,708454,001,2024-07-03_14h09.26.400,5-all in one,2024.1.4,None,2024-07-03 14h09.31.280814 +0900,
Images/Speaker1.jpg,Images/Speaker2.jpg,Images/Speaker3.jpg,Images/Speaker4.jpg,Audio/Speaker1_Per/P1-3-Per.wav,Speaker1,گوینده ۱,1,36,116,2,,,,,65.85470504099976,,,,,,,,,,,,,,,,,,,,,,,,,,,,,,,,,,,,,,,,,,,,,49.34596525000052,0.0,False,49.34616695800105,708454,001,2024-07-03_14h09.26.400,5-all in one,2024.1.4,None,2024-07-03 14h09.31.280814 +0900,
Images/Speaker1.jpg,Images/Speaker2.jpg,Images/Speaker3.jpg,Images/Speaker4.jpg,Audio/Speaker4_Per/P4-18-Per.wav,Speaker4,گوینده۴,1,37,117,77,,,,,65.85470504099976,,,,,,,,,,,,,,,,,,,,,,,,,,,,,,,,,,,,,,,,,,,,,49.36187004100066,0.0,False,49.362115541000094,708454,001,2024-07-03_14h09.26.400,5-all in one,2024.1.4,None,2024-07-03 14h09.31.280814 +0900,
Images/Speaker1.jpg,Images/Speaker2.jpg,Images/Speaker3.jpg,Images/Speaker4.jpg,Audio/Speaker3_Per/P3-2-Per.wav,Speaker3,گوینده۳,1,38,118,41,,,,,65.85470504099976,,,,,,,,,,,,,,,,,,,,,,,,,,,,,,,,,,,,,,,,,,,,,49.37845583300077,0.0,False,49.3786510000009,708454,001,2024-07-03_14h09.26.400,5-all in one,2024.1.4,None,2024-07-03 14h09.31.280814 +0900,
Images/Speaker1.jpg,Images/Speaker2.jpg,Images/Speaker3.jpg,Images/Speaker4.jpg,Audio/Speaker3_Per/P3-8-Per.wav,Speaker3,گوینده۳,1,39,119,47,,,,,65.85470504099976,,,,,,,,,,,,,,,,,,,,,,,,,,,,,,,,,,,,,,,,,,,,,49.394598291000875,0.0,False,49.394788416000665,708454,001,2024-07-03_14h09.26.400,5-all in one,2024.1.4,None,2024-07-03 14h09.31.280814 +0900,
Images/Speaker1.jpg,Images/Speaker2.jpg,Images/Speaker3.jpg,Images/Speaker4.jpg,Audio/Speaker4_Per/P4-13-Per.wav,Speaker4,گوینده۴,1,40,120,72,,,,,65.85470504099976,,,,,,,,,,,,,,,,,,,,,,,,,,,,,,,,,,,,,,,,,,,,,49.410678874999576,0.0,False,49.410854833000485,708454,001,2024-07-03_14h09.26.400,5-all in one,2024.1.4,None,2024-07-03 14h09.31.280814 +0900,
Images/Speaker1.jpg,Images/Speaker2.jpg,Images/Speaker3.jpg,Images/Speaker4.jpg,Audio/Speaker4_Per/P4-5-Per.wav,Speaker4,گوینده۴,1,41,121,64,,,,,65.85470504099976,,,,,,,,,,,,,,,,,,,,,,,,,,,,,,,,,,,,,,,,,,,,,49.42670291600007,0.0,False,49.426905166001234,708454,001,2024-07-03_14h09.26.400,5-all in one,2024.1.4,None,2024-07-03 14h09.31.280814 +0900,
Images/Speaker1.jpg,Images/Speaker2.jpg,Images/Speaker3.jpg,Images/Speaker4.jpg,Audio/Speaker4_Per/P4-7-Per.wav,Speaker4,گوینده۴,1,42,122,66,,,,,65.85470504099976,,,,,,,,,,,,,,,,,,,,,,,,,,,,,,,,,,,,,,,,,,,,,49.44347687499976,0.0,False,49.44366287500088,708454,001,2024-07-03_14h09.26.400,5-all in one,2024.1.4,None,2024-07-03 14h09.31.280814 +0900,
Images/Speaker1.jpg,Images/Speaker2.jpg,Images/Speaker3.jpg,Images/Speaker4.jpg,Audio/Speaker4_Per/P4-19-Per.wav,Speaker4,گوینده۴,1,43,123,78,,,,,65.85470504099976,,,,,,,,,,,,,,,,,,,,,,,,,,,,,,,,,,,,,,,,,,,,,49.45951950000017,0.0,False,49.45973374999994,708454,001,2024-07-03_14h09.26.400,5-all in one,2024.1.4,None,2024-07-03 14h09.31.280814 +0900,
Images/Speaker1.jpg,Images/Speaker2.jpg,Images/Speaker3.jpg,Images/Speaker4.jpg,Audio/Speaker1_Per/P1-9-Per.wav,Speaker1,گوینده ۱,1,44,124,8,,,,,65.85470504099976,,,,,,,,,,,,,,,,,,,,,,,,,,,,,,,,,,,,,,,,,,,,,49.47553716600123,0.0,False,49.47575087500081,708454,001,2024-07-03_14h09.26.400,5-all in one,2024.1.4,None,2024-07-03 14h09.31.280814 +0900,
Images/Speaker1.jpg,Images/Speaker2.jpg,Images/Speaker3.jpg,Images/Speaker4.jpg,Audio/Speaker4_Per/P4-16-Per.wav,Speaker4,گوینده۴,1,45,125,75,,,,,65.85470504099976,,,,,,,,,,,,,,,,,,,,,,,,,,,,,,,,,,,,,,,,,,,,,49.49156083300113,0.0,False,49.49175654099963,708454,001,2024-07-03_14h09.26.400,5-all in one,2024.1.4,None,2024-07-03 14h09.31.280814 +0900,
Images/Speaker1.jpg,Images/Speaker2.jpg,Images/Speaker3.jpg,Images/Speaker4.jpg,Audio/Speaker2_Per/P2-1-Per.wav,Speaker2,گوینده۲,1,46,126,20,,,,,65.85470504099976,,,,,,,,,,,,,,,,,,,,,,,,,,,,,,,,,,,,,,,,,,,,,49.508137500000885,0.0,False,49.508323291000124,708454,001,2024-07-03_14h09.26.400,5-all in one,2024.1.4,None,2024-07-03 14h09.31.280814 +0900,
Images/Speaker1.jpg,Images/Speaker2.jpg,Images/Speaker3.jpg,Images/Speaker4.jpg,Audio/Speaker1_Per/P1-17-Per.wav,Speaker1,گوینده ۱,1,47,127,16,,,,,65.85470504099976,,,,,,,,,,,,,,,,,,,,,,,,,,,,,,,,,,,,,,,,,,,,,49.524177708000934,0.0,False,49.52435916600007,708454,001,2024-07-03_14h09.26.400,5-all in one,2024.1.4,None,2024-07-03 14h09.31.280814 +0900,
Images/Speaker1.jpg,Images/Speaker2.jpg,Images/Speaker3.jpg,Images/Speaker4.jpg,Audio/Speaker2_Per/P2-15-Per.wav,Speaker2,گوینده۲,1,48,128,34,,,,,65.85470504099976,,,,,,,,,,,,,,,,,,,,,,,,,,,,,,,,,,,,,,,,,,,,,49.540052708000076,0.0,False,49.54021554100109,708454,001,2024-07-03_14h09.26.400,5-all in one,2024.1.4,None,2024-07-03 14h09.31.280814 +0900,
Images/Speaker1.jpg,Images/Speaker2.jpg,Images/Speaker3.jpg,Images/Speaker4.jpg,Audio/Speaker3_Per/P3-14-Per.wav,Speaker3,گوینده۳,1,49,129,53,,,,,65.85470504099976,,,,,,,,,,,,,,,,,,,,,,,,,,,,,,,,,,,,,,,,,,,,,49.55603549999978,0.0,False,49.556199124999694,708454,001,2024-07-03_14h09.26.400,5-all in one,2024.1.4,None,2024-07-03 14h09.31.280814 +0900,
Images/Speaker1.jpg,Images/Speaker2.jpg,Images/Speaker3.jpg,Images/Speaker4.jpg,Audio/Speaker4_Per/P4-17-Per.wav,Speaker4,گوینده۴,1,50,130,76,,,,,65.85470504099976,,,,,,,,,,,,,,,,,,,,,,,,,,,,,,,,,,,,,,,,,,,,,49.57264787500026,0.0,False,49.57284370799971,708454,001,2024-07-03_14h09.26.400,5-all in one,2024.1.4,None,2024-07-03 14h09.31.280814 +0900,
Images/Speaker1.jpg,Images/Speaker2.jpg,Images/Speaker3.jpg,Images/Speaker4.jpg,Audio/Speaker4_Per/P4-8-Per.wav,Speaker4,گوینده۴,1,51,131,67,,,,,65.85470504099976,,,,,,,,,,,,,,,,,,,,,,,,,,,,,,,,,,,,,,,,,,,,,49.58850966600039,0.0,False,49.58868425000037,708454,001,2024-07-03_14h09.26.400,5-all in one,2024.1.4,None,2024-07-03 14h09.31.280814 +0900,
Images/Speaker1.jpg,Images/Speaker2.jpg,Images/Speaker3.jpg,Images/Speaker4.jpg,Audio/Speaker2_Per/P2-18-Per.wav,Speaker2,گوینده۲,1,52,132,37,,,,,65.85470504099976,,,,,,,,,,,,,,,,,,,,,,,,,,,,,,,,,,,,,,,,,,,,,49.604453457999625,0.0,False,49.60464158300056,708454,001,2024-07-03_14h09.26.400,5-all in one,2024.1.4,None,2024-07-03 14h09.31.280814 +0900,
Images/Speaker1.jpg,Images/Speaker2.jpg,Images/Speaker3.jpg,Images/Speaker4.jpg,Audio/Speaker2_Per/P2-11-Per.wav,Speaker2,گوینده۲,1,53,133,30,,,,,65.85470504099976,,,,,,,,,,,,,,,,,,,,,,,,,,,,,,,,,,,,,,,,,,,,,49.62052533300084,0.0,False,49.62071337500129,708454,001,2024-07-03_14h09.26.400,5-all in one,2024.1.4,None,2024-07-03 14h09.31.280814 +0900,
Images/Speaker1.jpg,Images/Speaker2.jpg,Images/Speaker3.jpg,Images/Speaker4.jpg,Audio/Speaker4_Per/P4-14-Per.wav,Speaker4,گوینده۴,1,54,134,73,,,,,65.85470504099976,,,,,,,,,,,,,,,,,,,,,,,,,,,,,,,,,,,,,,,,,,,,,49.63686058300118,0.0,False,49.6370177910012,708454,001,2024-07-03_14h09.26.400,5-all in one,2024.1.4,None,2024-07-03 14h09.31.280814 +0900,
Images/Speaker1.jpg,Images/Speaker2.jpg,Images/Speaker3.jpg,Images/Speaker4.jpg,Audio/Speaker4_Per/P4-11-Per.wav,Speaker4,گوینده۴,1,55,135,70,,,,,65.85470504099976,,,,,,,,,,,,,,,,,,,,,,,,,,,,,,,,,,,,,,,,,,,,,49.6527313330007,0.0,False,49.65289983299954,708454,001,2024-07-03_14h09.26.400,5-all in one,2024.1.4,None,2024-07-03 14h09.31.280814 +0900,
Images/Speaker1.jpg,Images/Speaker2.jpg,Images/Speaker3.jpg,Images/Speaker4.jpg,Audio/Speaker2_Per/P2-7-Per.wav,Speaker2,گوینده۲,1,56,136,26,,,,,65.85470504099976,,,,,,,,,,,,,,,,,,,,,,,,,,,,,,,,,,,,,,,,,,,,,49.668715458001316,0.0,False,49.668910333000895,708454,001,2024-07-03_14h09.26.400,5-all in one,2024.1.4,None,2024-07-03 14h09.31.280814 +0900,
Images/Speaker1.jpg,Images/Speaker2.jpg,Images/Speaker3.jpg,Images/Speaker4.jpg,Audio/Speaker2_Per/P2-14-Per.wav,Speaker2,گوینده۲,1,57,137,33,,,,,65.85470504099976,,,,,,,,,,,,,,,,,,,,,,,,,,,,,,,,,,,,,,,,,,,,,49.684773250000944,0.0,False,49.68497504100014,708454,001,2024-07-03_14h09.26.400,5-all in one,2024.1.4,None,2024-07-03 14h09.31.280814 +0900,
Images/Speaker1.jpg,Images/Speaker2.jpg,Images/Speaker3.jpg,Images/Speaker4.jpg,Audio/Speaker2_Per/P2-6-Per.wav,Speaker2,گوینده۲,1,58,138,25,,,,,65.85470504099976,,,,,,,,,,,,,,,,,,,,,,,,,,,,,,,,,,,,,,,,,,,,,49.70134104099998,0.0,False,49.70153037500131,708454,001,2024-07-03_14h09.26.400,5-all in one,2024.1.4,None,2024-07-03 14h09.31.280814 +0900,
Images/Speaker1.jpg,Images/Speaker2.jpg,Images/Speaker3.jpg,Images/Speaker4.jpg,Audio/Speaker3_Per/P3-11-Per.wav,Speaker3,گوینده۳,1,59,139,50,,,,,65.85470504099976,,,,,,,,,,,,,,,,,,,,,,,,,,,,,,,,,,,,,,,,,,,,,49.71724104100031,0.0,False,49.71742904100029,708454,001,2024-07-03_14h09.26.400,5-all in one,2024.1.4,None,2024-07-03 14h09.31.280814 +0900,
Images/Speaker1.jpg,Images/Speaker2.jpg,Images/Speaker3.jpg,Images/Speaker4.jpg,Audio/Speaker2_Per/P2-20-Per.wav,Speaker2,گوینده۲,1,60,140,39,,,,,65.85470504099976,,,,,,,,,,,,,,,,,,,,,,,,,,,,,,,,,,,,,,,,,,,,,49.73304729099982,0.0,False,49.733240416000626,708454,001,2024-07-03_14h09.26.400,5-all in one,2024.1.4,None,2024-07-03 14h09.31.280814 +0900,
Images/Speaker1.jpg,Images/Speaker2.jpg,Images/Speaker3.jpg,Images/Speaker4.jpg,Audio/Speaker2_Per/P2-16-Per.wav,Speaker2,گوینده۲,1,61,141,35,,,,,65.85470504099976,,,,,,,,,,,,,,,,,,,,,,,,,,,,,,,,,,,,,,,,,,,,,49.74890404100006,0.0,False,49.7491220410011,708454,001,2024-07-03_14h09.26.400,5-all in one,2024.1.4,None,2024-07-03 14h09.31.280814 +0900,
Images/Speaker1.jpg,Images/Speaker2.jpg,Images/Speaker3.jpg,Images/Speaker4.jpg,Audio/Speaker4_Per/P4-2-Per.wav,Speaker4,گوینده۴,1,62,142,61,,,,,65.85470504099976,,,,,,,,,,,,,,,,,,,,,,,,,,,,,,,,,,,,,,,,,,,,,49.765415583000504,0.0,False,49.765607666000506,708454,001,2024-07-03_14h09.26.400,5-all in one,2024.1.4,None,2024-07-03 14h09.31.280814 +0900,
Images/Speaker1.jpg,Images/Speaker2.jpg,Images/Speaker3.jpg,Images/Speaker4.jpg,Audio/Speaker4_Per/P4-3-Per.wav,Speaker4,گوینده۴,1,63,143,62,,,,,65.85470504099976,,,,,,,,,,,,,,,,,,,,,,,,,,,,,,,,,,,,,,,,,,,,,49.781318625000495,0.0,False,49.78149766600109,708454,001,2024-07-03_14h09.26.400,5-all in one,2024.1.4,None,2024-07-03 14h09.31.280814 +0900,
Images/Speaker1.jpg,Images/Speaker2.jpg,Images/Speaker3.jpg,Images/Speaker4.jpg,Audio/Speaker2_Per/P2-19-Per.wav,Speaker2,گوینده۲,1,64,144,38,,,,,65.85470504099976,,,,,,,,,,,,,,,,,,,,,,,,,,,,,,,,,,,,,,,,,,,,,49.79729970799963,0.0,False,49.7974896249998,708454,001,2024-07-03_14h09.26.400,5-all in one,2024.1.4,None,2024-07-03 14h09.31.280814 +0900,
Images/Speaker1.jpg,Images/Speaker2.jpg,Images/Speaker3.jpg,Images/Speaker4.jpg,Audio/Speaker2_Per/P2-10-Per.wav,Speaker2,گوینده۲,1,65,145,29,,,,,65.85470504099976,,,,,,,,,,,,,,,,,,,,,,,,,,,,,,,,,,,,,,,,,,,,,49.81310320800003,0.0,False,49.81329000000005,708454,001,2024-07-03_14h09.26.400,5-all in one,2024.1.4,None,2024-07-03 14h09.31.280814 +0900,
Images/Speaker1.jpg,Images/Speaker2.jpg,Images/Speaker3.jpg,Images/Speaker4.jpg,Audio/Speaker1_Per/P1-2-Per.wav,Speaker1,گوینده ۱,1,66,146,1,,,,,65.85470504099976,,,,,,,,,,,,,,,,,,,,,,,,,,,,,,,,,,,,,,,,,,,,,49.829966250001235,0.0,False,49.83015879100094,708454,001,2024-07-03_14h09.26.400,5-all in one,2024.1.4,None,2024-07-03 14h09.31.280814 +0900,
Images/Speaker1.jpg,Images/Speaker2.jpg,Images/Speaker3.jpg,Images/Speaker4.jpg,Audio/Speaker1_Per/P1-18-Per.wav,Speaker1,گوینده ۱,1,67,147,17,,,,,65.85470504099976,,,,,,,,,,,,,,,,,,,,,,,,,,,,,,,,,,,,,,,,,,,,,49.84580433300107,0.0,False,49.845974166000815,708454,001,2024-07-03_14h09.26.400,5-all in one,2024.1.4,None,2024-07-03 14h09.31.280814 +0900,
Images/Speaker1.jpg,Images/Speaker2.jpg,Images/Speaker3.jpg,Images/Speaker4.jpg,Audio/Speaker3_Per/P3-1-Per.wav,Speaker3,گوینده۳,1,68,148,40,,,,,65.85470504099976,,,,,,,,,,,,,,,,,,,,,,,,,,,,,,,,,,,,,,,,,,,,,49.8616725410011,0.0,False,49.86184766600127,708454,001,2024-07-03_14h09.26.400,5-all in one,2024.1.4,None,2024-07-03 14h09.31.280814 +0900,
Images/Speaker1.jpg,Images/Speaker2.jpg,Images/Speaker3.jpg,Images/Speaker4.jpg,Audio/Speaker3_Per/P3-12-Per.wav,Speaker3,گوینده۳,1,69,149,51,,,,,65.85470504099976,,,,,,,,,,,,,,,,,,,,,,,,,,,,,,,,,,,,,,,,,,,,,49.877681791000214,0.0,False,49.877861291000954,708454,001,2024-07-03_14h09.26.400,5-all in one,2024.1.4,None,2024-07-03 14h09.31.280814 +0900,
Images/Speaker1.jpg,Images/Speaker2.jpg,Images/Speaker3.jpg,Images/Speaker4.jpg,Audio/Speaker2_Per/P2-9-Per.wav,Speaker2,گوینده۲,1,70,150,28,,,,,65.85470504099976,,,,,,,,,,,,,,,,,,,,,,,,,,,,,,,,,,,,,,,,,,,,,49.89414445799957,0.0,False,49.89434283300034,708454,001,2024-07-03_14h09.26.400,5-all in one,2024.1.4,None,2024-07-03 14h09.31.280814 +0900,
Images/Speaker1.jpg,Images/Speaker2.jpg,Images/Speaker3.jpg,Images/Speaker4.jpg,Audio/Speaker1_Per/P1-19-Per.wav,Speaker1,گوینده ۱,1,71,151,18,,,,,65.85470504099976,,,,,,,,,,,,,,,,,,,,,,,,,,,,,,,,,,,,,,,,,,,,,49.910023207999984,0.0,False,49.91020050000043,708454,001,2024-07-03_14h09.26.400,5-all in one,2024.1.4,None,2024-07-03 14h09.31.280814 +0900,
Images/Speaker1.jpg,Images/Speaker2.jpg,Images/Speaker3.jpg,Images/Speaker4.jpg,Audio/Speaker4_Per/P4-12-Per.wav,Speaker4,گوینده۴,1,72,152,71,,,,,65.85470504099976,,,,,,,,,,,,,,,,,,,,,,,,,,,,,,,,,,,,,,,,,,,,,49.925984208000955,0.0,False,49.92619625000043,708454,001,2024-07-03_14h09.26.400,5-all in one,2024.1.4,None,2024-07-03 14h09.31.280814 +0900,
Images/Speaker1.jpg,Images/Speaker2.jpg,Images/Speaker3.jpg,Images/Speaker4.jpg,Audio/Speaker3_Per/P3-7-Per.wav,Speaker3,گوینده۳,1,73,153,46,,,,,65.85470504099976,,,,,,,,,,,,,,,,,,,,,,,,,,,,,,,,,,,,,,,,,,,,,49.94192162500076,0.0,False,49.942109708001226,708454,001,2024-07-03_14h09.26.400,5-all in one,2024.1.4,None,2024-07-03 14h09.31.280814 +0900,
Images/Speaker1.jpg,Images/Speaker2.jpg,Images/Speaker3.jpg,Images/Speaker4.jpg,Audio/Speaker3_Per/P3-17-Per.wav,Speaker3,گوینده۳,1,74,154,56,,,,,65.85470504099976,,,,,,,,,,,,,,,,,,,,,,,,,,,,,,,,,,,,,,,,,,,,,49.95853908299978,0.0,False,49.958737083001324,708454,001,2024-07-03_14h09.26.400,5-all in one,2024.1.4,None,2024-07-03 14h09.31.280814 +0900,
Images/Speaker1.jpg,Images/Speaker2.jpg,Images/Speaker3.jpg,Images/Speaker4.jpg,Audio/Speaker4_Per/P4-9-Per.wav,Speaker4,گوینده۴,1,75,155,68,,,,,65.85470504099976,,,,,,,,,,,,,,,,,,,,,,,,,,,,,,,,,,,,,,,,,,,,,49.974644583000554,0.0,False,49.97486020799988,708454,001,2024-07-03_14h09.26.400,5-all in one,2024.1.4,None,2024-07-03 14h09.31.280814 +0900,
Images/Speaker1.jpg,Images/Speaker2.jpg,Images/Speaker3.jpg,Images/Speaker4.jpg,Audio/Speaker2_Per/P2-17-Per.wav,Speaker2,گوینده۲,1,76,156,36,,,,,65.85470504099976,,,,,,,,,,,,,,,,,,,,,,,,,,,,,,,,,,,,,,,,,,,,,49.990761791001205,0.0,False,49.99093908299983,708454,001,2024-07-03_14h09.26.400,5-all in one,2024.1.4,None,2024-07-03 14h09.31.280814 +0900,
Images/Speaker1.jpg,Images/Speaker2.jpg,Images/Speaker3.jpg,Images/Speaker4.jpg,Audio/Speaker2_Per/P2-4-Per.wav,Speaker2,گوینده۲,1,77,157,23,,,,,65.85470504099976,,,,,,,,,,,,,,,,,,,,,,,,,,,,,,,,,,,,,,,,,,,,,50.00679741600106,0.0,False,50.0069841250006,708454,001,2024-07-03_14h09.26.400,5-all in one,2024.1.4,None,2024-07-03 14h09.31.280814 +0900,
Images/Speaker1.jpg,Images/Speaker2.jpg,Images/Speaker3.jpg,Images/Speaker4.jpg,Audio/Speaker3_Per/P3-10-Per.wav,Speaker3,گوینده۳,1,78,158,49,,,,,65.85470504099976,,,,,,,,,,,,,,,,,,,,,,,,,,,,,,,,,,,,,,,,,,,,,50.02327712500119,0.0,False,50.02346100000068,708454,001,2024-07-03_14h09.26.400,5-all in one,2024.1.4,None,2024-07-03 14h09.31.280814 +0900,
Images/Speaker1.jpg,Images/Speaker2.jpg,Images/Speaker3.jpg,Images/Speaker4.jpg,Audio/Speaker4_Per/P4-15-Per.wav,Speaker4,گوینده۴,1,79,159,74,,,,,65.85470504099976,,,,,,,,,,,,,,,,,,,,,,,,,,,,,,,,,,,,,,,,,,,,,50.039090708,0.0,False,50.03928433300098,708454,001,2024-07-03_14h09.26.400,5-all in one,2024.1.4,None,2024-07-03 14h09.31.280814 +0900,
Images/Speaker1.jpg,Images/Speaker2.jpg,Images/Speaker3.jpg,Images/Speaker4.jpg,Audio/Speaker2_Per/P2-6-Per.wav,Speaker2,گوینده۲,2,0,160,25,,,,,65.85470504099976,,,,,,,,,,,,,,,,,,,,,,,,,,,,,,,,,,,,,,,,,,,,,50.05517283300105,0.0,False,50.05535979100023,708454,001,2024-07-03_14h09.26.400,5-all in one,2024.1.4,None,2024-07-03 14h09.31.280814 +0900,
Images/Speaker1.jpg,Images/Speaker2.jpg,Images/Speaker3.jpg,Images/Speaker4.jpg,Audio/Speaker4_Per/P4-3-Per.wav,Speaker4,گوینده۴,2,1,161,62,,,,,65.85470504099976,,,,,,,,,,,,,,,,,,,,,,,,,,,,,,,,,,,,,,,,,,,,,50.0712727500013,0.0,False,50.0715069580001,708454,001,2024-07-03_14h09.26.400,5-all in one,2024.1.4,None,2024-07-03 14h09.31.280814 +0900,
Images/Speaker1.jpg,Images/Speaker2.jpg,Images/Speaker3.jpg,Images/Speaker4.jpg,Audio/Speaker1_Per/P1-13-Per.wav,Speaker1,گوینده ۱,2,2,162,12,,,,,65.85470504099976,,,,,,,,,,,,,,,,,,,,,,,,,,,,,,,,,,,,,,,,,,,,,50.087956041001235,0.0,False,50.0881315000006,708454,001,2024-07-03_14h09.26.400,5-all in one,2024.1.4,None,2024-07-03 14h09.31.280814 +0900,
Images/Speaker1.jpg,Images/Speaker2.jpg,Images/Speaker3.jpg,Images/Speaker4.jpg,Audio/Speaker2_Per/P2-9-Per.wav,Speaker2,گوینده۲,2,3,163,28,,,,,65.85470504099976,,,,,,,,,,,,,,,,,,,,,,,,,,,,,,,,,,,,,,,,,,,,,50.10389891600062,0.0,False,50.10408270799962,708454,001,2024-07-03_14h09.26.400,5-all in one,2024.1.4,None,2024-07-03 14h09.31.280814 +0900,
Images/Speaker1.jpg,Images/Speaker2.jpg,Images/Speaker3.jpg,Images/Speaker4.jpg,Audio/Speaker3_Per/P3-14-Per.wav,Speaker3,گوینده۳,2,4,164,53,,,,,65.85470504099976,,,,,,,,,,,,,,,,,,,,,,,,,,,,,,,,,,,,,,,,,,,,,50.119957208000415,0.0,False,50.120169625000926,708454,001,2024-07-03_14h09.26.400,5-all in one,2024.1.4,None,2024-07-03 14h09.31.280814 +0900,
Images/Speaker1.jpg,Images/Speaker2.jpg,Images/Speaker3.jpg,Images/Speaker4.jpg,Audio/Speaker2_Per/P2-15-Per.wav,Speaker2,گوینده۲,2,5,165,34,,,,,65.85470504099976,,,,,,,,,,,,,,,,,,,,,,,,,,,,,,,,,,,,,,,,,,,,,50.13586895800108,0.0,False,50.1360518750007,708454,001,2024-07-03_14h09.26.400,5-all in one,2024.1.4,None,2024-07-03 14h09.31.280814 +0900,
Images/Speaker1.jpg,Images/Speaker2.jpg,Images/Speaker3.jpg,Images/Speaker4.jpg,Audio/Speaker1_Per/P1-20-Per.wav,Speaker1,گوینده ۱,2,6,166,19,,,,,65.85470504099976,,,,,,,,,,,,,,,,,,,,,,,,,,,,,,,,,,,,,,,,,,,,,50.15254554100102,0.0,False,50.152731250000215,708454,001,2024-07-03_14h09.26.400,5-all in one,2024.1.4,None,2024-07-03 14h09.31.280814 +0900,
Images/Speaker1.jpg,Images/Speaker2.jpg,Images/Speaker3.jpg,Images/Speaker4.jpg,Audio/Speaker3_Per/P3-1-Per.wav,Speaker3,گوینده۳,2,7,167,40,,,,,65.85470504099976,,,,,,,,,,,,,,,,,,,,,,,,,,,,,,,,,,,,,,,,,,,,,50.16843725000035,0.0,False,50.1686257500005,708454,001,2024-07-03_14h09.26.400,5-all in one,2024.1.4,None,2024-07-03 14h09.31.280814 +0900,
Images/Speaker1.jpg,Images/Speaker2.jpg,Images/Speaker3.jpg,Images/Speaker4.jpg,Audio/Speaker3_Per/P3-9-Per.wav,Speaker3,گوینده۳,2,8,168,48,,,,,65.85470504099976,,,,,,,,,,,,,,,,,,,,,,,,,,,,,,,,,,,,,,,,,,,,,50.18444087500029,0.0,False,50.18467058300121,708454,001,2024-07-03_14h09.26.400,5-all in one,2024.1.4,None,2024-07-03 14h09.31.280814 +0900,
Images/Speaker1.jpg,Images/Speaker2.jpg,Images/Speaker3.jpg,Images/Speaker4.jpg,Audio/Speaker4_Per/P4-15-Per.wav,Speaker4,گوینده۴,2,9,169,74,,,,,65.85470504099976,,,,,,,,,,,,,,,,,,,,,,,,,,,,,,,,,,,,,,,,,,,,,50.20033670799967,0.0,False,50.20055166600105,708454,001,2024-07-03_14h09.26.400,5-all in one,2024.1.4,None,2024-07-03 14h09.31.280814 +0900,
Images/Speaker1.jpg,Images/Speaker2.jpg,Images/Speaker3.jpg,Images/Speaker4.jpg,Audio/Speaker1_Per/P1-18-Per.wav,Speaker1,گوینده ۱,2,10,170,17,,,,,65.85470504099976,,,,,,,,,,,,,,,,,,,,,,,,,,,,,,,,,,,,,,,,,,,,,50.216767457999595,0.0,False,50.21692716600046,708454,001,2024-07-03_14h09.26.400,5-all in one,2024.1.4,None,2024-07-03 14h09.31.280814 +0900,
Images/Speaker1.jpg,Images/Speaker2.jpg,Images/Speaker3.jpg,Images/Speaker4.jpg,Audio/Speaker2_Per/P2-3-Per.wav,Speaker2,گوینده۲,2,11,171,22,,,,,65.85470504099976,,,,,,,,,,,,,,,,,,,,,,,,,,,,,,,,,,,,,,,,,,,,,50.232606416000635,0.0,False,50.232825582999794,708454,001,2024-07-03_14h09.26.400,5-all in one,2024.1.4,None,2024-07-03 14h09.31.280814 +0900,
Images/Speaker1.jpg,Images/Speaker2.jpg,Images/Speaker3.jpg,Images/Speaker4.jpg,Audio/Speaker4_Per/P4-18-Per.wav,Speaker4,گوینده۴,2,12,172,77,,,,,65.85470504099976,,,,,,,,,,,,,,,,,,,,,,,,,,,,,,,,,,,,,,,,,,,,,50.24853249999978,0.0,False,50.24872845800019,708454,001,2024-07-03_14h09.26.400,5-all in one,2024.1.4,None,2024-07-03 14h09.31.280814 +0900,
Images/Speaker1.jpg,Images/Speaker2.jpg,Images/Speaker3.jpg,Images/Speaker4.jpg,Audio/Speaker4_Per/P4-11-Per.wav,Speaker4,گوینده۴,2,13,173,70,,,,,65.85470504099976,,,,,,,,,,,,,,,,,,,,,,,,,,,,,,,,,,,,,,,,,,,,,50.26457429100083,0.0,False,50.26480745800109,708454,001,2024-07-03_14h09.26.400,5-all in one,2024.1.4,None,2024-07-03 14h09.31.280814 +0900,
Images/Speaker1.jpg,Images/Speaker2.jpg,Images/Speaker3.jpg,Images/Speaker4.jpg,Audio/Speaker4_Per/P4-12-Per.wav,Speaker4,گوینده۴,2,14,174,71,,,,,65.85470504099976,,,,,,,,,,,,,,,,,,,,,,,,,,,,,,,,,,,,,,,,,,,,,50.28131658300117,0.0,False,50.28150625000126,708454,001,2024-07-03_14h09.26.400,5-all in one,2024.1.4,None,2024-07-03 14h09.31.280814 +0900,
Images/Speaker1.jpg,Images/Speaker2.jpg,Images/Speaker3.jpg,Images/Speaker4.jpg,Audio/Speaker1_Per/P1-17-Per.wav,Speaker1,گوینده ۱,2,15,175,16,,,,,65.85470504099976,,,,,,,,,,,,,,,,,,,,,,,,,,,,,,,,,,,,,,,,,,,,,50.29733283300084,0.0,False,50.29754920800042,708454,001,2024-07-03_14h09.26.400,5-all in one,2024.1.4,None,2024-07-03 14h09.31.280814 +0900,
Images/Speaker1.jpg,Images/Speaker2.jpg,Images/Speaker3.jpg,Images/Speaker4.jpg,Audio/Speaker1_Per/P1-11-Per.wav,Speaker1,گوینده ۱,2,16,176,10,,,,,65.85470504099976,,,,,,,,,,,,,,,,,,,,,,,,,,,,,,,,,,,,,,,,,,,,,50.31316875000084,0.0,False,50.313407666000785,708454,001,2024-07-03_14h09.26.400,5-all in one,2024.1.4,None,2024-07-03 14h09.31.280814 +0900,
Images/Speaker1.jpg,Images/Speaker2.jpg,Images/Speaker3.jpg,Images/Speaker4.jpg,Audio/Speaker2_Per/P2-7-Per.wav,Speaker2,گوینده۲,2,17,177,26,,,,,65.85470504099976,,,,,,,,,,,,,,,,,,,,,,,,,,,,,,,,,,,,,,,,,,,,,50.32903208300013,0.0,False,50.329282665999926,708454,001,2024-07-03_14h09.26.400,5-all in one,2024.1.4,None,2024-07-03 14h09.31.280814 +0900,
Images/Speaker1.jpg,Images/Speaker2.jpg,Images/Speaker3.jpg,Images/Speaker4.jpg,Audio/Speaker1_Per/P1-5-Per.wav,Speaker1,گوینده ۱,2,18,178,4,,,,,65.85470504099976,,,,,,,,,,,,,,,,,,,,,,,,,,,,,,,,,,,,,,,,,,,,,50.34551745800127,0.0,False,50.345692750001035,708454,001,2024-07-03_14h09.26.400,5-all in one,2024.1.4,None,2024-07-03 14h09.31.280814 +0900,
Images/Speaker1.jpg,Images/Speaker2.jpg,Images/Speaker3.jpg,Images/Speaker4.jpg,Audio/Speaker1_Per/P1-10-Per.wav,Speaker1,گوینده ۱,2,19,179,9,,,,,65.85470504099976,,,,,,,,,,,,,,,,,,,,,,,,,,,,,,,,,,,,,,,,,,,,,50.36159041599967,0.0,False,50.36178891599957,708454,001,2024-07-03_14h09.26.400,5-all in one,2024.1.4,None,2024-07-03 14h09.31.280814 +0900,
Images/Speaker1.jpg,Images/Speaker2.jpg,Images/Speaker3.jpg,Images/Speaker4.jpg,Audio/Speaker3_Per/P3-12-Per.wav,Speaker3,گوینده۳,2,20,180,51,,,,,65.85470504099976,,,,,,,,,,,,,,,,,,,,,,,,,,,,,,,,,,,,,,,,,,,,,50.37767070799964,0.0,False,50.37788512500083,708454,001,2024-07-03_14h09.26.400,5-all in one,2024.1.4,None,2024-07-03 14h09.31.280814 +0900,
Images/Speaker1.jpg,Images/Speaker2.jpg,Images/Speaker3.jpg,Images/Speaker4.jpg,Audio/Speaker2_Per/P2-13-Per.wav,Speaker2,گوینده۲,2,21,181,32,,,,,65.85470504099976,,,,,,,,,,,,,,,,,,,,,,,,,,,,,,,,,,,,,,,,,,,,,50.39381787500133,0.0,False,50.39401633300076,708454,001,2024-07-03_14h09.26.400,5-all in one,2024.1.4,None,2024-07-03 14h09.31.280814 +0900,
Images/Speaker1.jpg,Images/Speaker2.jpg,Images/Speaker3.jpg,Images/Speaker4.jpg,Audio/Speaker4_Per/P4-7-Per.wav,Speaker4,گوینده۴,2,22,182,66,,,,,65.85470504099976,,,,,,,,,,,,,,,,,,,,,,,,,,,,,,,,,,,,,,,,,,,,,50.41037445800066,0.0,False,50.410537791000024,708454,001,2024-07-03_14h09.26.400,5-all in one,2024.1.4,None,2024-07-03 14h09.31.280814 +0900,
Images/Speaker1.jpg,Images/Speaker2.jpg,Images/Speaker3.jpg,Images/Speaker4.jpg,Audio/Speaker3_Per/P3-15-Per.wav,Speaker3,گوینده۳,2,23,183,54,,,,,65.85470504099976,,,,,,,,,,,,,,,,,,,,,,,,,,,,,,,,,,,,,,,,,,,,,50.426281083000504,0.0,False,50.42644533299972,708454,001,2024-07-03_14h09.26.400,5-all in one,2024.1.4,None,2024-07-03 14h09.31.280814 +0900,
Images/Speaker1.jpg,Images/Speaker2.jpg,Images/Speaker3.jpg,Images/Speaker4.jpg,Audio/Speaker4_Per/P4-8-Per.wav,Speaker4,گوینده۴,2,24,184,67,,,,,65.85470504099976,,,,,,,,,,,,,,,,,,,,,,,,,,,,,,,,,,,,,,,,,,,,,50.442121333000614,0.0,False,50.442363000000114,708454,001,2024-07-03_14h09.26.400,5-all in one,2024.1.4,None,2024-07-03 14h09.31.280814 +0900,
Images/Speaker1.jpg,Images/Speaker2.jpg,Images/Speaker3.jpg,Images/Speaker4.jpg,Audio/Speaker4_Per/P4-5-Per.wav,Speaker4,گوینده۴,2,25,185,64,,,,,65.85470504099976,,,,,,,,,,,,,,,,,,,,,,,,,,,,,,,,,,,,,,,,,,,,,50.45810354100104,0.0,False,50.45831200000066,708454,001,2024-07-03_14h09.26.400,5-all in one,2024.1.4,None,2024-07-03 14h09.31.280814 +0900,
Images/Speaker1.jpg,Images/Speaker2.jpg,Images/Speaker3.jpg,Images/Speaker4.jpg,Audio/Speaker3_Per/P3-16-Per.wav,Speaker3,گوینده۳,2,26,186,55,,,,,65.85470504099976,,,,,,,,,,,,,,,,,,,,,,,,,,,,,,,,,,,,,,,,,,,,,50.47468558299988,0.0,False,50.47487870800069,708454,001,2024-07-03_14h09.26.400,5-all in one,2024.1.4,None,2024-07-03 14h09.31.280814 +0900,
Images/Speaker1.jpg,Images/Speaker2.jpg,Images/Speaker3.jpg,Images/Speaker4.jpg,Audio/Speaker3_Per/P3-10-Per.wav,Speaker3,گوینده۳,2,27,187,49,,,,,65.85470504099976,,,,,,,,,,,,,,,,,,,,,,,,,,,,,,,,,,,,,,,,,,,,,50.49065983299988,0.0,False,50.49085108300096,708454,001,2024-07-03_14h09.26.400,5-all in one,2024.1.4,None,2024-07-03 14h09.31.280814 +0900,
Images/Speaker1.jpg,Images/Speaker2.jpg,Images/Speaker3.jpg,Images/Speaker4.jpg,Audio/Speaker1_Per/P1-1-Per.wav,Speaker1,گوینده ۱,2,28,188,0,,,,,65.85470504099976,,,,,,,,,,,,,,,,,,,,,,,,,,,,,,,,,,,,,,,,,,,,,50.50651241600099,0.0,False,50.50669291600025,708454,001,2024-07-03_14h09.26.400,5-all in one,2024.1.4,None,2024-07-03 14h09.31.280814 +0900,
Images/Speaker1.jpg,Images/Speaker2.jpg,Images/Speaker3.jpg,Images/Speaker4.jpg,Audio/Speaker1_Per/P1-7-Per.wav,Speaker1,گوینده ۱,2,29,189,6,,,,,65.85470504099976,,,,,,,,,,,,,,,,,,,,,,,,,,,,,,,,,,,,,,,,,,,,,50.522597166000196,0.0,False,50.522795291000875,708454,001,2024-07-03_14h09.26.400,5-all in one,2024.1.4,None,2024-07-03 14h09.31.280814 +0900,
Images/Speaker1.jpg,Images/Speaker2.jpg,Images/Speaker3.jpg,Images/Speaker4.jpg,Audio/Speaker1_Per/P1-16-Per.wav,Speaker1,گوینده ۱,2,30,190,15,,,,,65.85470504099976,,,,,,,,,,,,,,,,,,,,,,,,,,,,,,,,,,,,,,,,,,,,,50.53924829100106,0.0,False,50.53943837500083,708454,001,2024-07-03_14h09.26.400,5-all in one,2024.1.4,None,2024-07-03 14h09.31.280814 +0900,
Images/Speaker1.jpg,Images/Speaker2.jpg,Images/Speaker3.jpg,Images/Speaker4.jpg,Audio/Speaker2_Per/P2-1-Per.wav,Speaker2,گوینده۲,2,31,191,20,,,,,65.85470504099976,,,,,,,,,,,,,,,,,,,,,,,,,,,,,,,,,,,,,,,,,,,,,50.55524950000108,0.0,False,50.55548174999967,708454,001,2024-07-03_14h09.26.400,5-all in one,2024.1.4,None,2024-07-03 14h09.31.280814 +0900,
Images/Speaker1.jpg,Images/Speaker2.jpg,Images/Speaker3.jpg,Images/Speaker4.jpg,Audio/Speaker2_Per/P2-12-Per.wav,Speaker2,گوینده۲,2,32,192,31,,,,,65.85470504099976,,,,,,,,,,,,,,,,,,,,,,,,,,,,,,,,,,,,,,,,,,,,,50.57137812499968,0.0,False,50.57156508300068,708454,001,2024-07-03_14h09.26.400,5-all in one,2024.1.4,None,2024-07-03 14h09.31.280814 +0900,
Images/Speaker1.jpg,Images/Speaker2.jpg,Images/Speaker3.jpg,Images/Speaker4.jpg,Audio/Speaker2_Per/P2-8-Per.wav,Speaker2,گوینده۲,2,33,193,27,,,,,65.85470504099976,,,,,,,,,,,,,,,,,,,,,,,,,,,,,,,,,,,,,,,,,,,,,50.58721616600087,0.0,False,50.587425458001235,708454,001,2024-07-03_14h09.26.400,5-all in one,2024.1.4,None,2024-07-03 14h09.31.280814 +0900,
Images/Speaker1.jpg,Images/Speaker2.jpg,Images/Speaker3.jpg,Images/Speaker4.jpg,Audio/Speaker3_Per/P3-13-Per.wav,Speaker3,گوینده۳,2,34,194,52,,,,,65.85470504099976,,,,,,,,,,,,,,,,,,,,,,,,,,,,,,,,,,,,,,,,,,,,,50.60382979099995,0.0,False,50.60401666600046,708454,001,2024-07-03_14h09.26.400,5-all in one,2024.1.4,None,2024-07-03 14h09.31.280814 +0900,
Images/Speaker1.jpg,Images/Speaker2.jpg,Images/Speaker3.jpg,Images/Speaker4.jpg,Audio/Speaker1_Per/P1-8-Per.wav,Speaker1,گوینده ۱,2,35,195,7,,,,,65.85470504099976,,,,,,,,,,,,,,,,,,,,,,,,,,,,,,,,,,,,,,,,,,,,,50.61983395800053,0.0,False,50.6200135830004,708454,001,2024-07-03_14h09.26.400,5-all in one,2024.1.4,None,2024-07-03 14h09.31.280814 +0900,
Images/Speaker1.jpg,Images/Speaker2.jpg,Images/Speaker3.jpg,Images/Speaker4.jpg,Audio/Speaker2_Per/P2-4-Per.wav,Speaker2,گوینده۲,2,36,196,23,,,,,65.85470504099976,,,,,,,,,,,,,,,,,,,,,,,,,,,,,,,,,,,,,,,,,,,,,50.63576862500122,0.0,False,50.635951000000205,708454,001,2024-07-03_14h09.26.400,5-all in one,2024.1.4,None,2024-07-03 14h09.31.280814 +0900,
Images/Speaker1.jpg,Images/Speaker2.jpg,Images/Speaker3.jpg,Images/Speaker4.jpg,Audio/Speaker2_Per/P2-14-Per.wav,Speaker2,گوینده۲,2,37,197,33,,,,,65.85470504099976,,,,,,,,,,,,,,,,,,,,,,,,,,,,,,,,,,,,,,,,,,,,,50.65179750000061,0.0,False,50.652029708000555,708454,001,2024-07-03_14h09.26.400,5-all in one,2024.1.4,None,2024-07-03 14h09.31.280814 +0900,
Images/Speaker1.jpg,Images/Speaker2.jpg,Images/Speaker3.jpg,Images/Speaker4.jpg,Audio/Speaker2_Per/P2-2-Per.wav,Speaker2,گوینده۲,2,38,198,21,,,,,65.85470504099976,,,,,,,,,,,,,,,,,,,,,,,,,,,,,,,,,,,,,,,,,,,,,50.668575458001214,0.0,False,50.668765291000454,708454,001,2024-07-03_14h09.26.400,5-all in one,2024.1.4,None,2024-07-03 14h09.31.280814 +0900,
Images/Speaker1.jpg,Images/Speaker2.jpg,Images/Speaker3.jpg,Images/Speaker4.jpg,Audio/Speaker4_Per/P4-10-Per.wav,Speaker4,گوینده۴,2,39,199,69,,,,,65.85470504099976,,,,,,,,,,,,,,,,,,,,,,,,,,,,,,,,,,,,,,,,,,,,,50.68449995800074,0.0,False,50.684693958000935,708454,001,2024-07-03_14h09.26.400,5-all in one,2024.1.4,None,2024-07-03 14h09.31.280814 +0900,
Images/Speaker1.jpg,Images/Speaker2.jpg,Images/Speaker3.jpg,Images/Speaker4.jpg,Audio/Speaker2_Per/P2-20-Per.wav,Speaker2,گوینده۲,2,40,200,39,,,,,65.85470504099976,,,,,,,,,,,,,,,,,,,,,,,,,,,,,,,,,,,,,,,,,,,,,50.70039312500012,0.0,False,50.700567833000605,708454,001,2024-07-03_14h09.26.400,5-all in one,2024.1.4,None,2024-07-03 14h09.31.280814 +0900,
Images/Speaker1.jpg,Images/Speaker2.jpg,Images/Speaker3.jpg,Images/Speaker4.jpg,Audio/Speaker2_Per/P2-19-Per.wav,Speaker2,گوینده۲,2,41,201,38,,,,,65.85470504099976,,,,,,,,,,,,,,,,,,,,,,,,,,,,,,,,,,,,,,,,,,,,,50.71651479100001,0.0,False,50.716694541000834,708454,001,2024-07-03_14h09.26.400,5-all in one,2024.1.4,None,2024-07-03 14h09.31.280814 +0900,
Images/Speaker1.jpg,Images/Speaker2.jpg,Images/Speaker3.jpg,Images/Speaker4.jpg,Audio/Speaker1_Per/P1-19-Per.wav,Speaker1,گوینده ۱,2,42,202,18,,,,,65.85470504099976,,,,,,,,,,,,,,,,,,,,,,,,,,,,,,,,,,,,,,,,,,,,,50.73324783300086,0.0,False,50.73346933300127,708454,001,2024-07-03_14h09.26.400,5-all in one,2024.1.4,None,2024-07-03 14h09.31.280814 +0900,
Images/Speaker1.jpg,Images/Speaker2.jpg,Images/Speaker3.jpg,Images/Speaker4.jpg,Audio/Speaker4_Per/P4-19-Per.wav,Speaker4,گوینده۴,2,43,203,78,,,,,65.85470504099976,,,,,,,,,,,,,,,,,,,,,,,,,,,,,,,,,,,,,,,,,,,,,50.74934612499965,0.0,False,50.74952316599956,708454,001,2024-07-03_14h09.26.400,5-all in one,2024.1.4,None,2024-07-03 14h09.31.280814 +0900,
Images/Speaker1.jpg,Images/Speaker2.jpg,Images/Speaker3.jpg,Images/Speaker4.jpg,Audio/Speaker2_Per/P2-11-Per.wav,Speaker2,گوینده۲,2,44,204,30,,,,,65.85470504099976,,,,,,,,,,,,,,,,,,,,,,,,,,,,,,,,,,,,,,,,,,,,,50.765284000000975,0.0,False,50.76555341600033,708454,001,2024-07-03_14h09.26.400,5-all in one,2024.1.4,None,2024-07-03 14h09.31.280814 +0900,
Images/Speaker1.jpg,Images/Speaker2.jpg,Images/Speaker3.jpg,Images/Speaker4.jpg,Audio/Speaker4_Per/P4-6-Per.wav,Speaker4,گوینده۴,2,45,205,65,,,,,65.85470504099976,,,,,,,,,,,,,,,,,,,,,,,,,,,,,,,,,,,,,,,,,,,,,50.781584624999596,0.0,False,50.78179595800066,708454,001,2024-07-03_14h09.26.400,5-all in one,2024.1.4,None,2024-07-03 14h09.31.280814 +0900,
Images/Speaker1.jpg,Images/Speaker2.jpg,Images/Speaker3.jpg,Images/Speaker4.jpg,Audio/Speaker1_Per/P1-9-Per.wav,Speaker1,گوینده ۱,2,46,206,8,,,,,65.85470504099976,,,,,,,,,,,,,,,,,,,,,,,,,,,,,,,,,,,,,,,,,,,,,50.798056333000204,0.0,False,50.79824804100099,708454,001,2024-07-03_14h09.26.400,5-all in one,2024.1.4,None,2024-07-03 14h09.31.280814 +0900,
Images/Speaker1.jpg,Images/Speaker2.jpg,Images/Speaker3.jpg,Images/Speaker4.jpg,Audio/Speaker1_Per/P1-12-Per.wav,Speaker1,گوینده ۱,2,47,207,11,,,,,65.85470504099976,,,,,,,,,,,,,,,,,,,,,,,,,,,,,,,,,,,,,,,,,,,,,50.81403095800124,0.0,False,50.81422066599953,708454,001,2024-07-03_14h09.26.400,5-all in one,2024.1.4,None,2024-07-03 14h09.31.280814 +0900,
Images/Speaker1.jpg,Images/Speaker2.jpg,Images/Speaker3.jpg,Images/Speaker4.jpg,Audio/Speaker3_Per/P3-11-Per.wav,Speaker3,گوینده۳,2,48,208,50,,,,,65.85470504099976,,,,,,,,,,,,,,,,,,,,,,,,,,,,,,,,,,,,,,,,,,,,,50.829998791001344,0.0,False,50.83023979100108,708454,001,2024-07-03_14h09.26.400,5-all in one,2024.1.4,None,2024-07-03 14h09.31.280814 +0900,
Images/Speaker1.jpg,Images/Speaker2.jpg,Images/Speaker3.jpg,Images/Speaker4.jpg,Audio/Speaker1_Per/P1-3-Per.wav,Speaker1,گوینده ۱,2,49,209,2,,,,,65.85470504099976,,,,,,,,,,,,,,,,,,,,,,,,,,,,,,,,,,,,,,,,,,,,,50.84602412499953,0.0,False,50.84627070799979,708454,001,2024-07-03_14h09.26.400,5-all in one,2024.1.4,None,2024-07-03 14h09.31.280814 +0900,
Images/Speaker1.jpg,Images/Speaker2.jpg,Images/Speaker3.jpg,Images/Speaker4.jpg,Audio/Speaker3_Per/P3-5-Per.wav,Speaker3,گوینده۳,2,50,210,44,,,,,65.85470504099976,,,,,,,,,,,,,,,,,,,,,,,,,,,,,,,,,,,,,,,,,,,,,50.862795708000704,0.0,False,50.862981375001254,708454,001,2024-07-03_14h09.26.400,5-all in one,2024.1.4,None,2024-07-03 14h09.31.280814 +0900,
Images/Speaker1.jpg,Images/Speaker2.jpg,Images/Speaker3.jpg,Images/Speaker4.jpg,Audio/Speaker4_Per/P4-4-Per.wav,Speaker4,گوینده۴,2,51,211,63,,,,,65.85470504099976,,,,,,,,,,,,,,,,,,,,,,,,,,,,,,,,,,,,,,,,,,,,,50.878892958000506,0.0,False,50.879079041000296,708454,001,2024-07-03_14h09.26.400,5-all in one,2024.1.4,None,2024-07-03 14h09.31.280814 +0900,
Images/Speaker1.jpg,Images/Speaker2.jpg,Images/Speaker3.jpg,Images/Speaker4.jpg,Audio/Speaker3_Per/P3-2-Per.wav,Speaker3,گوینده۳,2,52,212,41,,,,,65.85470504099976,,,,,,,,,,,,,,,,,,,,,,,,,,,,,,,,,,,,,,,,,,,,,50.89470720800091,0.0,False,50.89490020800076,708454,001,2024-07-03_14h09.26.400,5-all in one,2024.1.4,None,2024-07-03 14h09.31.280814 +0900,
Images/Speaker1.jpg,Images/Speaker2.jpg,Images/Speaker3.jpg,Images/Speaker4.jpg,Audio/Speaker3_Per/P3-3-Per.wav,Speaker3,گوینده۳,2,53,213,42,,,,,65.85470504099976,,,,,,,,,,,,,,,,,,,,,,,,,,,,,,,,,,,,,,,,,,,,,50.91068029100097,0.0,False,50.910879958000805,708454,001,2024-07-03_14h09.26.400,5-all in one,2024.1.4,None,2024-07-03 14h09.31.280814 +0900,
Images/Speaker1.jpg,Images/Speaker2.jpg,Images/Speaker3.jpg,Images/Speaker4.jpg,Audio/Speaker3_Per/P3-8-Per.wav,Speaker3,گوینده۳,2,54,214,47,,,,,65.85470504099976,,,,,,,,,,,,,,,,,,,,,,,,,,,,,,,,,,,,,,,,,,,,,50.92736933299966,0.0,False,50.927550415999576,708454,001,2024-07-03_14h09.26.400,5-all in one,2024.1.4,None,2024-07-03 14h09.31.280814 +0900,
Images/Speaker1.jpg,Images/Speaker2.jpg,Images/Speaker3.jpg,Images/Speaker4.jpg,Audio/Speaker4_Per/P4-14-Per.wav,Speaker4,گوینده۴,2,55,215,73,,,,,65.85470504099976,,,,,,,,,,,,,,,,,,,,,,,,,,,,,,,,,,,,,,,,,,,,,50.943141791000016,0.0,False,50.9433306660012,708454,001,2024-07-03_14h09.26.400,5-all in one,2024.1.4,None,2024-07-03 14h09.31.280814 +0900,
Images/Speaker1.jpg,Images/Speaker2.jpg,Images/Speaker3.jpg,Images/Speaker4.jpg,Audio/Speaker1_Per/P1-15-Per.wav,Speaker1,گوینده ۱,2,56,216,14,,,,,65.85470504099976,,,,,,,,,,,,,,,,,,,,,,,,,,,,,,,,,,,,,,,,,,,,,50.959104290999676,0.0,False,50.95928979100063,708454,001,2024-07-03_14h09.26.400,5-all in one,2024.1.4,None,2024-07-03 14h09.31.280814 +0900,
Images/Speaker1.jpg,Images/Speaker2.jpg,Images/Speaker3.jpg,Images/Speaker4.jpg,Audio/Speaker2_Per/P2-16-Per.wav,Speaker2,گوینده۲,2,57,217,35,,,,,65.85470504099976,,,,,,,,,,,,,,,,,,,,,,,,,,,,,,,,,,,,,,,,,,,,,50.97524358299961,0.0,False,50.975432332999844,708454,001,2024-07-03_14h09.26.400,5-all in one,2024.1.4,None,2024-07-03 14h09.31.280814 +0900,
Images/Speaker1.jpg,Images/Speaker2.jpg,Images/Speaker3.jpg,Images/Speaker4.jpg,Audio/Speaker4_Per/P4-20-Per.wav,Speaker4,گوینده۴,2,58,218,79,,,,,65.85470504099976,,,,,,,,,,,,,,,,,,,,,,,,,,,,,,,,,,,,,,,,,,,,,50.991694874999666,0.0,False,50.99186070799988,708454,001,2024-07-03_14h09.26.400,5-all in one,2024.1.4,None,2024-07-03 14h09.31.280814 +0900,
Images/Speaker1.jpg,Images/Speaker2.jpg,Images/Speaker3.jpg,Images/Speaker4.jpg,Audio/Speaker3_Per/P3-20-Per.wav,Speaker3,گوینده۳,2,59,219,59,,,,,65.85470504099976,,,,,,,,,,,,,,,,,,,,,,,,,,,,,,,,,,,,,,,,,,,,,51.007638166000106,0.0,False,51.00781850000021,708454,001,2024-07-03_14h09.26.400,5-all in one,2024.1.4,None,2024-07-03 14h09.31.280814 +0900,
Images/Speaker1.jpg,Images/Speaker2.jpg,Images/Speaker3.jpg,Images/Speaker4.jpg,Audio/Speaker4_Per/P4-9-Per.wav,Speaker4,گوینده۴,2,60,220,68,,,,,65.85470504099976,,,,,,,,,,,,,,,,,,,,,,,,,,,,,,,,,,,,,,,,,,,,,51.023543833000076,0.0,False,51.023736791001284,708454,001,2024-07-03_14h09.26.400,5-all in one,2024.1.4,None,2024-07-03 14h09.31.280814 +0900,
Images/Speaker1.jpg,Images/Speaker2.jpg,Images/Speaker3.jpg,Images/Speaker4.jpg,Audio/Speaker3_Per/P3-6-Per.wav,Speaker3,گوینده۳,2,61,221,45,,,,,65.85470504099976,,,,,,,,,,,,,,,,,,,,,,,,,,,,,,,,,,,,,,,,,,,,,51.0394853329999,0.0,False,51.03967533300056,708454,001,2024-07-03_14h09.26.400,5-all in one,2024.1.4,None,2024-07-03 14h09.31.280814 +0900,
Images/Speaker1.jpg,Images/Speaker2.jpg,Images/Speaker3.jpg,Images/Speaker4.jpg,Audio/Speaker4_Per/P4-1-Per.wav,Speaker4,گوینده۴,2,62,222,60,,,,,65.85470504099976,,,,,,,,,,,,,,,,,,,,,,,,,,,,,,,,,,,,,,,,,,,,,51.05620395799997,0.0,False,51.056406208001135,708454,001,2024-07-03_14h09.26.400,5-all in one,2024.1.4,None,2024-07-03 14h09.31.280814 +0900,
Images/Speaker1.jpg,Images/Speaker2.jpg,Images/Speaker3.jpg,Images/Speaker4.jpg,Audio/Speaker3_Per/P3-18-Per.wav,Speaker3,گوینده۳,2,63,223,57,,,,,65.85470504099976,,,,,,,,,,,,,,,,,,,,,,,,,,,,,,,,,,,,,,,,,,,,,51.07208483300019,0.0,False,51.072264291000465,708454,001,2024-07-03_14h09.26.400,5-all in one,2024.1.4,None,2024-07-03 14h09.31.280814 +0900,
Images/Speaker1.jpg,Images/Speaker2.jpg,Images/Speaker3.jpg,Images/Speaker4.jpg,Audio/Speaker1_Per/P1-6-Per.wav,Speaker1,گوینده ۱,2,64,224,5,,,,,65.85470504099976,,,,,,,,,,,,,,,,,,,,,,,,,,,,,,,,,,,,,,,,,,,,,51.08802354100044,0.0,False,51.08819845800099,708454,001,2024-07-03_14h09.26.400,5-all in one,2024.1.4,None,2024-07-03 14h09.31.280814 +0900,
Images/Speaker1.jpg,Images/Speaker2.jpg,Images/Speaker3.jpg,Images/Speaker4.jpg,Audio/Speaker1_Per/P1-4-Per.wav,Speaker1,گوینده ۱,2,65,225,13,,,,,65.85470504099976,,,,,,,,,,,,,,,,,,,,,,,,,,,,,,,,,,,,,,,,,,,,,51.10407624999971,0.0,False,51.10427195800003,708454,001,2024-07-03_14h09.26.400,5-all in one,2024.1.4,None,2024-07-03 14h09.31.280814 +0900,
Images/Speaker1.jpg,Images/Speaker2.jpg,Images/Speaker3.jpg,Images/Speaker4.jpg,Audio/Speaker3_Per/P3-4-Per.wav,Speaker3,گوینده۳,2,66,226,43,,,,,65.85470504099976,,,,,,,,,,,,,,,,,,,,,,,,,,,,,,,,,,,,,,,,,,,,,51.12070275000042,0.0,False,51.12089533300059,708454,001,2024-07-03_14h09.26.400,5-all in one,2024.1.4,None,2024-07-03 14h09.31.280814 +0900,
Images/Speaker1.jpg,Images/Speaker2.jpg,Images/Speaker3.jpg,Images/Speaker4.jpg,Audio/Speaker3_Per/P3-7-Per.wav,Speaker3,گوینده۳,2,67,227,46,,,,,65.85470504099976,,,,,,,,,,,,,,,,,,,,,,,,,,,,,,,,,,,,,,,,,,,,,51.136748916000215,0.0,False,51.13693729100123,708454,001,2024-07-03_14h09.26.400,5-all in one,2024.1.4,None,2024-07-03 14h09.31.280814 +0900,
Images/Speaker1.jpg,Images/Speaker2.jpg,Images/Speaker3.jpg,Images/Speaker4.jpg,Audio/Speaker3_Per/P3-19-Per.wav,Speaker3,گوینده۳,2,68,228,58,,,,,65.85470504099976,,,,,,,,,,,,,,,,,,,,,,,,,,,,,,,,,,,,,,,,,,,,,51.15263762500035,0.0,False,51.15282683300029,708454,001,2024-07-03_14h09.26.400,5-all in one,2024.1.4,None,2024-07-03 14h09.31.280814 +0900,
Images/Speaker1.jpg,Images/Speaker2.jpg,Images/Speaker3.jpg,Images/Speaker4.jpg,Audio/Speaker1_Per/P1-2-Per.wav,Speaker1,گوینده ۱,2,69,229,1,,,,,65.85470504099976,,,,,,,,,,,,,,,,,,,,,,,,,,,,,,,,,,,,,,,,,,,,,51.16870991600081,0.0,False,51.168896250001126,708454,001,2024-07-03_14h09.26.400,5-all in one,2024.1.4,None,2024-07-03 14h09.31.280814 +0900,
Images/Speaker1.jpg,Images/Speaker2.jpg,Images/Speaker3.jpg,Images/Speaker4.jpg,Audio/Speaker2_Per/P2-17-Per.wav,Speaker2,گوینده۲,2,70,230,36,,,,,65.85470504099976,,,,,,,,,,,,,,,,,,,,,,,,,,,,,,,,,,,,,,,,,,,,,51.185288750000836,0.0,False,51.18548487500084,708454,001,2024-07-03_14h09.26.400,5-all in one,2024.1.4,None,2024-07-03 14h09.31.280814 +0900,
Images/Speaker1.jpg,Images/Speaker2.jpg,Images/Speaker3.jpg,Images/Speaker4.jpg,Audio/Speaker1_Per/P1-4-Per.wav,Speaker1,گوینده ۱,2,71,231,3,,,,,65.85470504099976,,,,,,,,,,,,,,,,,,,,,,,,,,,,,,,,,,,,,,,,,,,,,51.20121500000096,0.0,False,51.20139579100032,708454,001,2024-07-03_14h09.26.400,5-all in one,2024.1.4,None,2024-07-03 14h09.31.280814 +0900,
Images/Speaker1.jpg,Images/Speaker2.jpg,Images/Speaker3.jpg,Images/Speaker4.jpg,Audio/Speaker2_Per/P2-18-Per.wav,Speaker2,گوینده۲,2,72,232,37,,,,,65.85470504099976,,,,,,,,,,,,,,,,,,,,,,,,,,,,,,,,,,,,,,,,,,,,,51.21716395800104,0.0,False,51.21734333300083,708454,001,2024-07-03_14h09.26.400,5-all in one,2024.1.4,None,2024-07-03 14h09.31.280814 +0900,
Images/Speaker1.jpg,Images/Speaker2.jpg,Images/Speaker3.jpg,Images/Speaker4.jpg,Audio/Speaker4_Per/P4-17-Per.wav,Speaker4,گوینده۴,2,73,233,76,,,,,65.85470504099976,,,,,,,,,,,,,,,,,,,,,,,,,,,,,,,,,,,,,,,,,,,,,51.23327487499955,0.0,False,51.23344025000006,708454,001,2024-07-03_14h09.26.400,5-all in one,2024.1.4,None,2024-07-03 14h09.31.280814 +0900,
Images/Speaker1.jpg,Images/Speaker2.jpg,Images/Speaker3.jpg,Images/Speaker4.jpg,Audio/Speaker4_Per/P4-16-Per.wav,Speaker4,گوینده۴,2,74,234,75,,,,,65.85470504099976,,,,,,,,,,,,,,,,,,,,,,,,,,,,,,,,,,,,,,,,,,,,,51.24985887500043,0.0,False,51.25003575000119,708454,001,2024-07-03_14h09.26.400,5-all in one,2024.1.4,None,2024-07-03 14h09.31.280814 +0900,
Images/Speaker1.jpg,Images/Speaker2.jpg,Images/Speaker3.jpg,Images/Speaker4.jpg,Audio/Speaker2_Per/P2-5-Per.wav,Speaker2,گوینده۲,2,75,235,24,,,,,65.85470504099976,,,,,,,,,,,,,,,,,,,,,,,,,,,,,,,,,,,,,,,,,,,,,51.26587699999982,0.0,False,51.26606687500134,708454,001,2024-07-03_14h09.26.400,5-all in one,2024.1.4,None,2024-07-03 14h09.31.280814 +0900,
Images/Speaker1.jpg,Images/Speaker2.jpg,Images/Speaker3.jpg,Images/Speaker4.jpg,Audio/Speaker4_Per/P4-2-Per.wav,Speaker4,گوینده۴,2,76,236,61,,,,,65.85470504099976,,,,,,,,,,,,,,,,,,,,,,,,,,,,,,,,,,,,,,,,,,,,,51.28202316600073,0.0,False,51.28219729100056,708454,001,2024-07-03_14h09.26.400,5-all in one,2024.1.4,None,2024-07-03 14h09.31.280814 +0900,
Images/Speaker1.jpg,Images/Speaker2.jpg,Images/Speaker3.jpg,Images/Speaker4.jpg,Audio/Speaker3_Per/P3-17-Per.wav,Speaker3,گوینده۳,2,77,237,56,,,,,65.85470504099976,,,,,,,,,,,,,,,,,,,,,,,,,,,,,,,,,,,,,,,,,,,,,51.29789362500014,0.0,False,51.298077208000905,708454,001,2024-07-03_14h09.26.400,5-all in one,2024.1.4,None,2024-07-03 14h09.31.280814 +0900,
Images/Speaker1.jpg,Images/Speaker2.jpg,Images/Speaker3.jpg,Images/Speaker4.jpg,Audio/Speaker2_Per/P2-10-Per.wav,Speaker2,گوینده۲,2,78,238,29,,,,,65.85470504099976,,,,,,,,,,,,,,,,,,,,,,,,,,,,,,,,,,,,,,,,,,,,,51.31457070800025,0.0,False,51.314756166000734,708454,001,2024-07-03_14h09.26.400,5-all in one,2024.1.4,None,2024-07-03 14h09.31.280814 +0900,
Images/Speaker1.jpg,Images/Speaker2.jpg,Images/Speaker3.jpg,Images/Speaker4.jpg,Audio/Speaker4_Per/P4-13-Per.wav,Speaker4,گوینده۴,2,79,239,72,,,,,65.85470504099976,,,,,,,,,,,,,,,,,,,,,,,,,,,,,,,,,,,,,,,,,,,,,51.33059433299968,0.0,False,51.33079608300068,708454,001,2024-07-03_14h09.26.400,5-all in one,2024.1.4,None,2024-07-03 14h09.31.280814 +0900,
Images/Speaker1.jpg,Images/Speaker2.jpg,Images/Speaker3.jpg,Images/Speaker4.jpg,Audio/Speaker1_Per/P1-4-Per.wav,Speaker1,گوینده ۱,3,0,240,13,,,,,65.85470504099976,,,,,,,,,,,,,,,,,,,,,,,,,,,,,,,,,,,,,,,,,,,,,51.34642825000083,0.0,False,51.346610165999664,708454,001,2024-07-03_14h09.26.400,5-all in one,2024.1.4,None,2024-07-03 14h09.31.280814 +0900,
Images/Speaker1.jpg,Images/Speaker2.jpg,Images/Speaker3.jpg,Images/Speaker4.jpg,Audio/Speaker3_Per/P3-9-Per.wav,Speaker3,گوینده۳,3,1,241,48,,,,,65.85470504099976,,,,,,,,,,,,,,,,,,,,,,,,,,,,,,,,,,,,,,,,,,,,,51.36253904099976,0.0,False,51.36272841600112,708454,001,2024-07-03_14h09.26.400,5-all in one,2024.1.4,None,2024-07-03 14h09.31.280814 +0900,
Images/Speaker1.jpg,Images/Speaker2.jpg,Images/Speaker3.jpg,Images/Speaker4.jpg,Audio/Speaker4_Per/P4-17-Per.wav,Speaker4,گوینده۴,3,2,242,76,,,,,65.85470504099976,,,,,,,,,,,,,,,,,,,,,,,,,,,,,,,,,,,,,,,,,,,,,51.379162375000305,0.0,False,51.37937679100105,708454,001,2024-07-03_14h09.26.400,5-all in one,2024.1.4,None,2024-07-03 14h09.31.280814 +0900,
Images/Speaker1.jpg,Images/Speaker2.jpg,Images/Speaker3.jpg,Images/Speaker4.jpg,Audio/Speaker2_Per/P2-14-Per.wav,Speaker2,گوینده۲,3,3,243,33,,,,,65.85470504099976,,,,,,,,,,,,,,,,,,,,,,,,,,,,,,,,,,,,,,,,,,,,,51.39519908300099,0.0,False,51.39538329100105,708454,001,2024-07-03_14h09.26.400,5-all in one,2024.1.4,None,2024-07-03 14h09.31.280814 +0900,
Images/Speaker1.jpg,Images/Speaker2.jpg,Images/Speaker3.jpg,Images/Speaker4.jpg,Audio/Speaker1_Per/P1-20-Per.wav,Speaker1,گوینده ۱,3,4,244,19,,,,,65.85470504099976,,,,,,,,,,,,,,,,,,,,,,,,,,,,,,,,,,,,,,,,,,,,,51.41125916599958,0.0,False,51.4114601250003,708454,001,2024-07-03_14h09.26.400,5-all in one,2024.1.4,None,2024-07-03 14h09.31.280814 +0900,
Images/Speaker1.jpg,Images/Speaker2.jpg,Images/Speaker3.jpg,Images/Speaker4.jpg,Audio/Speaker4_Per/P4-6-Per.wav,Speaker4,گوینده۴,3,5,245,65,,,,,65.85470504099976,,,,,,,,,,,,,,,,,,,,,,,,,,,,,,,,,,,,,,,,,,,,,51.427364041001056,0.0,False,51.42755745800059,708454,001,2024-07-03_14h09.26.400,5-all in one,2024.1.4,None,2024-07-03 14h09.31.280814 +0900,
Images/Speaker1.jpg,Images/Speaker2.jpg,Images/Speaker3.jpg,Images/Speaker4.jpg,Audio/Speaker3_Per/P3-8-Per.wav,Speaker3,گوینده۳,3,6,246,47,,,,,65.85470504099976,,,,,,,,,,,,,,,,,,,,,,,,,,,,,,,,,,,,,,,,,,,,,51.44389008300095,0.0,False,51.4441354999999,708454,001,2024-07-03_14h09.26.400,5-all in one,2024.1.4,None,2024-07-03 14h09.31.280814 +0900,
Images/Speaker1.jpg,Images/Speaker2.jpg,Images/Speaker3.jpg,Images/Speaker4.jpg,Audio/Speaker2_Per/P2-17-Per.wav,Speaker2,گوینده۲,3,7,247,36,,,,,65.85470504099976,,,,,,,,,,,,,,,,,,,,,,,,,,,,,,,,,,,,,,,,,,,,,51.45999416599989,0.0,False,51.46023766600047,708454,001,2024-07-03_14h09.26.400,5-all in one,2024.1.4,None,2024-07-03 14h09.31.280814 +0900,
Images/Speaker1.jpg,Images/Speaker2.jpg,Images/Speaker3.jpg,Images/Speaker4.jpg,Audio/Speaker2_Per/P2-15-Per.wav,Speaker2,گوینده۲,3,8,248,34,,,,,65.85470504099976,,,,,,,,,,,,,,,,,,,,,,,,,,,,,,,,,,,,,,,,,,,,,51.476085291000345,0.0,False,51.47625895800047,708454,001,2024-07-03_14h09.26.400,5-all in one,2024.1.4,None,2024-07-03 14h09.31.280814 +0900,
Images/Speaker1.jpg,Images/Speaker2.jpg,Images/Speaker3.jpg,Images/Speaker4.jpg,Audio/Speaker1_Per/P1-16-Per.wav,Speaker1,گوینده ۱,3,9,249,15,,,,,65.85470504099976,,,,,,,,,,,,,,,,,,,,,,,,,,,,,,,,,,,,,,,,,,,,,51.49191954100024,0.0,False,51.49212337500103,708454,001,2024-07-03_14h09.26.400,5-all in one,2024.1.4,None,2024-07-03 14h09.31.280814 +0900,
Images/Speaker1.jpg,Images/Speaker2.jpg,Images/Speaker3.jpg,Images/Speaker4.jpg,Audio/Speaker3_Per/P3-3-Per.wav,Speaker3,گوینده۳,3,10,250,42,,,,,65.85470504099976,,,,,,,,,,,,,,,,,,,,,,,,,,,,,,,,,,,,,,,,,,,,,51.50863750000099,0.0,False,51.508828541000184,708454,001,2024-07-03_14h09.26.400,5-all in one,2024.1.4,None,2024-07-03 14h09.31.280814 +0900,
Images/Speaker1.jpg,Images/Speaker2.jpg,Images/Speaker3.jpg,Images/Speaker4.jpg,Audio/Speaker3_Per/P3-6-Per.wav,Speaker3,گوینده۳,3,11,251,45,,,,,65.85470504099976,,,,,,,,,,,,,,,,,,,,,,,,,,,,,,,,,,,,,,,,,,,,,51.524555666001106,0.0,False,51.524762582999756,708454,001,2024-07-03_14h09.26.400,5-all in one,2024.1.4,None,2024-07-03 14h09.31.280814 +0900,
Images/Speaker1.jpg,Images/Speaker2.jpg,Images/Speaker3.jpg,Images/Speaker4.jpg,Audio/Speaker1_Per/P1-15-Per.wav,Speaker1,گوینده ۱,3,12,252,14,,,,,65.85470504099976,,,,,,,,,,,,,,,,,,,,,,,,,,,,,,,,,,,,,,,,,,,,,51.5406333330011,0.0,False,51.540836416001184,708454,001,2024-07-03_14h09.26.400,5-all in one,2024.1.4,None,2024-07-03 14h09.31.280814 +0900,
Images/Speaker1.jpg,Images/Speaker2.jpg,Images/Speaker3.jpg,Images/Speaker4.jpg,Audio/Speaker3_Per/P3-11-Per.wav,Speaker3,گوینده۳,3,13,253,50,,,,,65.85470504099976,,,,,,,,,,,,,,,,,,,,,,,,,,,,,,,,,,,,,,,,,,,,,51.55662858300093,0.0,False,51.55681012500099,708454,001,2024-07-03_14h09.26.400,5-all in one,2024.1.4,None,2024-07-03 14h09.31.280814 +0900,
Images/Speaker1.jpg,Images/Speaker2.jpg,Images/Speaker3.jpg,Images/Speaker4.jpg,Audio/Speaker1_Per/P1-13-Per.wav,Speaker1,گوینده ۱,3,14,254,12,,,,,65.85470504099976,,,,,,,,,,,,,,,,,,,,,,,,,,,,,,,,,,,,,,,,,,,,,51.57306662500014,0.0,False,51.5732611250005,708454,001,2024-07-03_14h09.26.400,5-all in one,2024.1.4,None,2024-07-03 14h09.31.280814 +0900,
Images/Speaker1.jpg,Images/Speaker2.jpg,Images/Speaker3.jpg,Images/Speaker4.jpg,Audio/Speaker4_Per/P4-19-Per.wav,Speaker4,گوینده۴,3,15,255,78,,,,,65.85470504099976,,,,,,,,,,,,,,,,,,,,,,,,,,,,,,,,,,,,,,,,,,,,,51.58925950000048,0.0,False,51.5894422500005,708454,001,2024-07-03_14h09.26.400,5-all in one,2024.1.4,None,2024-07-03 14h09.31.280814 +0900,
Images/Speaker1.jpg,Images/Speaker2.jpg,Images/Speaker3.jpg,Images/Speaker4.jpg,Audio/Speaker2_Per/P2-1-Per.wav,Speaker2,گوینده۲,3,16,256,20,,,,,65.85470504099976,,,,,,,,,,,,,,,,,,,,,,,,,,,,,,,,,,,,,,,,,,,,,51.605109666001226,0.0,False,51.60529000000133,708454,001,2024-07-03_14h09.26.400,5-all in one,2024.1.4,None,2024-07-03 14h09.31.280814 +0900,
Images/Speaker1.jpg,Images/Speaker2.jpg,Images/Speaker3.jpg,Images/Speaker4.jpg,Audio/Speaker4_Per/P4-15-Per.wav,Speaker4,گوینده۴,3,17,257,74,,,,,65.85470504099976,,,,,,,,,,,,,,,,,,,,,,,,,,,,,,,,,,,,,,,,,,,,,51.62107925000055,0.0,False,51.62129400000049,708454,001,2024-07-03_14h09.26.400,5-all in one,2024.1.4,None,2024-07-03 14h09.31.280814 +0900,
Images/Speaker1.jpg,Images/Speaker2.jpg,Images/Speaker3.jpg,Images/Speaker4.jpg,Audio/Speaker2_Per/P2-18-Per.wav,Speaker2,گوینده۲,3,18,258,37,,,,,65.85470504099976,,,,,,,,,,,,,,,,,,,,,,,,,,,,,,,,,,,,,,,,,,,,,51.637680875001024,0.0,False,51.63786916600111,708454,001,2024-07-03_14h09.26.400,5-all in one,2024.1.4,None,2024-07-03 14h09.31.280814 +0900,
Images/Speaker1.jpg,Images/Speaker2.jpg,Images/Speaker3.jpg,Images/Speaker4.jpg,Audio/Speaker2_Per/P2-10-Per.wav,Speaker2,گوینده۲,3,19,259,29,,,,,65.85470504099976,,,,,,,,,,,,,,,,,,,,,,,,,,,,,,,,,,,,,,,,,,,,,51.65382020800098,0.0,False,51.6540302909998,708454,001,2024-07-03_14h09.26.400,5-all in one,2024.1.4,None,2024-07-03 14h09.31.280814 +0900,
Images/Speaker1.jpg,Images/Speaker2.jpg,Images/Speaker3.jpg,Images/Speaker4.jpg,Audio/Speaker3_Per/P3-14-Per.wav,Speaker3,گوینده۳,3,20,260,53,,,,,65.85470504099976,,,,,,,,,,,,,,,,,,,,,,,,,,,,,,,,,,,,,,,,,,,,,51.66981170799954,0.0,False,51.67002420800054,708454,001,2024-07-03_14h09.26.400,5-all in one,2024.1.4,None,2024-07-03 14h09.31.280814 +0900,
Images/Speaker1.jpg,Images/Speaker2.jpg,Images/Speaker3.jpg,Images/Speaker4.jpg,Audio/Speaker4_Per/P4-5-Per.wav,Speaker4,گوینده۴,3,21,261,64,,,,,65.85470504099976,,,,,,,,,,,,,,,,,,,,,,,,,,,,,,,,,,,,,,,,,,,,,51.685918582999875,0.0,False,51.68609950000064,708454,001,2024-07-03_14h09.26.400,5-all in one,2024.1.4,None,2024-07-03 14h09.31.280814 +0900,
Images/Speaker1.jpg,Images/Speaker2.jpg,Images/Speaker3.jpg,Images/Speaker4.jpg,Audio/Speaker3_Per/P3-1-Per.wav,Speaker3,گوینده۳,3,22,262,40,,,,,65.85470504099976,,,,,,,,,,,,,,,,,,,,,,,,,,,,,,,,,,,,,,,,,,,,,51.702545291000206,0.0,False,51.7027678329996,708454,001,2024-07-03_14h09.26.400,5-all in one,2024.1.4,None,2024-07-03 14h09.31.280814 +0900,
Images/Speaker1.jpg,Images/Speaker2.jpg,Images/Speaker3.jpg,Images/Speaker4.jpg,Audio/Speaker1_Per/P1-8-Per.wav,Speaker1,گوینده ۱,3,23,263,7,,,,,65.85470504099976,,,,,,,,,,,,,,,,,,,,,,,,,,,,,,,,,,,,,,,,,,,,,51.718527000000904,0.0,False,51.71875558300053,708454,001,2024-07-03_14h09.26.400,5-all in one,2024.1.4,None,2024-07-03 14h09.31.280814 +0900,
Images/Speaker1.jpg,Images/Speaker2.jpg,Images/Speaker3.jpg,Images/Speaker4.jpg,Audio/Speaker4_Per/P4-3-Per.wav,Speaker4,گوینده۴,3,24,264,62,,,,,65.85470504099976,,,,,,,,,,,,,,,,,,,,,,,,,,,,,,,,,,,,,,,,,,,,,51.7344654160006,0.0,False,51.73469966599987,708454,001,2024-07-03_14h09.26.400,5-all in one,2024.1.4,None,2024-07-03 14h09.31.280814 +0900,
Images/Speaker1.jpg,Images/Speaker2.jpg,Images/Speaker3.jpg,Images/Speaker4.jpg,Audio/Speaker2_Per/P2-9-Per.wav,Speaker2,گوینده۲,3,25,265,28,,,,,65.85470504099976,,,,,,,,,,,,,,,,,,,,,,,,,,,,,,,,,,,,,,,,,,,,,51.75039862500125,0.0,False,51.75059370800045,708454,001,2024-07-03_14h09.26.400,5-all in one,2024.1.4,None,2024-07-03 14h09.31.280814 +0900,
Images/Speaker1.jpg,Images/Speaker2.jpg,Images/Speaker3.jpg,Images/Speaker4.jpg,Audio/Speaker3_Per/P3-10-Per.wav,Speaker3,گوینده۳,3,26,266,49,,,,,65.85470504099976,,,,,,,,,,,,,,,,,,,,,,,,,,,,,,,,,,,,,,,,,,,,,51.76702145800118,0.0,False,51.76718341600099,708454,001,2024-07-03_14h09.26.400,5-all in one,2024.1.4,None,2024-07-03 14h09.31.280814 +0900,
Images/Speaker1.jpg,Images/Speaker2.jpg,Images/Speaker3.jpg,Images/Speaker4.jpg,Audio/Speaker2_Per/P2-5-Per.wav,Speaker2,گوینده۲,3,27,267,24,,,,,65.85470504099976,,,,,,,,,,,,,,,,,,,,,,,,,,,,,,,,,,,,,,,,,,,,,51.78281387500101,0.0,False,51.78297250000105,708454,001,2024-07-03_14h09.26.400,5-all in one,2024.1.4,None,2024-07-03 14h09.31.280814 +0900,
Images/Speaker1.jpg,Images/Speaker2.jpg,Images/Speaker3.jpg,Images/Speaker4.jpg,Audio/Speaker4_Per/P4-10-Per.wav,Speaker4,گوینده۴,3,28,268,69,,,,,65.85470504099976,,,,,,,,,,,,,,,,,,,,,,,,,,,,,,,,,,,,,,,,,,,,,51.79859645800025,0.0,False,51.79878450000069,708454,001,2024-07-03_14h09.26.400,5-all in one,2024.1.4,None,2024-07-03 14h09.31.280814 +0900,
Images/Speaker1.jpg,Images/Speaker2.jpg,Images/Speaker3.jpg,Images/Speaker4.jpg,Audio/Speaker3_Per/P3-16-Per.wav,Speaker3,گوینده۳,3,29,269,55,,,,,65.85470504099976,,,,,,,,,,,,,,,,,,,,,,,,,,,,,,,,,,,,,,,,,,,,,51.81464912500087,0.0,False,51.81486083300115,708454,001,2024-07-03_14h09.26.400,5-all in one,2024.1.4,None,2024-07-03 14h09.31.280814 +0900,
Images/Speaker1.jpg,Images/Speaker2.jpg,Images/Speaker3.jpg,Images/Speaker4.jpg,Audio/Speaker2_Per/P2-4-Per.wav,Speaker2,گوینده۲,3,30,270,23,,,,,65.85470504099976,,,,,,,,,,,,,,,,,,,,,,,,,,,,,,,,,,,,,,,,,,,,,51.83138937500007,0.0,False,51.83158175000062,708454,001,2024-07-03_14h09.26.400,5-all in one,2024.1.4,None,2024-07-03 14h09.31.280814 +0900,
Images/Speaker1.jpg,Images/Speaker2.jpg,Images/Speaker3.jpg,Images/Speaker4.jpg,Audio/Speaker3_Per/P3-2-Per.wav,Speaker3,گوینده۳,3,31,271,41,,,,,65.85470504099976,,,,,,,,,,,,,,,,,,,,,,,,,,,,,,,,,,,,,,,,,,,,,51.84738895800001,0.0,False,51.847568916000455,708454,001,2024-07-03_14h09.26.400,5-all in one,2024.1.4,None,2024-07-03 14h09.31.280814 +0900,
Images/Speaker1.jpg,Images/Speaker2.jpg,Images/Speaker3.jpg,Images/Speaker4.jpg,Audio/Speaker2_Per/P2-11-Per.wav,Speaker2,گوینده۲,3,32,272,30,,,,,65.85470504099976,,,,,,,,,,,,,,,,,,,,,,,,,,,,,,,,,,,,,,,,,,,,,51.863346457999796,0.0,False,51.86353879099988,708454,001,2024-07-03_14h09.26.400,5-all in one,2024.1.4,None,2024-07-03 14h09.31.280814 +0900,
Images/Speaker1.jpg,Images/Speaker2.jpg,Images/Speaker3.jpg,Images/Speaker4.jpg,Audio/Speaker1_Per/P1-5-Per.wav,Speaker1,گوینده ۱,3,33,273,4,,,,,65.85470504099976,,,,,,,,,,,,,,,,,,,,,,,,,,,,,,,,,,,,,,,,,,,,,51.87927954100087,0.0,False,51.87945312500051,708454,001,2024-07-03_14h09.26.400,5-all in one,2024.1.4,None,2024-07-03 14h09.31.280814 +0900,
Images/Speaker1.jpg,Images/Speaker2.jpg,Images/Speaker3.jpg,Images/Speaker4.jpg,Audio/Speaker4_Per/P4-7-Per.wav,Speaker4,گوینده۴,3,34,274,66,,,,,65.85470504099976,,,,,,,,,,,,,,,,,,,,,,,,,,,,,,,,,,,,,,,,,,,,,51.895913958000165,0.0,False,51.89609916600057,708454,001,2024-07-03_14h09.26.400,5-all in one,2024.1.4,None,2024-07-03 14h09.31.280814 +0900,
Images/Speaker1.jpg,Images/Speaker2.jpg,Images/Speaker3.jpg,Images/Speaker4.jpg,Audio/Speaker3_Per/P3-17-Per.wav,Speaker3,گوینده۳,3,35,275,56,,,,,65.85470504099976,,,,,,,,,,,,,,,,,,,,,,,,,,,,,,,,,,,,,,,,,,,,,51.91191783300019,0.0,False,51.91210370800036,708454,001,2024-07-03_14h09.26.400,5-all in one,2024.1.4,None,2024-07-03 14h09.31.280814 +0900,
Images/Speaker1.jpg,Images/Speaker2.jpg,Images/Speaker3.jpg,Images/Speaker4.jpg,Audio/Speaker3_Per/P3-15-Per.wav,Speaker3,گوینده۳,3,36,276,54,,,,,65.85470504099976,,,,,,,,,,,,,,,,,,,,,,,,,,,,,,,,,,,,,,,,,,,,,51.92784441600088,0.0,False,51.928050083000926,708454,001,2024-07-03_14h09.26.400,5-all in one,2024.1.4,None,2024-07-03 14h09.31.280814 +0900,
Images/Speaker1.jpg,Images/Speaker2.jpg,Images/Speaker3.jpg,Images/Speaker4.jpg,Audio/Speaker4_Per/P4-9-Per.wav,Speaker4,گوینده۴,3,37,277,68,,,,,65.85470504099976,,,,,,,,,,,,,,,,,,,,,,,,,,,,,,,,,,,,,,,,,,,,,51.943709000001036,0.0,False,51.943898540999726,708454,001,2024-07-03_14h09.26.400,5-all in one,2024.1.4,None,2024-07-03 14h09.31.280814 +0900,
