SpeakerImage1,SpeakerImage2,SpeakerImage3,SpeakerImage4,TrainingSound,EnglishCorrectAnswer,PersianCorrectAnswer,repeated_TrainingloopGroup1.thisRepN,repeated_TrainingloopGroup1.thisTrialN,repeated_TrainingloopGroup1.thisN,repeated_TrainingloopGroup1.thisIndex,TrainingLoopGroup1.thisRepN,TrainingLoopGroup1.thisTrialN,TrainingLoopGroup1.thisN,TrainingLoopGroup1.thisIndex,thisRow.t,notes,trial.started,trial.stopped,GroupSelection.started,GroupInstructions.started,key_resp.started,GroupSelection.stopped,key_resp.keys,key_resp.rt,key_resp.duration,Introduction.started,text_2.started,image.started,sound_7.started,text_4.started,text_2.stopped,sound_8.started,image.stopped,text_4.stopped,image_7.started,sound_9.started,text_5.started,sound_10.started,image_7.stopped,text_5.stopped,image_8.started,sound_11.started,text_6.started,sound_12.started,image_8.stopped,text_6.stopped,image_9.started,sound_13.started,text_7.started,sound_14.started,image_9.stopped,text_7.stopped,Introduction.stopped,Instructions.started,InstructionText.started,InstructionText.stopped,Instructions.stopped,InitializeExperiment.started,InitializeExperiment.stopped,CheckAccuracy1.started,accuracy_group1,proceed_to_test,CheckAccuracy1.stopped,participant,session,date,expName,psychopyVersion,frameRate,expStart,
,,,,,,,,,,,,,,,,,0.012460959000236471,0.01278512499993667,,,,,,,,,,,,,,,,,,,,,,,,,,,,,,,,,,,,,,,,,,,,,,714310,001,2024-07-03_12h49.26.059,5-all in one,2024.1.4,None,2024-07-03 12h49.30.744351 +0900,
,,,,,,,,,,,,,,,,,,,0.012803958999938914,0.017475041999205132,0.017475041999205132,4.976459041999988,2,4.915370790999077,None,,,,,,,,,,,,,,,,,,,,,,,,,,,,,,,,,,,,,,,714310,001,2024-07-03_12h49.26.059,5-all in one,2024.1.4,None,2024-07-03 12h49.30.744351 +0900,
,,,,,,,,,,,,,,,,,,,,,,,,,,4.976482916999885,5.032741291999628,9.975625584000227,9.985675416666952,9.975625584000227,10.029323458998988,14.985391041666178,19.97106362500017,19.97106362500017,19.978763249999247,19.987730291666836,19.978763249999247,24.987111625665662,29.97389229199871,29.97389229199871,29.97389229199871,29.980048625666555,29.97389229199871,34.98196241666689,39.978994916999,39.978994916999,39.978994916999,39.986904000665405,39.978994916999,44.97967879166596,49.96617754199906,49.96617754199906,49.96197249999932,,,,,,,,,,,714310,001,2024-07-03_12h49.26.059,5-all in one,2024.1.4,None,2024-07-03 12h49.30.744351 +0900,
,,,,,,,,,,,,,,,,,,,,,,,,,,,,,,,,,,,,,,,,,,,,,,,,,,,,,,49.961989666999216,49.96617754199906,140.61433208400013,50.95042008400014,,,,,,,714310,001,2024-07-03_12h49.26.059,5-all in one,2024.1.4,None,2024-07-03 12h49.30.744351 +0900,
,,,,,,,,,,,,,,,,,,,,,,,,,,,,,,,,,,,,,,,,,,,,,,,,,,,,,,,,,,50.9504320420001,50.95059741699879,,,,,714310,001,2024-07-03_12h49.26.059,5-all in one,2024.1.4,None,2024-07-03 12h49.30.744351 +0900,
Images/Speaker1.jpg,Images/Speaker2.jpg,Images/Speaker3.jpg,Images/Speaker4.jpg,Audio/Speaker3_Per/P3-14-Per.wav,Speaker3,گوینده۳,0,0,0,53,,,,,140.61433208400013,,,,,,,,,,,,,,,,,,,,,,,,,,,,,,,,,,,,,,,,,,,,,51.00217754199912,0.0,False,51.00248933399962,714310,001,2024-07-03_12h49.26.059,5-all in one,2024.1.4,None,2024-07-03 12h49.30.744351 +0900,
Images/Speaker1.jpg,Images/Speaker2.jpg,Images/Speaker3.jpg,Images/Speaker4.jpg,Audio/Speaker2_Per/P2-4-Per.wav,Speaker2,گوینده۲,0,1,1,23,,,,,140.61433208400013,,,,,,,,,,,,,,,,,,,,,,,,,,,,,,,,,,,,,,,,,,,,,51.02068079200035,0.0,False,51.02089066699955,714310,001,2024-07-03_12h49.26.059,5-all in one,2024.1.4,None,2024-07-03 12h49.30.744351 +0900,
Images/Speaker1.jpg,Images/Speaker2.jpg,Images/Speaker3.jpg,Images/Speaker4.jpg,Audio/Speaker2_Per/P2-2-Per.wav,Speaker2,گوینده۲,0,2,2,21,,,,,140.61433208400013,,,,,,,,,,,,,,,,,,,,,,,,,,,,,,,,,,,,,,,,,,,,,51.03868716699981,0.0,False,51.03890141699958,714310,001,2024-07-03_12h49.26.059,5-all in one,2024.1.4,None,2024-07-03 12h49.30.744351 +0900,
Images/Speaker1.jpg,Images/Speaker2.jpg,Images/Speaker3.jpg,Images/Speaker4.jpg,Audio/Speaker4_Per/P4-6-Per.wav,Speaker4,گوینده۴,0,3,3,65,,,,,140.61433208400013,,,,,,,,,,,,,,,,,,,,,,,,,,,,,,,,,,,,,,,,,,,,,51.05624433399862,0.0,False,51.05645212499985,714310,001,2024-07-03_12h49.26.059,5-all in one,2024.1.4,None,2024-07-03 12h49.30.744351 +0900,
Images/Speaker1.jpg,Images/Speaker2.jpg,Images/Speaker3.jpg,Images/Speaker4.jpg,Audio/Speaker1_Per/P1-18-Per.wav,Speaker1,گوینده ۱,0,4,4,17,,,,,140.61433208400013,,,,,,,,,,,,,,,,,,,,,,,,,,,,,,,,,,,,,,,,,,,,,51.07238004200008,0.0,False,51.07257533399934,714310,001,2024-07-03_12h49.26.059,5-all in one,2024.1.4,None,2024-07-03 12h49.30.744351 +0900,
Images/Speaker1.jpg,Images/Speaker2.jpg,Images/Speaker3.jpg,Images/Speaker4.jpg,Audio/Speaker1_Per/P1-12-Per.wav,Speaker1,گوینده ۱,0,5,5,11,,,,,140.61433208400013,,,,,,,,,,,,,,,,,,,,,,,,,,,,,,,,,,,,,,,,,,,,,51.08842391699909,0.0,False,51.088617708999664,714310,001,2024-07-03_12h49.26.059,5-all in one,2024.1.4,None,2024-07-03 12h49.30.744351 +0900,
Images/Speaker1.jpg,Images/Speaker2.jpg,Images/Speaker3.jpg,Images/Speaker4.jpg,Audio/Speaker3_Per/P3-17-Per.wav,Speaker3,گوینده۳,0,6,6,56,,,,,140.61433208400013,,,,,,,,,,,,,,,,,,,,,,,,,,,,,,,,,,,,,,,,,,,,,51.10442654199869,0.0,False,51.10466237499895,714310,001,2024-07-03_12h49.26.059,5-all in one,2024.1.4,None,2024-07-03 12h49.30.744351 +0900,
Images/Speaker1.jpg,Images/Speaker2.jpg,Images/Speaker3.jpg,Images/Speaker4.jpg,Audio/Speaker4_Per/P4-17-Per.wav,Speaker4,گوینده۴,0,7,7,76,,,,,140.61433208400013,,,,,,,,,,,,,,,,,,,,,,,,,,,,,,,,,,,,,,,,,,,,,51.120789124999646,0.0,False,51.120974458999626,714310,001,2024-07-03_12h49.26.059,5-all in one,2024.1.4,None,2024-07-03 12h49.30.744351 +0900,
Images/Speaker1.jpg,Images/Speaker2.jpg,Images/Speaker3.jpg,Images/Speaker4.jpg,Audio/Speaker4_Per/P4-18-Per.wav,Speaker4,گوینده۴,0,8,8,77,,,,,140.61433208400013,,,,,,,,,,,,,,,,,,,,,,,,,,,,,,,,,,,,,,,,,,,,,51.13668641699951,0.0,False,51.136895249999725,714310,001,2024-07-03_12h49.26.059,5-all in one,2024.1.4,None,2024-07-03 12h49.30.744351 +0900,
Images/Speaker1.jpg,Images/Speaker2.jpg,Images/Speaker3.jpg,Images/Speaker4.jpg,Audio/Speaker3_Per/P3-8-Per.wav,Speaker3,گوینده۳,0,9,9,47,,,,,140.61433208400013,,,,,,,,,,,,,,,,,,,,,,,,,,,,,,,,,,,,,,,,,,,,,51.1526625839997,0.0,False,51.15284833399892,714310,001,2024-07-03_12h49.26.059,5-all in one,2024.1.4,None,2024-07-03 12h49.30.744351 +0900,
Images/Speaker1.jpg,Images/Speaker2.jpg,Images/Speaker3.jpg,Images/Speaker4.jpg,Audio/Speaker1_Per/P1-6-Per.wav,Speaker1,گوینده ۱,0,10,10,5,,,,,140.61433208400013,,,,,,,,,,,,,,,,,,,,,,,,,,,,,,,,,,,,,,,,,,,,,51.168886583998756,0.0,False,51.169071374999476,714310,001,2024-07-03_12h49.26.059,5-all in one,2024.1.4,None,2024-07-03 12h49.30.744351 +0900,
Images/Speaker1.jpg,Images/Speaker2.jpg,Images/Speaker3.jpg,Images/Speaker4.jpg,Audio/Speaker1_Per/P1-17-Per.wav,Speaker1,گوینده ۱,0,11,11,16,,,,,140.61433208400013,,,,,,,,,,,,,,,,,,,,,,,,,,,,,,,,,,,,,,,,,,,,,51.18499954199979,0.0,False,51.18523024999922,714310,001,2024-07-03_12h49.26.059,5-all in one,2024.1.4,None,2024-07-03 12h49.30.744351 +0900,
Images/Speaker1.jpg,Images/Speaker2.jpg,Images/Speaker3.jpg,Images/Speaker4.jpg,Audio/Speaker4_Per/P4-8-Per.wav,Speaker4,گوینده۴,0,12,12,67,,,,,140.61433208400013,,,,,,,,,,,,,,,,,,,,,,,,,,,,,,,,,,,,,,,,,,,,,51.20092983399991,0.0,False,51.201113166998766,714310,001,2024-07-03_12h49.26.059,5-all in one,2024.1.4,None,2024-07-03 12h49.30.744351 +0900,
Images/Speaker1.jpg,Images/Speaker2.jpg,Images/Speaker3.jpg,Images/Speaker4.jpg,Audio/Speaker3_Per/P3-13-Per.wav,Speaker3,گوینده۳,0,13,13,52,,,,,140.61433208400013,,,,,,,,,,,,,,,,,,,,,,,,,,,,,,,,,,,,,,,,,,,,,51.216875291998804,0.0,False,51.217065541999546,714310,001,2024-07-03_12h49.26.059,5-all in one,2024.1.4,None,2024-07-03 12h49.30.744351 +0900,
Images/Speaker1.jpg,Images/Speaker2.jpg,Images/Speaker3.jpg,Images/Speaker4.jpg,Audio/Speaker4_Per/P4-10-Per.wav,Speaker4,گوینده۴,0,14,14,69,,,,,140.61433208400013,,,,,,,,,,,,,,,,,,,,,,,,,,,,,,,,,,,,,,,,,,,,,51.232854709000094,0.0,False,51.233071083999675,714310,001,2024-07-03_12h49.26.059,5-all in one,2024.1.4,None,2024-07-03 12h49.30.744351 +0900,
Images/Speaker1.jpg,Images/Speaker2.jpg,Images/Speaker3.jpg,Images/Speaker4.jpg,Audio/Speaker1_Per/P1-2-Per.wav,Speaker1,گوینده ۱,0,15,15,1,,,,,140.61433208400013,,,,,,,,,,,,,,,,,,,,,,,,,,,,,,,,,,,,,,,,,,,,,51.24917616699895,0.0,False,51.24935812500007,714310,001,2024-07-03_12h49.26.059,5-all in one,2024.1.4,None,2024-07-03 12h49.30.744351 +0900,
Images/Speaker1.jpg,Images/Speaker2.jpg,Images/Speaker3.jpg,Images/Speaker4.jpg,Audio/Speaker3_Per/P3-1-Per.wav,Speaker3,گوینده۳,0,16,16,40,,,,,140.61433208400013,,,,,,,,,,,,,,,,,,,,,,,,,,,,,,,,,,,,,,,,,,,,,51.265213791999486,0.0,False,51.265412417000334,714310,001,2024-07-03_12h49.26.059,5-all in one,2024.1.4,None,2024-07-03 12h49.30.744351 +0900,
Images/Speaker1.jpg,Images/Speaker2.jpg,Images/Speaker3.jpg,Images/Speaker4.jpg,Audio/Speaker1_Per/P1-19-Per.wav,Speaker1,گوینده ۱,0,17,17,18,,,,,140.61433208400013,,,,,,,,,,,,,,,,,,,,,,,,,,,,,,,,,,,,,,,,,,,,,51.280994374999864,0.0,False,51.28117270899929,714310,001,2024-07-03_12h49.26.059,5-all in one,2024.1.4,None,2024-07-03 12h49.30.744351 +0900,
Images/Speaker1.jpg,Images/Speaker2.jpg,Images/Speaker3.jpg,Images/Speaker4.jpg,Audio/Speaker1_Per/P1-4-Per.wav,Speaker1,گوینده ۱,0,18,18,3,,,,,140.61433208400013,,,,,,,,,,,,,,,,,,,,,,,,,,,,,,,,,,,,,,,,,,,,,51.29684604199974,0.0,False,51.29704391700034,714310,001,2024-07-03_12h49.26.059,5-all in one,2024.1.4,None,2024-07-03 12h49.30.744351 +0900,
Images/Speaker1.jpg,Images/Speaker2.jpg,Images/Speaker3.jpg,Images/Speaker4.jpg,Audio/Speaker1_Per/P1-20-Per.wav,Speaker1,گوینده ۱,0,19,19,19,,,,,140.61433208400013,,,,,,,,,,,,,,,,,,,,,,,,,,,,,,,,,,,,,,,,,,,,,51.31324479199975,0.0,False,51.31343500000003,714310,001,2024-07-03_12h49.26.059,5-all in one,2024.1.4,None,2024-07-03 12h49.30.744351 +0900,
Images/Speaker1.jpg,Images/Speaker2.jpg,Images/Speaker3.jpg,Images/Speaker4.jpg,Audio/Speaker4_Per/P4-7-Per.wav,Speaker4,گوینده۴,0,20,20,66,,,,,140.61433208400013,,,,,,,,,,,,,,,,,,,,,,,,,,,,,,,,,,,,,,,,,,,,,51.32906974999969,0.0,False,51.32922883399988,714310,001,2024-07-03_12h49.26.059,5-all in one,2024.1.4,None,2024-07-03 12h49.30.744351 +0900,
Images/Speaker1.jpg,Images/Speaker2.jpg,Images/Speaker3.jpg,Images/Speaker4.jpg,Audio/Speaker1_Per/P1-15-Per.wav,Speaker1,گوینده ۱,0,21,21,14,,,,,140.61433208400013,,,,,,,,,,,,,,,,,,,,,,,,,,,,,,,,,,,,,,,,,,,,,51.34489912499885,0.0,False,51.34513645900006,714310,001,2024-07-03_12h49.26.059,5-all in one,2024.1.4,None,2024-07-03 12h49.30.744351 +0900,
Images/Speaker1.jpg,Images/Speaker2.jpg,Images/Speaker3.jpg,Images/Speaker4.jpg,Audio/Speaker2_Per/P2-17-Per.wav,Speaker2,گوینده۲,0,22,22,36,,,,,140.61433208400013,,,,,,,,,,,,,,,,,,,,,,,,,,,,,,,,,,,,,,,,,,,,,51.360902417000034,0.0,False,51.36112883399983,714310,001,2024-07-03_12h49.26.059,5-all in one,2024.1.4,None,2024-07-03 12h49.30.744351 +0900,
Images/Speaker1.jpg,Images/Speaker2.jpg,Images/Speaker3.jpg,Images/Speaker4.jpg,Audio/Speaker3_Per/P3-18-Per.wav,Speaker3,گوینده۳,0,23,23,57,,,,,140.61433208400013,,,,,,,,,,,,,,,,,,,,,,,,,,,,,,,,,,,,,,,,,,,,,51.37725104200035,0.0,False,51.37744241699875,714310,001,2024-07-03_12h49.26.059,5-all in one,2024.1.4,None,2024-07-03 12h49.30.744351 +0900,
Images/Speaker1.jpg,Images/Speaker2.jpg,Images/Speaker3.jpg,Images/Speaker4.jpg,Audio/Speaker3_Per/P3-20-Per.wav,Speaker3,گوینده۳,0,24,24,59,,,,,140.61433208400013,,,,,,,,,,,,,,,,,,,,,,,,,,,,,,,,,,,,,,,,,,,,,51.393080499999996,0.0,False,51.39326529199934,714310,001,2024-07-03_12h49.26.059,5-all in one,2024.1.4,None,2024-07-03 12h49.30.744351 +0900,
Images/Speaker1.jpg,Images/Speaker2.jpg,Images/Speaker3.jpg,Images/Speaker4.jpg,Audio/Speaker4_Per/P4-15-Per.wav,Speaker4,گوینده۴,0,25,25,74,,,,,140.61433208400013,,,,,,,,,,,,,,,,,,,,,,,,,,,,,,,,,,,,,,,,,,,,,51.408866249999846,0.0,False,51.40908695899998,714310,001,2024-07-03_12h49.26.059,5-all in one,2024.1.4,None,2024-07-03 12h49.30.744351 +0900,
Images/Speaker1.jpg,Images/Speaker2.jpg,Images/Speaker3.jpg,Images/Speaker4.jpg,Audio/Speaker3_Per/P3-19-Per.wav,Speaker3,گوینده۳,0,26,26,58,,,,,140.61433208400013,,,,,,,,,,,,,,,,,,,,,,,,,,,,,,,,,,,,,,,,,,,,,51.42490895899937,0.0,False,51.42510866699922,714310,001,2024-07-03_12h49.26.059,5-all in one,2024.1.4,None,2024-07-03 12h49.30.744351 +0900,
Images/Speaker1.jpg,Images/Speaker2.jpg,Images/Speaker3.jpg,Images/Speaker4.jpg,Audio/Speaker2_Per/P2-20-Per.wav,Speaker2,گوینده۲,0,27,27,39,,,,,140.61433208400013,,,,,,,,,,,,,,,,,,,,,,,,,,,,,,,,,,,,,,,,,,,,,51.4413162919991,0.0,False,51.44148554200001,714310,001,2024-07-03_12h49.26.059,5-all in one,2024.1.4,None,2024-07-03 12h49.30.744351 +0900,
Images/Speaker1.jpg,Images/Speaker2.jpg,Images/Speaker3.jpg,Images/Speaker4.jpg,Audio/Speaker2_Per/P2-12-Per.wav,Speaker2,گوینده۲,0,28,28,31,,,,,140.61433208400013,,,,,,,,,,,,,,,,,,,,,,,,,,,,,,,,,,,,,,,,,,,,,51.4574545839987,0.0,False,51.457643499999904,714310,001,2024-07-03_12h49.26.059,5-all in one,2024.1.4,None,2024-07-03 12h49.30.744351 +0900,
Images/Speaker1.jpg,Images/Speaker2.jpg,Images/Speaker3.jpg,Images/Speaker4.jpg,Audio/Speaker1_Per/P1-4-Per.wav,Speaker1,گوینده ۱,0,29,29,13,,,,,140.61433208400013,,,,,,,,,,,,,,,,,,,,,,,,,,,,,,,,,,,,,,,,,,,,,51.47306079199916,0.0,False,51.47323541699916,714310,001,2024-07-03_12h49.26.059,5-all in one,2024.1.4,None,2024-07-03 12h49.30.744351 +0900,
Images/Speaker1.jpg,Images/Speaker2.jpg,Images/Speaker3.jpg,Images/Speaker4.jpg,Audio/Speaker2_Per/P2-15-Per.wav,Speaker2,گوینده۲,0,30,30,34,,,,,140.61433208400013,,,,,,,,,,,,,,,,,,,,,,,,,,,,,,,,,,,,,,,,,,,,,51.488951541999995,0.0,False,51.489153917000294,714310,001,2024-07-03_12h49.26.059,5-all in one,2024.1.4,None,2024-07-03 12h49.30.744351 +0900,
Images/Speaker1.jpg,Images/Speaker2.jpg,Images/Speaker3.jpg,Images/Speaker4.jpg,Audio/Speaker4_Per/P4-2-Per.wav,Speaker4,گوینده۴,0,31,31,61,,,,,140.61433208400013,,,,,,,,,,,,,,,,,,,,,,,,,,,,,,,,,,,,,,,,,,,,,51.50539562499944,0.0,False,51.50557645899971,714310,001,2024-07-03_12h49.26.059,5-all in one,2024.1.4,None,2024-07-03 12h49.30.744351 +0900,
Images/Speaker1.jpg,Images/Speaker2.jpg,Images/Speaker3.jpg,Images/Speaker4.jpg,Audio/Speaker4_Per/P4-5-Per.wav,Speaker4,گوینده۴,0,32,32,64,,,,,140.61433208400013,,,,,,,,,,,,,,,,,,,,,,,,,,,,,,,,,,,,,,,,,,,,,51.52145245899919,0.0,False,51.52164479199928,714310,001,2024-07-03_12h49.26.059,5-all in one,2024.1.4,None,2024-07-03 12h49.30.744351 +0900,
Images/Speaker1.jpg,Images/Speaker2.jpg,Images/Speaker3.jpg,Images/Speaker4.jpg,Audio/Speaker3_Per/P3-2-Per.wav,Speaker3,گوینده۳,0,33,33,41,,,,,140.61433208400013,,,,,,,,,,,,,,,,,,,,,,,,,,,,,,,,,,,,,,,,,,,,,51.53739554200001,0.0,False,51.53757824999957,714310,001,2024-07-03_12h49.26.059,5-all in one,2024.1.4,None,2024-07-03 12h49.30.744351 +0900,
Images/Speaker1.jpg,Images/Speaker2.jpg,Images/Speaker3.jpg,Images/Speaker4.jpg,Audio/Speaker2_Per/P2-1-Per.wav,Speaker2,گوینده۲,0,34,34,20,,,,,140.61433208400013,,,,,,,,,,,,,,,,,,,,,,,,,,,,,,,,,,,,,,,,,,,,,51.55324416700023,0.0,False,51.55341212500025,714310,001,2024-07-03_12h49.26.059,5-all in one,2024.1.4,None,2024-07-03 12h49.30.744351 +0900,
Images/Speaker1.jpg,Images/Speaker2.jpg,Images/Speaker3.jpg,Images/Speaker4.jpg,Audio/Speaker3_Per/P3-5-Per.wav,Speaker3,گوینده۳,0,35,35,44,,,,,140.61433208400013,,,,,,,,,,,,,,,,,,,,,,,,,,,,,,,,,,,,,,,,,,,,,51.56952045899925,0.0,False,51.56971170900033,714310,001,2024-07-03_12h49.26.059,5-all in one,2024.1.4,None,2024-07-03 12h49.30.744351 +0900,
Images/Speaker1.jpg,Images/Speaker2.jpg,Images/Speaker3.jpg,Images/Speaker4.jpg,Audio/Speaker2_Per/P2-13-Per.wav,Speaker2,گوینده۲,0,36,36,32,,,,,140.61433208400013,,,,,,,,,,,,,,,,,,,,,,,,,,,,,,,,,,,,,,,,,,,,,51.585637916999985,0.0,False,51.58580925000024,714310,001,2024-07-03_12h49.26.059,5-all in one,2024.1.4,None,2024-07-03 12h49.30.744351 +0900,
Images/Speaker1.jpg,Images/Speaker2.jpg,Images/Speaker3.jpg,Images/Speaker4.jpg,Audio/Speaker4_Per/P4-16-Per.wav,Speaker4,گوینده۴,0,37,37,75,,,,,140.61433208400013,,,,,,,,,,,,,,,,,,,,,,,,,,,,,,,,,,,,,,,,,,,,,51.60154079200038,0.0,False,51.601709917000335,714310,001,2024-07-03_12h49.26.059,5-all in one,2024.1.4,None,2024-07-03 12h49.30.744351 +0900,
Images/Speaker1.jpg,Images/Speaker2.jpg,Images/Speaker3.jpg,Images/Speaker4.jpg,Audio/Speaker1_Per/P1-10-Per.wav,Speaker1,گوینده ۱,0,38,38,9,,,,,140.61433208400013,,,,,,,,,,,,,,,,,,,,,,,,,,,,,,,,,,,,,,,,,,,,,51.61735933399905,0.0,False,51.61755033400004,714310,001,2024-07-03_12h49.26.059,5-all in one,2024.1.4,None,2024-07-03 12h49.30.744351 +0900,
Images/Speaker1.jpg,Images/Speaker2.jpg,Images/Speaker3.jpg,Images/Speaker4.jpg,Audio/Speaker3_Per/P3-12-Per.wav,Speaker3,گوینده۳,0,39,39,51,,,,,140.61433208400013,,,,,,,,,,,,,,,,,,,,,,,,,,,,,,,,,,,,,,,,,,,,,51.63355099999899,0.0,False,51.63377691700043,714310,001,2024-07-03_12h49.26.059,5-all in one,2024.1.4,None,2024-07-03 12h49.30.744351 +0900,
Images/Speaker1.jpg,Images/Speaker2.jpg,Images/Speaker3.jpg,Images/Speaker4.jpg,Audio/Speaker3_Per/P3-9-Per.wav,Speaker3,گوینده۳,0,40,40,48,,,,,140.61433208400013,,,,,,,,,,,,,,,,,,,,,,,,,,,,,,,,,,,,,,,,,,,,,51.64958850000039,0.0,False,51.64976908399876,714310,001,2024-07-03_12h49.26.059,5-all in one,2024.1.4,None,2024-07-03 12h49.30.744351 +0900,
Images/Speaker1.jpg,Images/Speaker2.jpg,Images/Speaker3.jpg,Images/Speaker4.jpg,Audio/Speaker2_Per/P2-14-Per.wav,Speaker2,گوینده۲,0,41,41,33,,,,,140.61433208400013,,,,,,,,,,,,,,,,,,,,,,,,,,,,,,,,,,,,,,,,,,,,,51.66554874999929,0.0,False,51.665737708999586,714310,001,2024-07-03_12h49.26.059,5-all in one,2024.1.4,None,2024-07-03 12h49.30.744351 +0900,
Images/Speaker1.jpg,Images/Speaker2.jpg,Images/Speaker3.jpg,Images/Speaker4.jpg,Audio/Speaker2_Per/P2-19-Per.wav,Speaker2,گوینده۲,0,42,42,38,,,,,140.61433208400013,,,,,,,,,,,,,,,,,,,,,,,,,,,,,,,,,,,,,,,,,,,,,51.68154700000014,0.0,False,51.68173712499993,714310,001,2024-07-03_12h49.26.059,5-all in one,2024.1.4,None,2024-07-03 12h49.30.744351 +0900,
Images/Speaker1.jpg,Images/Speaker2.jpg,Images/Speaker3.jpg,Images/Speaker4.jpg,Audio/Speaker2_Per/P2-5-Per.wav,Speaker2,گوینده۲,0,43,43,24,,,,,140.61433208400013,,,,,,,,,,,,,,,,,,,,,,,,,,,,,,,,,,,,,,,,,,,,,51.69805133400041,0.0,False,51.69823479200022,714310,001,2024-07-03_12h49.26.059,5-all in one,2024.1.4,None,2024-07-03 12h49.30.744351 +0900,
Images/Speaker1.jpg,Images/Speaker2.jpg,Images/Speaker3.jpg,Images/Speaker4.jpg,Audio/Speaker1_Per/P1-1-Per.wav,Speaker1,گوینده ۱,0,44,44,0,,,,,140.61433208400013,,,,,,,,,,,,,,,,,,,,,,,,,,,,,,,,,,,,,,,,,,,,,51.71409800000038,0.0,False,51.71427316699919,714310,001,2024-07-03_12h49.26.059,5-all in one,2024.1.4,None,2024-07-03 12h49.30.744351 +0900,
Images/Speaker1.jpg,Images/Speaker2.jpg,Images/Speaker3.jpg,Images/Speaker4.jpg,Audio/Speaker4_Per/P4-12-Per.wav,Speaker4,گوینده۴,0,45,45,71,,,,,140.61433208400013,,,,,,,,,,,,,,,,,,,,,,,,,,,,,,,,,,,,,,,,,,,,,51.73017299999992,0.0,False,51.7303601249987,714310,001,2024-07-03_12h49.26.059,5-all in one,2024.1.4,None,2024-07-03 12h49.30.744351 +0900,
Images/Speaker1.jpg,Images/Speaker2.jpg,Images/Speaker3.jpg,Images/Speaker4.jpg,Audio/Speaker1_Per/P1-11-Per.wav,Speaker1,گوینده ۱,0,46,46,10,,,,,140.61433208400013,,,,,,,,,,,,,,,,,,,,,,,,,,,,,,,,,,,,,,,,,,,,,51.74625812500017,0.0,False,51.746461791999536,714310,001,2024-07-03_12h49.26.059,5-all in one,2024.1.4,None,2024-07-03 12h49.30.744351 +0900,
Images/Speaker1.jpg,Images/Speaker2.jpg,Images/Speaker3.jpg,Images/Speaker4.jpg,Audio/Speaker2_Per/P2-9-Per.wav,Speaker2,گوینده۲,0,47,47,28,,,,,140.61433208400013,,,,,,,,,,,,,,,,,,,,,,,,,,,,,,,,,,,,,,,,,,,,,51.762640834000194,0.0,False,51.762821459000406,714310,001,2024-07-03_12h49.26.059,5-all in one,2024.1.4,None,2024-07-03 12h49.30.744351 +0900,
Images/Speaker1.jpg,Images/Speaker2.jpg,Images/Speaker3.jpg,Images/Speaker4.jpg,Audio/Speaker1_Per/P1-5-Per.wav,Speaker1,گوینده ۱,0,48,48,4,,,,,140.61433208400013,,,,,,,,,,,,,,,,,,,,,,,,,,,,,,,,,,,,,,,,,,,,,51.778709416999845,0.0,False,51.778884249999464,714310,001,2024-07-03_12h49.26.059,5-all in one,2024.1.4,None,2024-07-03 12h49.30.744351 +0900,
Images/Speaker1.jpg,Images/Speaker2.jpg,Images/Speaker3.jpg,Images/Speaker4.jpg,Audio/Speaker4_Per/P4-11-Per.wav,Speaker4,گوینده۴,0,49,49,70,,,,,140.61433208400013,,,,,,,,,,,,,,,,,,,,,,,,,,,,,,,,,,,,,,,,,,,,,51.79469041700031,0.0,False,51.79485570900033,714310,001,2024-07-03_12h49.26.059,5-all in one,2024.1.4,None,2024-07-03 12h49.30.744351 +0900,
Images/Speaker1.jpg,Images/Speaker2.jpg,Images/Speaker3.jpg,Images/Speaker4.jpg,Audio/Speaker2_Per/P2-11-Per.wav,Speaker2,گوینده۲,0,50,50,30,,,,,140.61433208400013,,,,,,,,,,,,,,,,,,,,,,,,,,,,,,,,,,,,,,,,,,,,,51.810683249999784,0.0,False,51.810858499999085,714310,001,2024-07-03_12h49.26.059,5-all in one,2024.1.4,None,2024-07-03 12h49.30.744351 +0900,
Images/Speaker1.jpg,Images/Speaker2.jpg,Images/Speaker3.jpg,Images/Speaker4.jpg,Audio/Speaker1_Per/P1-13-Per.wav,Speaker1,گوینده ۱,0,51,51,12,,,,,140.61433208400013,,,,,,,,,,,,,,,,,,,,,,,,,,,,,,,,,,,,,,,,,,,,,51.827117791999626,0.0,False,51.827350874998956,714310,001,2024-07-03_12h49.26.059,5-all in one,2024.1.4,None,2024-07-03 12h49.30.744351 +0900,
Images/Speaker1.jpg,Images/Speaker2.jpg,Images/Speaker3.jpg,Images/Speaker4.jpg,Audio/Speaker2_Per/P2-3-Per.wav,Speaker2,گوینده۲,0,52,52,22,,,,,140.61433208400013,,,,,,,,,,,,,,,,,,,,,,,,,,,,,,,,,,,,,,,,,,,,,51.843303749999905,0.0,False,51.84349004199976,714310,001,2024-07-03_12h49.26.059,5-all in one,2024.1.4,None,2024-07-03 12h49.30.744351 +0900,
Images/Speaker1.jpg,Images/Speaker2.jpg,Images/Speaker3.jpg,Images/Speaker4.jpg,Audio/Speaker2_Per/P2-10-Per.wav,Speaker2,گوینده۲,0,53,53,29,,,,,140.61433208400013,,,,,,,,,,,,,,,,,,,,,,,,,,,,,,,,,,,,,,,,,,,,,51.85912295900016,0.0,False,51.85934812499909,714310,001,2024-07-03_12h49.26.059,5-all in one,2024.1.4,None,2024-07-03 12h49.30.744351 +0900,
Images/Speaker1.jpg,Images/Speaker2.jpg,Images/Speaker3.jpg,Images/Speaker4.jpg,Audio/Speaker3_Per/P3-6-Per.wav,Speaker3,گوینده۳,0,54,54,45,,,,,140.61433208400013,,,,,,,,,,,,,,,,,,,,,,,,,,,,,,,,,,,,,,,,,,,,,51.875234749999436,0.0,False,51.875429083998824,714310,001,2024-07-03_12h49.26.059,5-all in one,2024.1.4,None,2024-07-03 12h49.30.744351 +0900,
Images/Speaker1.jpg,Images/Speaker2.jpg,Images/Speaker3.jpg,Images/Speaker4.jpg,Audio/Speaker1_Per/P1-8-Per.wav,Speaker1,گوینده ۱,0,55,55,7,,,,,140.61433208400013,,,,,,,,,,,,,,,,,,,,,,,,,,,,,,,,,,,,,,,,,,,,,51.8914841249989,0.0,False,51.89165583399881,714310,001,2024-07-03_12h49.26.059,5-all in one,2024.1.4,None,2024-07-03 12h49.30.744351 +0900,
Images/Speaker1.jpg,Images/Speaker2.jpg,Images/Speaker3.jpg,Images/Speaker4.jpg,Audio/Speaker3_Per/P3-16-Per.wav,Speaker3,گوینده۳,0,56,56,55,,,,,140.61433208400013,,,,,,,,,,,,,,,,,,,,,,,,,,,,,,,,,,,,,,,,,,,,,51.907495416999154,0.0,False,51.9076897089999,714310,001,2024-07-03_12h49.26.059,5-all in one,2024.1.4,None,2024-07-03 12h49.30.744351 +0900,
Images/Speaker1.jpg,Images/Speaker2.jpg,Images/Speaker3.jpg,Images/Speaker4.jpg,Audio/Speaker2_Per/P2-6-Per.wav,Speaker2,گوینده۲,0,57,57,25,,,,,140.61433208400013,,,,,,,,,,,,,,,,,,,,,,,,,,,,,,,,,,,,,,,,,,,,,51.92344116700042,0.0,False,51.92361358400012,714310,001,2024-07-03_12h49.26.059,5-all in one,2024.1.4,None,2024-07-03 12h49.30.744351 +0900,
Images/Speaker1.jpg,Images/Speaker2.jpg,Images/Speaker3.jpg,Images/Speaker4.jpg,Audio/Speaker4_Per/P4-13-Per.wav,Speaker4,گوینده۴,0,58,58,72,,,,,140.61433208400013,,,,,,,,,,,,,,,,,,,,,,,,,,,,,,,,,,,,,,,,,,,,,51.93948674999956,0.0,False,51.93966479200026,714310,001,2024-07-03_12h49.26.059,5-all in one,2024.1.4,None,2024-07-03 12h49.30.744351 +0900,
Images/Speaker1.jpg,Images/Speaker2.jpg,Images/Speaker3.jpg,Images/Speaker4.jpg,Audio/Speaker2_Per/P2-16-Per.wav,Speaker2,گوینده۲,0,59,59,35,,,,,140.61433208400013,,,,,,,,,,,,,,,,,,,,,,,,,,,,,,,,,,,,,,,,,,,,,51.95570604199929,0.0,False,51.955892666999716,714310,001,2024-07-03_12h49.26.059,5-all in one,2024.1.4,None,2024-07-03 12h49.30.744351 +0900,
Images/Speaker1.jpg,Images/Speaker2.jpg,Images/Speaker3.jpg,Images/Speaker4.jpg,Audio/Speaker3_Per/P3-3-Per.wav,Speaker3,گوینده۳,0,60,60,42,,,,,140.61433208400013,,,,,,,,,,,,,,,,,,,,,,,,,,,,,,,,,,,,,,,,,,,,,51.971862333999525,0.0,False,51.97205495900016,714310,001,2024-07-03_12h49.26.059,5-all in one,2024.1.4,None,2024-07-03 12h49.30.744351 +0900,
Images/Speaker1.jpg,Images/Speaker2.jpg,Images/Speaker3.jpg,Images/Speaker4.jpg,Audio/Speaker3_Per/P3-11-Per.wav,Speaker3,گوینده۳,0,61,61,50,,,,,140.61433208400013,,,,,,,,,,,,,,,,,,,,,,,,,,,,,,,,,,,,,,,,,,,,,51.98773824999989,0.0,False,51.98796116700032,714310,001,2024-07-03_12h49.26.059,5-all in one,2024.1.4,None,2024-07-03 12h49.30.744351 +0900,
Images/Speaker1.jpg,Images/Speaker2.jpg,Images/Speaker3.jpg,Images/Speaker4.jpg,Audio/Speaker4_Per/P4-14-Per.wav,Speaker4,گوینده۴,0,62,62,73,,,,,140.61433208400013,,,,,,,,,,,,,,,,,,,,,,,,,,,,,,,,,,,,,,,,,,,,,52.00375712499954,0.0,False,52.003949833999286,714310,001,2024-07-03_12h49.26.059,5-all in one,2024.1.4,None,2024-07-03 12h49.30.744351 +0900,
Images/Speaker1.jpg,Images/Speaker2.jpg,Images/Speaker3.jpg,Images/Speaker4.jpg,Audio/Speaker3_Per/P3-15-Per.wav,Speaker3,گوینده۳,0,63,63,54,,,,,140.61433208400013,,,,,,,,,,,,,,,,,,,,,,,,,,,,,,,,,,,,,,,,,,,,,52.07010116699894,0.0,False,52.070387292000305,714310,001,2024-07-03_12h49.26.059,5-all in one,2024.1.4,None,2024-07-03 12h49.30.744351 +0900,
Images/Speaker1.jpg,Images/Speaker2.jpg,Images/Speaker3.jpg,Images/Speaker4.jpg,Audio/Speaker4_Per/P4-4-Per.wav,Speaker4,گوینده۴,0,64,64,63,,,,,140.61433208400013,,,,,,,,,,,,,,,,,,,,,,,,,,,,,,,,,,,,,,,,,,,,,52.08644045899928,0.0,False,52.08667024999886,714310,001,2024-07-03_12h49.26.059,5-all in one,2024.1.4,None,2024-07-03 12h49.30.744351 +0900,
Images/Speaker1.jpg,Images/Speaker2.jpg,Images/Speaker3.jpg,Images/Speaker4.jpg,Audio/Speaker3_Per/P3-4-Per.wav,Speaker3,گوینده۳,0,65,65,43,,,,,140.61433208400013,,,,,,,,,,,,,,,,,,,,,,,,,,,,,,,,,,,,,,,,,,,,,52.10238212500008,0.0,False,52.10263479199966,714310,001,2024-07-03_12h49.26.059,5-all in one,2024.1.4,None,2024-07-03 12h49.30.744351 +0900,
Images/Speaker1.jpg,Images/Speaker2.jpg,Images/Speaker3.jpg,Images/Speaker4.jpg,Audio/Speaker3_Per/P3-10-Per.wav,Speaker3,گوینده۳,0,66,66,49,,,,,140.61433208400013,,,,,,,,,,,,,,,,,,,,,,,,,,,,,,,,,,,,,,,,,,,,,52.118835874998695,0.0,False,52.11901420899994,714310,001,2024-07-03_12h49.26.059,5-all in one,2024.1.4,None,2024-07-03 12h49.30.744351 +0900,
Images/Speaker1.jpg,Images/Speaker2.jpg,Images/Speaker3.jpg,Images/Speaker4.jpg,Audio/Speaker1_Per/P1-9-Per.wav,Speaker1,گوینده ۱,0,67,67,8,,,,,140.61433208400013,,,,,,,,,,,,,,,,,,,,,,,,,,,,,,,,,,,,,,,,,,,,,52.134868166998785,0.0,False,52.13506199999938,714310,001,2024-07-03_12h49.26.059,5-all in one,2024.1.4,None,2024-07-03 12h49.30.744351 +0900,
Images/Speaker1.jpg,Images/Speaker2.jpg,Images/Speaker3.jpg,Images/Speaker4.jpg,Audio/Speaker4_Per/P4-9-Per.wav,Speaker4,گوینده۴,0,68,68,68,,,,,140.61433208400013,,,,,,,,,,,,,,,,,,,,,,,,,,,,,,,,,,,,,,,,,,,,,52.1508182919988,0.0,False,52.150992249999035,714310,001,2024-07-03_12h49.26.059,5-all in one,2024.1.4,None,2024-07-03 12h49.30.744351 +0900,
Images/Speaker1.jpg,Images/Speaker2.jpg,Images/Speaker3.jpg,Images/Speaker4.jpg,Audio/Speaker3_Per/P3-7-Per.wav,Speaker3,گوینده۳,0,69,69,46,,,,,140.61433208400013,,,,,,,,,,,,,,,,,,,,,,,,,,,,,,,,,,,,,,,,,,,,,52.16671150000002,0.0,False,52.16690470899994,714310,001,2024-07-03_12h49.26.059,5-all in one,2024.1.4,None,2024-07-03 12h49.30.744351 +0900,
Images/Speaker1.jpg,Images/Speaker2.jpg,Images/Speaker3.jpg,Images/Speaker4.jpg,Audio/Speaker4_Per/P4-3-Per.wav,Speaker4,گوینده۴,0,70,70,62,,,,,140.61433208400013,,,,,,,,,,,,,,,,,,,,,,,,,,,,,,,,,,,,,,,,,,,,,52.1831016670003,0.0,False,52.183269541999834,714310,001,2024-07-03_12h49.26.059,5-all in one,2024.1.4,None,2024-07-03 12h49.30.744351 +0900,
Images/Speaker1.jpg,Images/Speaker2.jpg,Images/Speaker3.jpg,Images/Speaker4.jpg,Audio/Speaker4_Per/P4-1-Per.wav,Speaker4,گوینده۴,0,71,71,60,,,,,140.61433208400013,,,,,,,,,,,,,,,,,,,,,,,,,,,,,,,,,,,,,,,,,,,,,52.19913616699887,0.0,False,52.199318666998806,714310,001,2024-07-03_12h49.26.059,5-all in one,2024.1.4,None,2024-07-03 12h49.30.744351 +0900,
Images/Speaker1.jpg,Images/Speaker2.jpg,Images/Speaker3.jpg,Images/Speaker4.jpg,Audio/Speaker2_Per/P2-7-Per.wav,Speaker2,گوینده۲,0,72,72,26,,,,,140.61433208400013,,,,,,,,,,,,,,,,,,,,,,,,,,,,,,,,,,,,,,,,,,,,,52.21491745899948,0.0,False,52.21515716700014,714310,001,2024-07-03_12h49.26.059,5-all in one,2024.1.4,None,2024-07-03 12h49.30.744351 +0900,
Images/Speaker1.jpg,Images/Speaker2.jpg,Images/Speaker3.jpg,Images/Speaker4.jpg,Audio/Speaker1_Per/P1-7-Per.wav,Speaker1,گوینده ۱,0,73,73,6,,,,,140.61433208400013,,,,,,,,,,,,,,,,,,,,,,,,,,,,,,,,,,,,,,,,,,,,,52.23078062499917,0.0,False,52.23100675000023,714310,001,2024-07-03_12h49.26.059,5-all in one,2024.1.4,None,2024-07-03 12h49.30.744351 +0900,
Images/Speaker1.jpg,Images/Speaker2.jpg,Images/Speaker3.jpg,Images/Speaker4.jpg,Audio/Speaker1_Per/P1-16-Per.wav,Speaker1,گوینده ۱,0,74,74,15,,,,,140.61433208400013,,,,,,,,,,,,,,,,,,,,,,,,,,,,,,,,,,,,,,,,,,,,,52.24737395899865,0.0,False,52.24755745899893,714310,001,2024-07-03_12h49.26.059,5-all in one,2024.1.4,None,2024-07-03 12h49.30.744351 +0900,
Images/Speaker1.jpg,Images/Speaker2.jpg,Images/Speaker3.jpg,Images/Speaker4.jpg,Audio/Speaker2_Per/P2-8-Per.wav,Speaker2,گوینده۲,0,75,75,27,,,,,140.61433208400013,,,,,,,,,,,,,,,,,,,,,,,,,,,,,,,,,,,,,,,,,,,,,52.26324525000018,0.0,False,52.263420125000266,714310,001,2024-07-03_12h49.26.059,5-all in one,2024.1.4,None,2024-07-03 12h49.30.744351 +0900,
Images/Speaker1.jpg,Images/Speaker2.jpg,Images/Speaker3.jpg,Images/Speaker4.jpg,Audio/Speaker4_Per/P4-20-Per.wav,Speaker4,گوینده۴,0,76,76,79,,,,,140.61433208400013,,,,,,,,,,,,,,,,,,,,,,,,,,,,,,,,,,,,,,,,,,,,,52.27916758399988,0.0,False,52.27936879200024,714310,001,2024-07-03_12h49.26.059,5-all in one,2024.1.4,None,2024-07-03 12h49.30.744351 +0900,
Images/Speaker1.jpg,Images/Speaker2.jpg,Images/Speaker3.jpg,Images/Speaker4.jpg,Audio/Speaker2_Per/P2-18-Per.wav,Speaker2,گوینده۲,0,77,77,37,,,,,140.61433208400013,,,,,,,,,,,,,,,,,,,,,,,,,,,,,,,,,,,,,,,,,,,,,52.29501079199872,0.0,False,52.29523129199879,714310,001,2024-07-03_12h49.26.059,5-all in one,2024.1.4,None,2024-07-03 12h49.30.744351 +0900,
Images/Speaker1.jpg,Images/Speaker2.jpg,Images/Speaker3.jpg,Images/Speaker4.jpg,Audio/Speaker4_Per/P4-19-Per.wav,Speaker4,گوینده۴,0,78,78,78,,,,,140.61433208400013,,,,,,,,,,,,,,,,,,,,,,,,,,,,,,,,,,,,,,,,,,,,,52.31148216699876,0.0,False,52.31167529199956,714310,001,2024-07-03_12h49.26.059,5-all in one,2024.1.4,None,2024-07-03 12h49.30.744351 +0900,
Images/Speaker1.jpg,Images/Speaker2.jpg,Images/Speaker3.jpg,Images/Speaker4.jpg,Audio/Speaker1_Per/P1-3-Per.wav,Speaker1,گوینده ۱,0,79,79,2,,,,,140.61433208400013,,,,,,,,,,,,,,,,,,,,,,,,,,,,,,,,,,,,,,,,,,,,,52.32740104199911,0.0,False,52.32759083400015,714310,001,2024-07-03_12h49.26.059,5-all in one,2024.1.4,None,2024-07-03 12h49.30.744351 +0900,
Images/Speaker1.jpg,Images/Speaker2.jpg,Images/Speaker3.jpg,Images/Speaker4.jpg,Audio/Speaker3_Per/P3-3-Per.wav,Speaker3,گوینده۳,1,0,80,42,,,,,140.61433208400013,,,,,,,,,,,,,,,,,,,,,,,,,,,,,,,,,,,,,,,,,,,,,52.34326924999914,0.0,False,52.34342829199886,714310,001,2024-07-03_12h49.26.059,5-all in one,2024.1.4,None,2024-07-03 12h49.30.744351 +0900,
Images/Speaker1.jpg,Images/Speaker2.jpg,Images/Speaker3.jpg,Images/Speaker4.jpg,Audio/Speaker3_Per/P3-13-Per.wav,Speaker3,گوینده۳,1,1,81,52,,,,,140.61433208400013,,,,,,,,,,,,,,,,,,,,,,,,,,,,,,,,,,,,,,,,,,,,,52.359158375000334,0.0,False,52.35939175000021,714310,001,2024-07-03_12h49.26.059,5-all in one,2024.1.4,None,2024-07-03 12h49.30.744351 +0900,
Images/Speaker1.jpg,Images/Speaker2.jpg,Images/Speaker3.jpg,Images/Speaker4.jpg,Audio/Speaker2_Per/P2-10-Per.wav,Speaker2,گوینده۲,1,2,82,29,,,,,140.61433208400013,,,,,,,,,,,,,,,,,,,,,,,,,,,,,,,,,,,,,,,,,,,,,52.375612042000284,0.0,False,52.37577079199946,714310,001,2024-07-03_12h49.26.059,5-all in one,2024.1.4,None,2024-07-03 12h49.30.744351 +0900,
Images/Speaker1.jpg,Images/Speaker2.jpg,Images/Speaker3.jpg,Images/Speaker4.jpg,Audio/Speaker4_Per/P4-17-Per.wav,Speaker4,گوینده۴,1,3,83,76,,,,,140.61433208400013,,,,,,,,,,,,,,,,,,,,,,,,,,,,,,,,,,,,,,,,,,,,,52.39140016700003,0.0,False,52.39159445899895,714310,001,2024-07-03_12h49.26.059,5-all in one,2024.1.4,None,2024-07-03 12h49.30.744351 +0900,
Images/Speaker1.jpg,Images/Speaker2.jpg,Images/Speaker3.jpg,Images/Speaker4.jpg,Audio/Speaker1_Per/P1-19-Per.wav,Speaker1,گوینده ۱,1,4,84,18,,,,,140.61433208400013,,,,,,,,,,,,,,,,,,,,,,,,,,,,,,,,,,,,,,,,,,,,,52.40727820899883,0.0,False,52.40744699999959,714310,001,2024-07-03_12h49.26.059,5-all in one,2024.1.4,None,2024-07-03 12h49.30.744351 +0900,
Images/Speaker1.jpg,Images/Speaker2.jpg,Images/Speaker3.jpg,Images/Speaker4.jpg,Audio/Speaker1_Per/P1-20-Per.wav,Speaker1,گوینده ۱,1,5,85,19,,,,,140.61433208400013,,,,,,,,,,,,,,,,,,,,,,,,,,,,,,,,,,,,,,,,,,,,,52.42312745900017,0.0,False,52.42333999999937,714310,001,2024-07-03_12h49.26.059,5-all in one,2024.1.4,None,2024-07-03 12h49.30.744351 +0900,
Images/Speaker1.jpg,Images/Speaker2.jpg,Images/Speaker3.jpg,Images/Speaker4.jpg,Audio/Speaker3_Per/P3-12-Per.wav,Speaker3,گوینده۳,1,6,86,51,,,,,140.61433208400013,,,,,,,,,,,,,,,,,,,,,,,,,,,,,,,,,,,,,,,,,,,,,52.43973116699999,0.0,False,52.439921749999485,714310,001,2024-07-03_12h49.26.059,5-all in one,2024.1.4,None,2024-07-03 12h49.30.744351 +0900,
Images/Speaker1.jpg,Images/Speaker2.jpg,Images/Speaker3.jpg,Images/Speaker4.jpg,Audio/Speaker2_Per/P2-20-Per.wav,Speaker2,گوینده۲,1,7,87,39,,,,,140.61433208400013,,,,,,,,,,,,,,,,,,,,,,,,,,,,,,,,,,,,,,,,,,,,,52.45567620899965,0.0,False,52.45585491699967,714310,001,2024-07-03_12h49.26.059,5-all in one,2024.1.4,None,2024-07-03 12h49.30.744351 +0900,
Images/Speaker1.jpg,Images/Speaker2.jpg,Images/Speaker3.jpg,Images/Speaker4.jpg,Audio/Speaker4_Per/P4-20-Per.wav,Speaker4,گوینده۴,1,8,88,79,,,,,140.61433208400013,,,,,,,,,,,,,,,,,,,,,,,,,,,,,,,,,,,,,,,,,,,,,52.47152458399978,0.0,False,52.47171666699978,714310,001,2024-07-03_12h49.26.059,5-all in one,2024.1.4,None,2024-07-03 12h49.30.744351 +0900,
Images/Speaker1.jpg,Images/Speaker2.jpg,Images/Speaker3.jpg,Images/Speaker4.jpg,Audio/Speaker4_Per/P4-9-Per.wav,Speaker4,گوینده۴,1,9,89,68,,,,,140.61433208400013,,,,,,,,,,,,,,,,,,,,,,,,,,,,,,,,,,,,,,,,,,,,,52.487431042000026,0.0,False,52.48763387500003,714310,001,2024-07-03_12h49.26.059,5-all in one,2024.1.4,None,2024-07-03 12h49.30.744351 +0900,
Images/Speaker1.jpg,Images/Speaker2.jpg,Images/Speaker3.jpg,Images/Speaker4.jpg,Audio/Speaker3_Per/P3-6-Per.wav,Speaker3,گوینده۳,1,10,90,45,,,,,140.61433208400013,,,,,,,,,,,,,,,,,,,,,,,,,,,,,,,,,,,,,,,,,,,,,52.50377533400024,0.0,False,52.50399666699923,714310,001,2024-07-03_12h49.26.059,5-all in one,2024.1.4,None,2024-07-03 12h49.30.744351 +0900,
Images/Speaker1.jpg,Images/Speaker2.jpg,Images/Speaker3.jpg,Images/Speaker4.jpg,Audio/Speaker2_Per/P2-6-Per.wav,Speaker2,گوینده۲,1,11,91,25,,,,,140.61433208400013,,,,,,,,,,,,,,,,,,,,,,,,,,,,,,,,,,,,,,,,,,,,,52.519735292000405,0.0,False,52.51990924999882,714310,001,2024-07-03_12h49.26.059,5-all in one,2024.1.4,None,2024-07-03 12h49.30.744351 +0900,
Images/Speaker1.jpg,Images/Speaker2.jpg,Images/Speaker3.jpg,Images/Speaker4.jpg,Audio/Speaker1_Per/P1-8-Per.wav,Speaker1,گوینده ۱,1,12,92,7,,,,,140.61433208400013,,,,,,,,,,,,,,,,,,,,,,,,,,,,,,,,,,,,,,,,,,,,,52.53569591700034,0.0,False,52.53592862499863,714310,001,2024-07-03_12h49.26.059,5-all in one,2024.1.4,None,2024-07-03 12h49.30.744351 +0900,
Images/Speaker1.jpg,Images/Speaker2.jpg,Images/Speaker3.jpg,Images/Speaker4.jpg,Audio/Speaker2_Per/P2-16-Per.wav,Speaker2,گوینده۲,1,13,93,35,,,,,140.61433208400013,,,,,,,,,,,,,,,,,,,,,,,,,,,,,,,,,,,,,,,,,,,,,52.551552749999246,0.0,False,52.551772749999145,714310,001,2024-07-03_12h49.26.059,5-all in one,2024.1.4,None,2024-07-03 12h49.30.744351 +0900,
Images/Speaker1.jpg,Images/Speaker2.jpg,Images/Speaker3.jpg,Images/Speaker4.jpg,Audio/Speaker4_Per/P4-1-Per.wav,Speaker4,گوینده۴,1,14,94,60,,,,,140.61433208400013,,,,,,,,,,,,,,,,,,,,,,,,,,,,,,,,,,,,,,,,,,,,,52.56803083399973,0.0,False,52.56822474999899,714310,001,2024-07-03_12h49.26.059,5-all in one,2024.1.4,None,2024-07-03 12h49.30.744351 +0900,
Images/Speaker1.jpg,Images/Speaker2.jpg,Images/Speaker3.jpg,Images/Speaker4.jpg,Audio/Speaker3_Per/P3-10-Per.wav,Speaker3,گوینده۳,1,15,95,49,,,,,140.61433208400013,,,,,,,,,,,,,,,,,,,,,,,,,,,,,,,,,,,,,,,,,,,,,52.58388354199997,0.0,False,52.584051666999585,714310,001,2024-07-03_12h49.26.059,5-all in one,2024.1.4,None,2024-07-03 12h49.30.744351 +0900,
Images/Speaker1.jpg,Images/Speaker2.jpg,Images/Speaker3.jpg,Images/Speaker4.jpg,Audio/Speaker4_Per/P4-14-Per.wav,Speaker4,گوینده۴,1,16,96,73,,,,,140.61433208400013,,,,,,,,,,,,,,,,,,,,,,,,,,,,,,,,,,,,,,,,,,,,,52.599746166999466,0.0,False,52.599944166999194,714310,001,2024-07-03_12h49.26.059,5-all in one,2024.1.4,None,2024-07-03 12h49.30.744351 +0900,
Images/Speaker1.jpg,Images/Speaker2.jpg,Images/Speaker3.jpg,Images/Speaker4.jpg,Audio/Speaker4_Per/P4-16-Per.wav,Speaker4,گوینده۴,1,17,97,75,,,,,140.61433208400013,,,,,,,,,,,,,,,,,,,,,,,,,,,,,,,,,,,,,,,,,,,,,52.61560170899975,0.0,False,52.61577029199907,714310,001,2024-07-03_12h49.26.059,5-all in one,2024.1.4,None,2024-07-03 12h49.30.744351 +0900,
Images/Speaker1.jpg,Images/Speaker2.jpg,Images/Speaker3.jpg,Images/Speaker4.jpg,Audio/Speaker1_Per/P1-2-Per.wav,Speaker1,گوینده ۱,1,18,98,1,,,,,140.61433208400013,,,,,,,,,,,,,,,,,,,,,,,,,,,,,,,,,,,,,,,,,,,,,52.632205083999,0.0,False,52.63240537499951,714310,001,2024-07-03_12h49.26.059,5-all in one,2024.1.4,None,2024-07-03 12h49.30.744351 +0900,
Images/Speaker1.jpg,Images/Speaker2.jpg,Images/Speaker3.jpg,Images/Speaker4.jpg,Audio/Speaker2_Per/P2-8-Per.wav,Speaker2,گوینده۲,1,19,99,27,,,,,140.61433208400013,,,,,,,,,,,,,,,,,,,,,,,,,,,,,,,,,,,,,,,,,,,,,52.64793420899878,0.0,False,52.648118166998756,714310,001,2024-07-03_12h49.26.059,5-all in one,2024.1.4,None,2024-07-03 12h49.30.744351 +0900,
Images/Speaker1.jpg,Images/Speaker2.jpg,Images/Speaker3.jpg,Images/Speaker4.jpg,Audio/Speaker4_Per/P4-4-Per.wav,Speaker4,گوینده۴,1,20,100,63,,,,,140.61433208400013,,,,,,,,,,,,,,,,,,,,,,,,,,,,,,,,,,,,,,,,,,,,,52.66380783400018,0.0,False,52.6639867089998,714310,001,2024-07-03_12h49.26.059,5-all in one,2024.1.4,None,2024-07-03 12h49.30.744351 +0900,
Images/Speaker1.jpg,Images/Speaker2.jpg,Images/Speaker3.jpg,Images/Speaker4.jpg,Audio/Speaker3_Per/P3-1-Per.wav,Speaker3,گوینده۳,1,21,101,40,,,,,140.61433208400013,,,,,,,,,,,,,,,,,,,,,,,,,,,,,,,,,,,,,,,,,,,,,52.6796882919989,0.0,False,52.67986674999884,714310,001,2024-07-03_12h49.26.059,5-all in one,2024.1.4,None,2024-07-03 12h49.30.744351 +0900,
Images/Speaker1.jpg,Images/Speaker2.jpg,Images/Speaker3.jpg,Images/Speaker4.jpg,Audio/Speaker3_Per/P3-20-Per.wav,Speaker3,گوینده۳,1,22,102,59,,,,,140.61433208400013,,,,,,,,,,,,,,,,,,,,,,,,,,,,,,,,,,,,,,,,,,,,,52.69611987499957,0.0,False,52.696355333999236,714310,001,2024-07-03_12h49.26.059,5-all in one,2024.1.4,None,2024-07-03 12h49.30.744351 +0900,
Images/Speaker1.jpg,Images/Speaker2.jpg,Images/Speaker3.jpg,Images/Speaker4.jpg,Audio/Speaker2_Per/P2-13-Per.wav,Speaker2,گوینده۲,1,23,103,32,,,,,140.61433208400013,,,,,,,,,,,,,,,,,,,,,,,,,,,,,,,,,,,,,,,,,,,,,52.711992791999364,0.0,False,52.71217354199871,714310,001,2024-07-03_12h49.26.059,5-all in one,2024.1.4,None,2024-07-03 12h49.30.744351 +0900,
Images/Speaker1.jpg,Images/Speaker2.jpg,Images/Speaker3.jpg,Images/Speaker4.jpg,Audio/Speaker2_Per/P2-3-Per.wav,Speaker2,گوینده۲,1,24,104,22,,,,,140.61433208400013,,,,,,,,,,,,,,,,,,,,,,,,,,,,,,,,,,,,,,,,,,,,,52.727947916999256,0.0,False,52.728156499999386,714310,001,2024-07-03_12h49.26.059,5-all in one,2024.1.4,None,2024-07-03 12h49.30.744351 +0900,
Images/Speaker1.jpg,Images/Speaker2.jpg,Images/Speaker3.jpg,Images/Speaker4.jpg,Audio/Speaker3_Per/P3-14-Per.wav,Speaker3,گوینده۳,1,25,105,53,,,,,140.61433208400013,,,,,,,,,,,,,,,,,,,,,,,,,,,,,,,,,,,,,,,,,,,,,52.74398399999882,0.0,False,52.7441997499991,714310,001,2024-07-03_12h49.26.059,5-all in one,2024.1.4,None,2024-07-03 12h49.30.744351 +0900,
Images/Speaker1.jpg,Images/Speaker2.jpg,Images/Speaker3.jpg,Images/Speaker4.jpg,Audio/Speaker3_Per/P3-17-Per.wav,Speaker3,گوینده۳,1,26,106,56,,,,,140.61433208400013,,,,,,,,,,,,,,,,,,,,,,,,,,,,,,,,,,,,,,,,,,,,,52.760333583999454,0.0,False,52.760516749998715,714310,001,2024-07-03_12h49.26.059,5-all in one,2024.1.4,None,2024-07-03 12h49.30.744351 +0900,
Images/Speaker1.jpg,Images/Speaker2.jpg,Images/Speaker3.jpg,Images/Speaker4.jpg,Audio/Speaker1_Per/P1-7-Per.wav,Speaker1,گوینده ۱,1,27,107,6,,,,,140.61433208400013,,,,,,,,,,,,,,,,,,,,,,,,,,,,,,,,,,,,,,,,,,,,,52.7761249590003,0.0,False,52.77634545900037,714310,001,2024-07-03_12h49.26.059,5-all in one,2024.1.4,None,2024-07-03 12h49.30.744351 +0900,
Images/Speaker1.jpg,Images/Speaker2.jpg,Images/Speaker3.jpg,Images/Speaker4.jpg,Audio/Speaker1_Per/P1-4-Per.wav,Speaker1,گوینده ۱,1,28,108,3,,,,,140.61433208400013,,,,,,,,,,,,,,,,,,,,,,,,,,,,,,,,,,,,,,,,,,,,,52.79201991700029,0.0,False,52.79228066699943,714310,001,2024-07-03_12h49.26.059,5-all in one,2024.1.4,None,2024-07-03 12h49.30.744351 +0900,
Images/Speaker1.jpg,Images/Speaker2.jpg,Images/Speaker3.jpg,Images/Speaker4.jpg,Audio/Speaker2_Per/P2-12-Per.wav,Speaker2,گوینده۲,1,29,109,31,,,,,140.61433208400013,,,,,,,,,,,,,,,,,,,,,,,,,,,,,,,,,,,,,,,,,,,,,52.8079270420003,0.0,False,52.80813775000024,714310,001,2024-07-03_12h49.26.059,5-all in one,2024.1.4,None,2024-07-03 12h49.30.744351 +0900,
Images/Speaker1.jpg,Images/Speaker2.jpg,Images/Speaker3.jpg,Images/Speaker4.jpg,Audio/Speaker4_Per/P4-3-Per.wav,Speaker4,گوینده۴,1,30,110,62,,,,,140.61433208400013,,,,,,,,,,,,,,,,,,,,,,,,,,,,,,,,,,,,,,,,,,,,,52.8244916249987,0.0,False,52.82466916699923,714310,001,2024-07-03_12h49.26.059,5-all in one,2024.1.4,None,2024-07-03 12h49.30.744351 +0900,
Images/Speaker1.jpg,Images/Speaker2.jpg,Images/Speaker3.jpg,Images/Speaker4.jpg,Audio/Speaker3_Per/P3-9-Per.wav,Speaker3,گوینده۳,1,31,111,48,,,,,140.61433208400013,,,,,,,,,,,,,,,,,,,,,,,,,,,,,,,,,,,,,,,,,,,,,52.84037866699873,0.0,False,52.84054337499947,714310,001,2024-07-03_12h49.26.059,5-all in one,2024.1.4,None,2024-07-03 12h49.30.744351 +0900,
Images/Speaker1.jpg,Images/Speaker2.jpg,Images/Speaker3.jpg,Images/Speaker4.jpg,Audio/Speaker1_Per/P1-9-Per.wav,Speaker1,گوینده ۱,1,32,112,8,,,,,140.61433208400013,,,,,,,,,,,,,,,,,,,,,,,,,,,,,,,,,,,,,,,,,,,,,52.856315999999424,0.0,False,52.85647904199868,714310,001,2024-07-03_12h49.26.059,5-all in one,2024.1.4,None,2024-07-03 12h49.30.744351 +0900,
Images/Speaker1.jpg,Images/Speaker2.jpg,Images/Speaker3.jpg,Images/Speaker4.jpg,Audio/Speaker2_Per/P2-2-Per.wav,Speaker2,گوینده۲,1,33,113,21,,,,,140.61433208400013,,,,,,,,,,,,,,,,,,,,,,,,,,,,,,,,,,,,,,,,,,,,,52.872138708999046,0.0,False,52.872331499998836,714310,001,2024-07-03_12h49.26.059,5-all in one,2024.1.4,None,2024-07-03 12h49.30.744351 +0900,
Images/Speaker1.jpg,Images/Speaker2.jpg,Images/Speaker3.jpg,Images/Speaker4.jpg,Audio/Speaker2_Per/P2-1-Per.wav,Speaker2,گوینده۲,1,34,114,20,,,,,140.61433208400013,,,,,,,,,,,,,,,,,,,,,,,,,,,,,,,,,,,,,,,,,,,,,52.888606167000034,0.0,False,52.88879033400008,714310,001,2024-07-03_12h49.26.059,5-all in one,2024.1.4,None,2024-07-03 12h49.30.744351 +0900,
Images/Speaker1.jpg,Images/Speaker2.jpg,Images/Speaker3.jpg,Images/Speaker4.jpg,Audio/Speaker4_Per/P4-19-Per.wav,Speaker4,گوینده۴,1,35,115,78,,,,,140.61433208400013,,,,,,,,,,,,,,,,,,,,,,,,,,,,,,,,,,,,,,,,,,,,,52.90448191699943,0.0,False,52.90468887499992,714310,001,2024-07-03_12h49.26.059,5-all in one,2024.1.4,None,2024-07-03 12h49.30.744351 +0900,
Images/Speaker1.jpg,Images/Speaker2.jpg,Images/Speaker3.jpg,Images/Speaker4.jpg,Audio/Speaker1_Per/P1-15-Per.wav,Speaker1,گوینده ۱,1,36,116,14,,,,,140.61433208400013,,,,,,,,,,,,,,,,,,,,,,,,,,,,,,,,,,,,,,,,,,,,,52.920350999998846,0.0,False,52.92053837499952,714310,001,2024-07-03_12h49.26.059,5-all in one,2024.1.4,None,2024-07-03 12h49.30.744351 +0900,
Images/Speaker1.jpg,Images/Speaker2.jpg,Images/Speaker3.jpg,Images/Speaker4.jpg,Audio/Speaker4_Per/P4-10-Per.wav,Speaker4,گوینده۴,1,37,117,69,,,,,140.61433208400013,,,,,,,,,,,,,,,,,,,,,,,,,,,,,,,,,,,,,,,,,,,,,52.936172792000434,0.0,False,52.93641749999915,714310,001,2024-07-03_12h49.26.059,5-all in one,2024.1.4,None,2024-07-03 12h49.30.744351 +0900,
Images/Speaker1.jpg,Images/Speaker2.jpg,Images/Speaker3.jpg,Images/Speaker4.jpg,Audio/Speaker2_Per/P2-7-Per.wav,Speaker2,گوینده۲,1,38,118,26,,,,,140.61433208400013,,,,,,,,,,,,,,,,,,,,,,,,,,,,,,,,,,,,,,,,,,,,,52.9527933749996,0.0,False,52.95297291699899,714310,001,2024-07-03_12h49.26.059,5-all in one,2024.1.4,None,2024-07-03 12h49.30.744351 +0900,
Images/Speaker1.jpg,Images/Speaker2.jpg,Images/Speaker3.jpg,Images/Speaker4.jpg,Audio/Speaker2_Per/P2-14-Per.wav,Speaker2,گوینده۲,1,39,119,33,,,,,140.61433208400013,,,,,,,,,,,,,,,,,,,,,,,,,,,,,,,,,,,,,,,,,,,,,52.968637916999796,0.0,False,52.96881829199992,714310,001,2024-07-03_12h49.26.059,5-all in one,2024.1.4,None,2024-07-03 12h49.30.744351 +0900,
Images/Speaker1.jpg,Images/Speaker2.jpg,Images/Speaker3.jpg,Images/Speaker4.jpg,Audio/Speaker3_Per/P3-16-Per.wav,Speaker3,گوینده۳,1,40,120,55,,,,,140.61433208400013,,,,,,,,,,,,,,,,,,,,,,,,,,,,,,,,,,,,,,,,,,,,,52.98447750000014,0.0,False,52.984650833999694,714310,001,2024-07-03_12h49.26.059,5-all in one,2024.1.4,None,2024-07-03 12h49.30.744351 +0900,
Images/Speaker1.jpg,Images/Speaker2.jpg,Images/Speaker3.jpg,Images/Speaker4.jpg,Audio/Speaker1_Per/P1-3-Per.wav,Speaker1,گوینده ۱,1,41,121,2,,,,,140.61433208400013,,,,,,,,,,,,,,,,,,,,,,,,,,,,,,,,,,,,,,,,,,,,,53.0003629999992,0.0,False,53.00053704200036,714310,001,2024-07-03_12h49.26.059,5-all in one,2024.1.4,None,2024-07-03 12h49.30.744351 +0900,
Images/Speaker1.jpg,Images/Speaker2.jpg,Images/Speaker3.jpg,Images/Speaker4.jpg,Audio/Speaker4_Per/P4-5-Per.wav,Speaker4,گوینده۴,1,42,122,64,,,,,140.61433208400013,,,,,,,,,,,,,,,,,,,,,,,,,,,,,,,,,,,,,,,,,,,,,53.01691475000007,0.0,False,53.017119083999205,714310,001,2024-07-03_12h49.26.059,5-all in one,2024.1.4,None,2024-07-03 12h49.30.744351 +0900,
Images/Speaker1.jpg,Images/Speaker2.jpg,Images/Speaker3.jpg,Images/Speaker4.jpg,Audio/Speaker1_Per/P1-5-Per.wav,Speaker1,گوینده ۱,1,43,123,4,,,,,140.61433208400013,,,,,,,,,,,,,,,,,,,,,,,,,,,,,,,,,,,,,,,,,,,,,53.032783749999,0.0,False,53.033009291999406,714310,001,2024-07-03_12h49.26.059,5-all in one,2024.1.4,None,2024-07-03 12h49.30.744351 +0900,
Images/Speaker1.jpg,Images/Speaker2.jpg,Images/Speaker3.jpg,Images/Speaker4.jpg,Audio/Speaker1_Per/P1-18-Per.wav,Speaker1,گوینده ۱,1,44,124,17,,,,,140.61433208400013,,,,,,,,,,,,,,,,,,,,,,,,,,,,,,,,,,,,,,,,,,,,,53.04872091699872,0.0,False,53.04895295899951,714310,001,2024-07-03_12h49.26.059,5-all in one,2024.1.4,None,2024-07-03 12h49.30.744351 +0900,
Images/Speaker1.jpg,Images/Speaker2.jpg,Images/Speaker3.jpg,Images/Speaker4.jpg,Audio/Speaker2_Per/P2-4-Per.wav,Speaker2,گوینده۲,1,45,125,23,,,,,140.61433208400013,,,,,,,,,,,,,,,,,,,,,,,,,,,,,,,,,,,,,,,,,,,,,53.064678541999456,0.0,False,53.064858249999816,714310,001,2024-07-03_12h49.26.059,5-all in one,2024.1.4,None,2024-07-03 12h49.30.744351 +0900,
Images/Speaker1.jpg,Images/Speaker2.jpg,Images/Speaker3.jpg,Images/Speaker4.jpg,Audio/Speaker1_Per/P1-17-Per.wav,Speaker1,گوینده ۱,1,46,126,16,,,,,140.61433208400013,,,,,,,,,,,,,,,,,,,,,,,,,,,,,,,,,,,,,,,,,,,,,53.08118487499996,0.0,False,53.081372167000154,714310,001,2024-07-03_12h49.26.059,5-all in one,2024.1.4,None,2024-07-03 12h49.30.744351 +0900,
Images/Speaker1.jpg,Images/Speaker2.jpg,Images/Speaker3.jpg,Images/Speaker4.jpg,Audio/Speaker2_Per/P2-15-Per.wav,Speaker2,گوینده۲,1,47,127,34,,,,,140.61433208400013,,,,,,,,,,,,,,,,,,,,,,,,,,,,,,,,,,,,,,,,,,,,,53.097046291999504,0.0,False,53.09722979199978,714310,001,2024-07-03_12h49.26.059,5-all in one,2024.1.4,None,2024-07-03 12h49.30.744351 +0900,
Images/Speaker1.jpg,Images/Speaker2.jpg,Images/Speaker3.jpg,Images/Speaker4.jpg,Audio/Speaker2_Per/P2-19-Per.wav,Speaker2,گوینده۲,1,48,128,38,,,,,140.61433208400013,,,,,,,,,,,,,,,,,,,,,,,,,,,,,,,,,,,,,,,,,,,,,53.112973666999096,0.0,False,53.11315641699912,714310,001,2024-07-03_12h49.26.059,5-all in one,2024.1.4,None,2024-07-03 12h49.30.744351 +0900,
Images/Speaker1.jpg,Images/Speaker2.jpg,Images/Speaker3.jpg,Images/Speaker4.jpg,Audio/Speaker4_Per/P4-6-Per.wav,Speaker4,گوینده۴,1,49,129,65,,,,,140.61433208400013,,,,,,,,,,,,,,,,,,,,,,,,,,,,,,,,,,,,,,,,,,,,,53.12891837499956,0.0,False,53.129103584000404,714310,001,2024-07-03_12h49.26.059,5-all in one,2024.1.4,None,2024-07-03 12h49.30.744351 +0900,
Images/Speaker1.jpg,Images/Speaker2.jpg,Images/Speaker3.jpg,Images/Speaker4.jpg,Audio/Speaker1_Per/P1-10-Per.wav,Speaker1,گوینده ۱,1,50,130,9,,,,,140.61433208400013,,,,,,,,,,,,,,,,,,,,,,,,,,,,,,,,,,,,,,,,,,,,,53.14538787499987,0.0,False,53.14555495899913,714310,001,2024-07-03_12h49.26.059,5-all in one,2024.1.4,None,2024-07-03 12h49.30.744351 +0900,
Images/Speaker1.jpg,Images/Speaker2.jpg,Images/Speaker3.jpg,Images/Speaker4.jpg,Audio/Speaker3_Per/P3-4-Per.wav,Speaker3,گوینده۳,1,51,131,43,,,,,140.61433208400013,,,,,,,,,,,,,,,,,,,,,,,,,,,,,,,,,,,,,,,,,,,,,53.161457291998886,0.0,False,53.16168079199997,714310,001,2024-07-03_12h49.26.059,5-all in one,2024.1.4,None,2024-07-03 12h49.30.744351 +0900,
Images/Speaker1.jpg,Images/Speaker2.jpg,Images/Speaker3.jpg,Images/Speaker4.jpg,Audio/Speaker1_Per/P1-12-Per.wav,Speaker1,گوینده ۱,1,52,132,11,,,,,140.61433208400013,,,,,,,,,,,,,,,,,,,,,,,,,,,,,,,,,,,,,,,,,,,,,53.17718158400021,0.0,False,53.17735462499877,714310,001,2024-07-03_12h49.26.059,5-all in one,2024.1.4,None,2024-07-03 12h49.30.744351 +0900,
Images/Speaker1.jpg,Images/Speaker2.jpg,Images/Speaker3.jpg,Images/Speaker4.jpg,Audio/Speaker3_Per/P3-18-Per.wav,Speaker3,گوینده۳,1,53,133,57,,,,,140.61433208400013,,,,,,,,,,,,,,,,,,,,,,,,,,,,,,,,,,,,,,,,,,,,,53.193097874998784,0.0,False,53.19326312500016,714310,001,2024-07-03_12h49.26.059,5-all in one,2024.1.4,None,2024-07-03 12h49.30.744351 +0900,
Images/Speaker1.jpg,Images/Speaker2.jpg,Images/Speaker3.jpg,Images/Speaker4.jpg,Audio/Speaker4_Per/P4-18-Per.wav,Speaker4,گوینده۴,1,54,134,77,,,,,140.61433208400013,,,,,,,,,,,,,,,,,,,,,,,,,,,,,,,,,,,,,,,,,,,,,53.209649291999085,0.0,False,53.20984191699972,714310,001,2024-07-03_12h49.26.059,5-all in one,2024.1.4,None,2024-07-03 12h49.30.744351 +0900,
Images/Speaker1.jpg,Images/Speaker2.jpg,Images/Speaker3.jpg,Images/Speaker4.jpg,Audio/Speaker3_Per/P3-5-Per.wav,Speaker3,گوینده۳,1,55,135,44,,,,,140.61433208400013,,,,,,,,,,,,,,,,,,,,,,,,,,,,,,,,,,,,,,,,,,,,,53.22547366700019,0.0,False,53.22570325000015,714310,001,2024-07-03_12h49.26.059,5-all in one,2024.1.4,None,2024-07-03 12h49.30.744351 +0900,
Images/Speaker1.jpg,Images/Speaker2.jpg,Images/Speaker3.jpg,Images/Speaker4.jpg,Audio/Speaker4_Per/P4-13-Per.wav,Speaker4,گوینده۴,1,56,136,72,,,,,140.61433208400013,,,,,,,,,,,,,,,,,,,,,,,,,,,,,,,,,,,,,,,,,,,,,53.24124566699902,0.0,False,53.24141129199961,714310,001,2024-07-03_12h49.26.059,5-all in one,2024.1.4,None,2024-07-03 12h49.30.744351 +0900,
Images/Speaker1.jpg,Images/Speaker2.jpg,Images/Speaker3.jpg,Images/Speaker4.jpg,Audio/Speaker4_Per/P4-7-Per.wav,Speaker4,گوینده۴,1,57,137,66,,,,,140.61433208400013,,,,,,,,,,,,,,,,,,,,,,,,,,,,,,,,,,,,,,,,,,,,,53.25700516699908,0.0,False,53.25717058400005,714310,001,2024-07-03_12h49.26.059,5-all in one,2024.1.4,None,2024-07-03 12h49.30.744351 +0900,
Images/Speaker1.jpg,Images/Speaker2.jpg,Images/Speaker3.jpg,Images/Speaker4.jpg,Audio/Speaker2_Per/P2-5-Per.wav,Speaker2,گوینده۲,1,58,138,24,,,,,140.61433208400013,,,,,,,,,,,,,,,,,,,,,,,,,,,,,,,,,,,,,,,,,,,,,53.2735669169997,0.0,False,53.273752249999234,714310,001,2024-07-03_12h49.26.059,5-all in one,2024.1.4,None,2024-07-03 12h49.30.744351 +0900,
Images/Speaker1.jpg,Images/Speaker2.jpg,Images/Speaker3.jpg,Images/Speaker4.jpg,Audio/Speaker4_Per/P4-11-Per.wav,Speaker4,گوینده۴,1,59,139,70,,,,,140.61433208400013,,,,,,,,,,,,,,,,,,,,,,,,,,,,,,,,,,,,,,,,,,,,,53.289535083999,0.0,False,53.289715375000014,714310,001,2024-07-03_12h49.26.059,5-all in one,2024.1.4,None,2024-07-03 12h49.30.744351 +0900,
Images/Speaker1.jpg,Images/Speaker2.jpg,Images/Speaker3.jpg,Images/Speaker4.jpg,Audio/Speaker1_Per/P1-13-Per.wav,Speaker1,گوینده ۱,1,60,140,12,,,,,140.61433208400013,,,,,,,,,,,,,,,,,,,,,,,,,,,,,,,,,,,,,,,,,,,,,53.30540083399865,0.0,False,53.305557749999934,714310,001,2024-07-03_12h49.26.059,5-all in one,2024.1.4,None,2024-07-03 12h49.30.744351 +0900,
Images/Speaker1.jpg,Images/Speaker2.jpg,Images/Speaker3.jpg,Images/Speaker4.jpg,Audio/Speaker3_Per/P3-8-Per.wav,Speaker3,گوینده۳,1,61,141,47,,,,,140.61433208400013,,,,,,,,,,,,,,,,,,,,,,,,,,,,,,,,,,,,,,,,,,,,,53.32161574999918,0.0,False,53.32181241699982,714310,001,2024-07-03_12h49.26.059,5-all in one,2024.1.4,None,2024-07-03 12h49.30.744351 +0900,
Images/Speaker1.jpg,Images/Speaker2.jpg,Images/Speaker3.jpg,Images/Speaker4.jpg,Audio/Speaker4_Per/P4-8-Per.wav,Speaker4,گوینده۴,1,62,142,67,,,,,140.61433208400013,,,,,,,,,,,,,,,,,,,,,,,,,,,,,,,,,,,,,,,,,,,,,53.33813999999984,0.0,False,53.33835029199872,714310,001,2024-07-03_12h49.26.059,5-all in one,2024.1.4,None,2024-07-03 12h49.30.744351 +0900,
Images/Speaker1.jpg,Images/Speaker2.jpg,Images/Speaker3.jpg,Images/Speaker4.jpg,Audio/Speaker4_Per/P4-12-Per.wav,Speaker4,گوینده۴,1,63,143,71,,,,,140.61433208400013,,,,,,,,,,,,,,,,,,,,,,,,,,,,,,,,,,,,,,,,,,,,,53.35394137500043,0.0,False,53.354145084000265,714310,001,2024-07-03_12h49.26.059,5-all in one,2024.1.4,None,2024-07-03 12h49.30.744351 +0900,
Images/Speaker1.jpg,Images/Speaker2.jpg,Images/Speaker3.jpg,Images/Speaker4.jpg,Audio/Speaker1_Per/P1-1-Per.wav,Speaker1,گوینده ۱,1,64,144,0,,,,,140.61433208400013,,,,,,,,,,,,,,,,,,,,,,,,,,,,,,,,,,,,,,,,,,,,,53.369726708999224,0.0,False,53.36991699999999,714310,001,2024-07-03_12h49.26.059,5-all in one,2024.1.4,None,2024-07-03 12h49.30.744351 +0900,
Images/Speaker1.jpg,Images/Speaker2.jpg,Images/Speaker3.jpg,Images/Speaker4.jpg,Audio/Speaker4_Per/P4-15-Per.wav,Speaker4,گوینده۴,1,65,145,74,,,,,140.61433208400013,,,,,,,,,,,,,,,,,,,,,,,,,,,,,,,,,,,,,,,,,,,,,53.38548895900021,0.0,False,53.38568170899998,714310,001,2024-07-03_12h49.26.059,5-all in one,2024.1.4,None,2024-07-03 12h49.30.744351 +0900,
Images/Speaker1.jpg,Images/Speaker2.jpg,Images/Speaker3.jpg,Images/Speaker4.jpg,Audio/Speaker4_Per/P4-2-Per.wav,Speaker4,گوینده۴,1,66,146,61,,,,,140.61433208400013,,,,,,,,,,,,,,,,,,,,,,,,,,,,,,,,,,,,,,,,,,,,,53.40193933400042,0.0,False,53.40213120899898,714310,001,2024-07-03_12h49.26.059,5-all in one,2024.1.4,None,2024-07-03 12h49.30.744351 +0900,
Images/Speaker1.jpg,Images/Speaker2.jpg,Images/Speaker3.jpg,Images/Speaker4.jpg,Audio/Speaker3_Per/P3-11-Per.wav,Speaker3,گوینده۳,1,67,147,50,,,,,140.61433208400013,,,,,,,,,,,,,,,,,,,,,,,,,,,,,,,,,,,,,,,,,,,,,53.41779958400002,0.0,False,53.41799158399954,714310,001,2024-07-03_12h49.26.059,5-all in one,2024.1.4,None,2024-07-03 12h49.30.744351 +0900,
Images/Speaker1.jpg,Images/Speaker2.jpg,Images/Speaker3.jpg,Images/Speaker4.jpg,Audio/Speaker1_Per/P1-16-Per.wav,Speaker1,گوینده ۱,1,68,148,15,,,,,140.61433208400013,,,,,,,,,,,,,,,,,,,,,,,,,,,,,,,,,,,,,,,,,,,,,53.43374708400006,0.0,False,53.43394054199962,714310,001,2024-07-03_12h49.26.059,5-all in one,2024.1.4,None,2024-07-03 12h49.30.744351 +0900,
Images/Speaker1.jpg,Images/Speaker2.jpg,Images/Speaker3.jpg,Images/Speaker4.jpg,Audio/Speaker1_Per/P1-4-Per.wav,Speaker1,گوینده ۱,1,69,149,13,,,,,140.61433208400013,,,,,,,,,,,,,,,,,,,,,,,,,,,,,,,,,,,,,,,,,,,,,53.449619499999244,0.0,False,53.44986549999885,714310,001,2024-07-03_12h49.26.059,5-all in one,2024.1.4,None,2024-07-03 12h49.30.744351 +0900,
Images/Speaker1.jpg,Images/Speaker2.jpg,Images/Speaker3.jpg,Images/Speaker4.jpg,Audio/Speaker2_Per/P2-11-Per.wav,Speaker2,گوینده۲,1,70,150,30,,,,,140.61433208400013,,,,,,,,,,,,,,,,,,,,,,,,,,,,,,,,,,,,,,,,,,,,,53.46612008400007,0.0,False,53.46631049999996,714310,001,2024-07-03_12h49.26.059,5-all in one,2024.1.4,None,2024-07-03 12h49.30.744351 +0900,
Images/Speaker1.jpg,Images/Speaker2.jpg,Images/Speaker3.jpg,Images/Speaker4.jpg,Audio/Speaker2_Per/P2-17-Per.wav,Speaker2,گوینده۲,1,71,151,36,,,,,140.61433208400013,,,,,,,,,,,,,,,,,,,,,,,,,,,,,,,,,,,,,,,,,,,,,53.481931667000026,0.0,False,53.482162624999546,714310,001,2024-07-03_12h49.26.059,5-all in one,2024.1.4,None,2024-07-03 12h49.30.744351 +0900,
Images/Speaker1.jpg,Images/Speaker2.jpg,Images/Speaker3.jpg,Images/Speaker4.jpg,Audio/Speaker3_Per/P3-15-Per.wav,Speaker3,گوینده۳,1,72,152,54,,,,,140.61433208400013,,,,,,,,,,,,,,,,,,,,,,,,,,,,,,,,,,,,,,,,,,,,,53.49789829200017,0.0,False,53.4980814999999,714310,001,2024-07-03_12h49.26.059,5-all in one,2024.1.4,None,2024-07-03 12h49.30.744351 +0900,
Images/Speaker1.jpg,Images/Speaker2.jpg,Images/Speaker3.jpg,Images/Speaker4.jpg,Audio/Speaker1_Per/P1-11-Per.wav,Speaker1,گوینده ۱,1,73,153,10,,,,,140.61433208400013,,,,,,,,,,,,,,,,,,,,,,,,,,,,,,,,,,,,,,,,,,,,,53.51382312500027,0.0,False,53.514057833999686,714310,001,2024-07-03_12h49.26.059,5-all in one,2024.1.4,None,2024-07-03 12h49.30.744351 +0900,
Images/Speaker1.jpg,Images/Speaker2.jpg,Images/Speaker3.jpg,Images/Speaker4.jpg,Audio/Speaker3_Per/P3-19-Per.wav,Speaker3,گوینده۳,1,74,154,58,,,,,140.61433208400013,,,,,,,,,,,,,,,,,,,,,,,,,,,,,,,,,,,,,,,,,,,,,53.530252917000325,0.0,False,53.53045895899959,714310,001,2024-07-03_12h49.26.059,5-all in one,2024.1.4,None,2024-07-03 12h49.30.744351 +0900,
Images/Speaker1.jpg,Images/Speaker2.jpg,Images/Speaker3.jpg,Images/Speaker4.jpg,Audio/Speaker1_Per/P1-6-Per.wav,Speaker1,گوینده ۱,1,75,155,5,,,,,140.61433208400013,,,,,,,,,,,,,,,,,,,,,,,,,,,,,,,,,,,,,,,,,,,,,53.546216208998885,0.0,False,53.54638341699865,714310,001,2024-07-03_12h49.26.059,5-all in one,2024.1.4,None,2024-07-03 12h49.30.744351 +0900,
Images/Speaker1.jpg,Images/Speaker2.jpg,Images/Speaker3.jpg,Images/Speaker4.jpg,Audio/Speaker2_Per/P2-9-Per.wav,Speaker2,گوینده۲,1,76,156,28,,,,,140.61433208400013,,,,,,,,,,,,,,,,,,,,,,,,,,,,,,,,,,,,,,,,,,,,,53.562047958999756,0.0,False,53.56223200000022,714310,001,2024-07-03_12h49.26.059,5-all in one,2024.1.4,None,2024-07-03 12h49.30.744351 +0900,
Images/Speaker1.jpg,Images/Speaker2.jpg,Images/Speaker3.jpg,Images/Speaker4.jpg,Audio/Speaker3_Per/P3-2-Per.wav,Speaker3,گوینده۳,1,77,157,41,,,,,140.61433208400013,,,,,,,,,,,,,,,,,,,,,,,,,,,,,,,,,,,,,,,,,,,,,53.577827541999795,0.0,False,53.57800258399948,714310,001,2024-07-03_12h49.26.059,5-all in one,2024.1.4,None,2024-07-03 12h49.30.744351 +0900,
Images/Speaker1.jpg,Images/Speaker2.jpg,Images/Speaker3.jpg,Images/Speaker4.jpg,Audio/Speaker2_Per/P2-18-Per.wav,Speaker2,گوینده۲,1,78,158,37,,,,,140.61433208400013,,,,,,,,,,,,,,,,,,,,,,,,,,,,,,,,,,,,,,,,,,,,,53.59437745899959,0.0,False,53.59455008399891,714310,001,2024-07-03_12h49.26.059,5-all in one,2024.1.4,None,2024-07-03 12h49.30.744351 +0900,
Images/Speaker1.jpg,Images/Speaker2.jpg,Images/Speaker3.jpg,Images/Speaker4.jpg,Audio/Speaker3_Per/P3-7-Per.wav,Speaker3,گوینده۳,1,79,159,46,,,,,140.61433208400013,,,,,,,,,,,,,,,,,,,,,,,,,,,,,,,,,,,,,,,,,,,,,53.610204917000374,0.0,False,53.61037620899879,714310,001,2024-07-03_12h49.26.059,5-all in one,2024.1.4,None,2024-07-03 12h49.30.744351 +0900,
Images/Speaker1.jpg,Images/Speaker2.jpg,Images/Speaker3.jpg,Images/Speaker4.jpg,Audio/Speaker2_Per/P2-5-Per.wav,Speaker2,گوینده۲,2,0,160,24,,,,,140.61433208400013,,,,,,,,,,,,,,,,,,,,,,,,,,,,,,,,,,,,,,,,,,,,,53.62610541699905,0.0,False,53.626293249999435,714310,001,2024-07-03_12h49.26.059,5-all in one,2024.1.4,None,2024-07-03 12h49.30.744351 +0900,
Images/Speaker1.jpg,Images/Speaker2.jpg,Images/Speaker3.jpg,Images/Speaker4.jpg,Audio/Speaker2_Per/P2-15-Per.wav,Speaker2,گوینده۲,2,1,161,34,,,,,140.61433208400013,,,,,,,,,,,,,,,,,,,,,,,,,,,,,,,,,,,,,,,,,,,,,53.64202687499892,0.0,False,53.64221162499962,714310,001,2024-07-03_12h49.26.059,5-all in one,2024.1.4,None,2024-07-03 12h49.30.744351 +0900,
Images/Speaker1.jpg,Images/Speaker2.jpg,Images/Speaker3.jpg,Images/Speaker4.jpg,Audio/Speaker4_Per/P4-12-Per.wav,Speaker4,گوینده۴,2,2,162,71,,,,,140.61433208400013,,,,,,,,,,,,,,,,,,,,,,,,,,,,,,,,,,,,,,,,,,,,,53.658536124999955,0.0,False,53.65873712499888,714310,001,2024-07-03_12h49.26.059,5-all in one,2024.1.4,None,2024-07-03 12h49.30.744351 +0900,
Images/Speaker1.jpg,Images/Speaker2.jpg,Images/Speaker3.jpg,Images/Speaker4.jpg,Audio/Speaker1_Per/P1-13-Per.wav,Speaker1,گوینده ۱,2,3,163,12,,,,,140.61433208400013,,,,,,,,,,,,,,,,,,,,,,,,,,,,,,,,,,,,,,,,,,,,,53.6744475839987,0.0,False,53.67462629199872,714310,001,2024-07-03_12h49.26.059,5-all in one,2024.1.4,None,2024-07-03 12h49.30.744351 +0900,
Images/Speaker1.jpg,Images/Speaker2.jpg,Images/Speaker3.jpg,Images/Speaker4.jpg,Audio/Speaker4_Per/P4-20-Per.wav,Speaker4,گوینده۴,2,4,164,79,,,,,140.61433208400013,,,,,,,,,,,,,,,,,,,,,,,,,,,,,,,,,,,,,,,,,,,,,53.69023075000041,0.0,False,53.69046045899995,714310,001,2024-07-03_12h49.26.059,5-all in one,2024.1.4,None,2024-07-03 12h49.30.744351 +0900,
Images/Speaker1.jpg,Images/Speaker2.jpg,Images/Speaker3.jpg,Images/Speaker4.jpg,Audio/Speaker2_Per/P2-10-Per.wav,Speaker2,گوینده۲,2,5,165,29,,,,,140.61433208400013,,,,,,,,,,,,,,,,,,,,,,,,,,,,,,,,,,,,,,,,,,,,,53.706070124999314,0.0,False,53.70624254199902,714310,001,2024-07-03_12h49.26.059,5-all in one,2024.1.4,None,2024-07-03 12h49.30.744351 +0900,
Images/Speaker1.jpg,Images/Speaker2.jpg,Images/Speaker3.jpg,Images/Speaker4.jpg,Audio/Speaker3_Per/P3-18-Per.wav,Speaker3,گوینده۳,2,6,166,57,,,,,140.61433208400013,,,,,,,,,,,,,,,,,,,,,,,,,,,,,,,,,,,,,,,,,,,,,53.722421000000395,0.0,False,53.722581250000076,714310,001,2024-07-03_12h49.26.059,5-all in one,2024.1.4,None,2024-07-03 12h49.30.744351 +0900,
Images/Speaker1.jpg,Images/Speaker2.jpg,Images/Speaker3.jpg,Images/Speaker4.jpg,Audio/Speaker3_Per/P3-14-Per.wav,Speaker3,گوینده۳,2,7,167,53,,,,,140.61433208400013,,,,,,,,,,,,,,,,,,,,,,,,,,,,,,,,,,,,,,,,,,,,,53.7382129589987,0.0,False,53.73844220899991,714310,001,2024-07-03_12h49.26.059,5-all in one,2024.1.4,None,2024-07-03 12h49.30.744351 +0900,
Images/Speaker1.jpg,Images/Speaker2.jpg,Images/Speaker3.jpg,Images/Speaker4.jpg,Audio/Speaker1_Per/P1-12-Per.wav,Speaker1,گوینده ۱,2,8,168,11,,,,,140.61433208400013,,,,,,,,,,,,,,,,,,,,,,,,,,,,,,,,,,,,,,,,,,,,,53.75424691700027,0.0,False,53.75441933399998,714310,001,2024-07-03_12h49.26.059,5-all in one,2024.1.4,None,2024-07-03 12h49.30.744351 +0900,
Images/Speaker1.jpg,Images/Speaker2.jpg,Images/Speaker3.jpg,Images/Speaker4.jpg,Audio/Speaker1_Per/P1-1-Per.wav,Speaker1,گوینده ۱,2,9,169,0,,,,,140.61433208400013,,,,,,,,,,,,,,,,,,,,,,,,,,,,,,,,,,,,,,,,,,,,,53.770099041999856,0.0,False,53.77030095899863,714310,001,2024-07-03_12h49.26.059,5-all in one,2024.1.4,None,2024-07-03 12h49.30.744351 +0900,
Images/Speaker1.jpg,Images/Speaker2.jpg,Images/Speaker3.jpg,Images/Speaker4.jpg,Audio/Speaker4_Per/P4-1-Per.wav,Speaker4,گوینده۴,2,10,170,60,,,,,140.61433208400013,,,,,,,,,,,,,,,,,,,,,,,,,,,,,,,,,,,,,,,,,,,,,53.786582499998985,0.0,False,53.78677349999998,714310,001,2024-07-03_12h49.26.059,5-all in one,2024.1.4,None,2024-07-03 12h49.30.744351 +0900,
Images/Speaker1.jpg,Images/Speaker2.jpg,Images/Speaker3.jpg,Images/Speaker4.jpg,Audio/Speaker1_Per/P1-19-Per.wav,Speaker1,گوینده ۱,2,11,171,18,,,,,140.61433208400013,,,,,,,,,,,,,,,,,,,,,,,,,,,,,,,,,,,,,,,,,,,,,53.802434291999816,0.0,False,53.8026162089991,714310,001,2024-07-03_12h49.26.059,5-all in one,2024.1.4,None,2024-07-03 12h49.30.744351 +0900,
Images/Speaker1.jpg,Images/Speaker2.jpg,Images/Speaker3.jpg,Images/Speaker4.jpg,Audio/Speaker2_Per/P2-9-Per.wav,Speaker2,گوینده۲,2,12,172,28,,,,,140.61433208400013,,,,,,,,,,,,,,,,,,,,,,,,,,,,,,,,,,,,,,,,,,,,,53.818331667000166,0.0,False,53.81851683399873,714310,001,2024-07-03_12h49.26.059,5-all in one,2024.1.4,None,2024-07-03 12h49.30.744351 +0900,
Images/Speaker1.jpg,Images/Speaker2.jpg,Images/Speaker3.jpg,Images/Speaker4.jpg,Audio/Speaker1_Per/P1-16-Per.wav,Speaker1,گوینده ۱,2,13,173,15,,,,,140.61433208400013,,,,,,,,,,,,,,,,,,,,,,,,,,,,,,,,,,,,,,,,,,,,,53.834254374998636,0.0,False,53.8344454170001,714310,001,2024-07-03_12h49.26.059,5-all in one,2024.1.4,None,2024-07-03 12h49.30.744351 +0900,
Images/Speaker1.jpg,Images/Speaker2.jpg,Images/Speaker3.jpg,Images/Speaker4.jpg,Audio/Speaker3_Per/P3-19-Per.wav,Speaker3,گوینده۳,2,14,174,58,,,,,140.61433208400013,,,,,,,,,,,,,,,,,,,,,,,,,,,,,,,,,,,,,,,,,,,,,53.85077470899887,0.0,False,53.85098512500008,714310,001,2024-07-03_12h49.26.059,5-all in one,2024.1.4,None,2024-07-03 12h49.30.744351 +0900,
Images/Speaker1.jpg,Images/Speaker2.jpg,Images/Speaker3.jpg,Images/Speaker4.jpg,Audio/Speaker1_Per/P1-17-Per.wav,Speaker1,گوینده ۱,2,15,175,16,,,,,140.61433208400013,,,,,,,,,,,,,,,,,,,,,,,,,,,,,,,,,,,,,,,,,,,,,53.86667495899928,0.0,False,53.866844541998944,714310,001,2024-07-03_12h49.26.059,5-all in one,2024.1.4,None,2024-07-03 12h49.30.744351 +0900,
Images/Speaker1.jpg,Images/Speaker2.jpg,Images/Speaker3.jpg,Images/Speaker4.jpg,Audio/Speaker4_Per/P4-14-Per.wav,Speaker4,گوینده۴,2,16,176,73,,,,,140.61433208400013,,,,,,,,,,,,,,,,,,,,,,,,,,,,,,,,,,,,,,,,,,,,,53.882544124999185,0.0,False,53.88271595900005,714310,001,2024-07-03_12h49.26.059,5-all in one,2024.1.4,None,2024-07-03 12h49.30.744351 +0900,
Images/Speaker1.jpg,Images/Speaker2.jpg,Images/Speaker3.jpg,Images/Speaker4.jpg,Audio/Speaker1_Per/P1-8-Per.wav,Speaker1,گوینده ۱,2,17,177,7,,,,,140.61433208400013,,,,,,,,,,,,,,,,,,,,,,,,,,,,,,,,,,,,,,,,,,,,,53.89834791700014,0.0,False,53.898525541999334,714310,001,2024-07-03_12h49.26.059,5-all in one,2024.1.4,None,2024-07-03 12h49.30.744351 +0900,
Images/Speaker1.jpg,Images/Speaker2.jpg,Images/Speaker3.jpg,Images/Speaker4.jpg,Audio/Speaker3_Per/P3-15-Per.wav,Speaker3,گوینده۳,2,18,178,54,,,,,140.61433208400013,,,,,,,,,,,,,,,,,,,,,,,,,,,,,,,,,,,,,,,,,,,,,53.91486149999946,0.0,False,53.91503495899997,714310,001,2024-07-03_12h49.26.059,5-all in one,2024.1.4,None,2024-07-03 12h49.30.744351 +0900,
Images/Speaker1.jpg,Images/Speaker2.jpg,Images/Speaker3.jpg,Images/Speaker4.jpg,Audio/Speaker3_Per/P3-20-Per.wav,Speaker3,گوینده۳,2,19,179,59,,,,,140.61433208400013,,,,,,,,,,,,,,,,,,,,,,,,,,,,,,,,,,,,,,,,,,,,,53.93063983399952,0.0,False,53.930806209000366,714310,001,2024-07-03_12h49.26.059,5-all in one,2024.1.4,None,2024-07-03 12h49.30.744351 +0900,
Images/Speaker1.jpg,Images/Speaker2.jpg,Images/Speaker3.jpg,Images/Speaker4.jpg,Audio/Speaker3_Per/P3-13-Per.wav,Speaker3,گوینده۳,2,20,180,52,,,,,140.61433208400013,,,,,,,,,,,,,,,,,,,,,,,,,,,,,,,,,,,,,,,,,,,,,53.94648849999976,0.0,False,53.94668054199974,714310,001,2024-07-03_12h49.26.059,5-all in one,2024.1.4,None,2024-07-03 12h49.30.744351 +0900,
Images/Speaker1.jpg,Images/Speaker2.jpg,Images/Speaker3.jpg,Images/Speaker4.jpg,Audio/Speaker3_Per/P3-10-Per.wav,Speaker3,گوینده۳,2,21,181,49,,,,,140.61433208400013,,,,,,,,,,,,,,,,,,,,,,,,,,,,,,,,,,,,,,,,,,,,,53.96246008399976,0.0,False,53.96263816699866,714310,001,2024-07-03_12h49.26.059,5-all in one,2024.1.4,None,2024-07-03 12h49.30.744351 +0900,
Images/Speaker1.jpg,Images/Speaker2.jpg,Images/Speaker3.jpg,Images/Speaker4.jpg,Audio/Speaker2_Per/P2-18-Per.wav,Speaker2,گوینده۲,2,22,182,37,,,,,140.61433208400013,,,,,,,,,,,,,,,,,,,,,,,,,,,,,,,,,,,,,,,,,,,,,53.97909791699931,0.0,False,53.979278083999816,714310,001,2024-07-03_12h49.26.059,5-all in one,2024.1.4,None,2024-07-03 12h49.30.744351 +0900,
Images/Speaker1.jpg,Images/Speaker2.jpg,Images/Speaker3.jpg,Images/Speaker4.jpg,Audio/Speaker4_Per/P4-11-Per.wav,Speaker4,گوینده۴,2,23,183,70,,,,,140.61433208400013,,,,,,,,,,,,,,,,,,,,,,,,,,,,,,,,,,,,,,,,,,,,,53.994696333998945,0.0,False,53.99489349999931,714310,001,2024-07-03_12h49.26.059,5-all in one,2024.1.4,None,2024-07-03 12h49.30.744351 +0900,
Images/Speaker1.jpg,Images/Speaker2.jpg,Images/Speaker3.jpg,Images/Speaker4.jpg,Audio/Speaker4_Per/P4-3-Per.wav,Speaker4,گوینده۴,2,24,184,62,,,,,140.61433208400013,,,,,,,,,,,,,,,,,,,,,,,,,,,,,,,,,,,,,,,,,,,,,54.01050462499916,0.0,False,54.01069074999941,714310,001,2024-07-03_12h49.26.059,5-all in one,2024.1.4,None,2024-07-03 12h49.30.744351 +0900,
Images/Speaker1.jpg,Images/Speaker2.jpg,Images/Speaker3.jpg,Images/Speaker4.jpg,Audio/Speaker4_Per/P4-10-Per.wav,Speaker4,گوینده۴,2,25,185,69,,,,,140.61433208400013,,,,,,,,,,,,,,,,,,,,,,,,,,,,,,,,,,,,,,,,,,,,,54.02636283399988,0.0,False,54.026597541998854,714310,001,2024-07-03_12h49.26.059,5-all in one,2024.1.4,None,2024-07-03 12h49.30.744351 +0900,
Images/Speaker1.jpg,Images/Speaker2.jpg,Images/Speaker3.jpg,Images/Speaker4.jpg,Audio/Speaker2_Per/P2-3-Per.wav,Speaker2,گوینده۲,2,26,186,22,,,,,140.61433208400013,,,,,,,,,,,,,,,,,,,,,,,,,,,,,,,,,,,,,,,,,,,,,54.04287441700035,0.0,False,54.04304470900024,714310,001,2024-07-03_12h49.26.059,5-all in one,2024.1.4,None,2024-07-03 12h49.30.744351 +0900,
Images/Speaker1.jpg,Images/Speaker2.jpg,Images/Speaker3.jpg,Images/Speaker4.jpg,Audio/Speaker4_Per/P4-4-Per.wav,Speaker4,گوینده۴,2,27,187,63,,,,,140.61433208400013,,,,,,,,,,,,,,,,,,,,,,,,,,,,,,,,,,,,,,,,,,,,,54.05870020899965,0.0,False,54.05892683399907,714310,001,2024-07-03_12h49.26.059,5-all in one,2024.1.4,None,2024-07-03 12h49.30.744351 +0900,
Images/Speaker1.jpg,Images/Speaker2.jpg,Images/Speaker3.jpg,Images/Speaker4.jpg,Audio/Speaker1_Per/P1-7-Per.wav,Speaker1,گوینده ۱,2,28,188,6,,,,,140.61433208400013,,,,,,,,,,,,,,,,,,,,,,,,,,,,,,,,,,,,,,,,,,,,,54.07449658400037,0.0,False,54.07467095900029,714310,001,2024-07-03_12h49.26.059,5-all in one,2024.1.4,None,2024-07-03 12h49.30.744351 +0900,
Images/Speaker1.jpg,Images/Speaker2.jpg,Images/Speaker3.jpg,Images/Speaker4.jpg,Audio/Speaker1_Per/P1-5-Per.wav,Speaker1,گوینده ۱,2,29,189,4,,,,,140.61433208400013,,,,,,,,,,,,,,,,,,,,,,,,,,,,,,,,,,,,,,,,,,,,,54.09044716700009,0.0,False,54.09061879199908,714310,001,2024-07-03_12h49.26.059,5-all in one,2024.1.4,None,2024-07-03 12h49.30.744351 +0900,
Images/Speaker1.jpg,Images/Speaker2.jpg,Images/Speaker3.jpg,Images/Speaker4.jpg,Audio/Speaker3_Per/P3-16-Per.wav,Speaker3,گوینده۳,2,30,190,55,,,,,140.61433208400013,,,,,,,,,,,,,,,,,,,,,,,,,,,,,,,,,,,,,,,,,,,,,54.10704170899953,0.0,False,54.10722616699968,714310,001,2024-07-03_12h49.26.059,5-all in one,2024.1.4,None,2024-07-03 12h49.30.744351 +0900,
Images/Speaker1.jpg,Images/Speaker2.jpg,Images/Speaker3.jpg,Images/Speaker4.jpg,Audio/Speaker4_Per/P4-19-Per.wav,Speaker4,گوینده۴,2,31,191,78,,,,,140.61433208400013,,,,,,,,,,,,,,,,,,,,,,,,,,,,,,,,,,,,,,,,,,,,,54.12288591699871,0.0,False,54.123096041999815,714310,001,2024-07-03_12h49.26.059,5-all in one,2024.1.4,None,2024-07-03 12h49.30.744351 +0900,
Images/Speaker1.jpg,Images/Speaker2.jpg,Images/Speaker3.jpg,Images/Speaker4.jpg,Audio/Speaker2_Per/P2-4-Per.wav,Speaker2,گوینده۲,2,32,192,23,,,,,140.61433208400013,,,,,,,,,,,,,,,,,,,,,,,,,,,,,,,,,,,,,,,,,,,,,54.138757291999354,0.0,False,54.1389309999995,714310,001,2024-07-03_12h49.26.059,5-all in one,2024.1.4,None,2024-07-03 12h49.30.744351 +0900,
Images/Speaker1.jpg,Images/Speaker2.jpg,Images/Speaker3.jpg,Images/Speaker4.jpg,Audio/Speaker3_Per/P3-3-Per.wav,Speaker3,گوینده۳,2,33,193,42,,,,,140.61433208400013,,,,,,,,,,,,,,,,,,,,,,,,,,,,,,,,,,,,,,,,,,,,,54.15468441699886,0.0,False,54.154846292,714310,001,2024-07-03_12h49.26.059,5-all in one,2024.1.4,None,2024-07-03 12h49.30.744351 +0900,
Images/Speaker1.jpg,Images/Speaker2.jpg,Images/Speaker3.jpg,Images/Speaker4.jpg,Audio/Speaker4_Per/P4-13-Per.wav,Speaker4,گوینده۴,2,34,194,72,,,,,140.61433208400013,,,,,,,,,,,,,,,,,,,,,,,,,,,,,,,,,,,,,,,,,,,,,54.17111974999898,0.0,False,54.171303249999255,714310,001,2024-07-03_12h49.26.059,5-all in one,2024.1.4,None,2024-07-03 12h49.30.744351 +0900,
Images/Speaker1.jpg,Images/Speaker2.jpg,Images/Speaker3.jpg,Images/Speaker4.jpg,Audio/Speaker2_Per/P2-1-Per.wav,Speaker2,گوینده۲,2,35,195,20,,,,,140.61433208400013,,,,,,,,,,,,,,,,,,,,,,,,,,,,,,,,,,,,,,,,,,,,,54.18705520900039,0.0,False,54.18723933399997,714310,001,2024-07-03_12h49.26.059,5-all in one,2024.1.4,None,2024-07-03 12h49.30.744351 +0900,
Images/Speaker1.jpg,Images/Speaker2.jpg,Images/Speaker3.jpg,Images/Speaker4.jpg,Audio/Speaker1_Per/P1-18-Per.wav,Speaker1,گوینده ۱,2,36,196,17,,,,,140.61433208400013,,,,,,,,,,,,,,,,,,,,,,,,,,,,,,,,,,,,,,,,,,,,,54.2029722089992,0.0,False,54.20313054199869,714310,001,2024-07-03_12h49.26.059,5-all in one,2024.1.4,None,2024-07-03 12h49.30.744351 +0900,
Images/Speaker1.jpg,Images/Speaker2.jpg,Images/Speaker3.jpg,Images/Speaker4.jpg,Audio/Speaker3_Per/P3-7-Per.wav,Speaker3,گوینده۳,2,37,197,46,,,,,140.61433208400013,,,,,,,,,,,,,,,,,,,,,,,,,,,,,,,,,,,,,,,,,,,,,54.21892887499962,0.0,False,54.21910929200021,714310,001,2024-07-03_12h49.26.059,5-all in one,2024.1.4,None,2024-07-03 12h49.30.744351 +0900,
Images/Speaker1.jpg,Images/Speaker2.jpg,Images/Speaker3.jpg,Images/Speaker4.jpg,Audio/Speaker1_Per/P1-3-Per.wav,Speaker1,گوینده ۱,2,38,198,2,,,,,140.61433208400013,,,,,,,,,,,,,,,,,,,,,,,,,,,,,,,,,,,,,,,,,,,,,54.23540266700002,0.0,False,54.23557420900033,714310,001,2024-07-03_12h49.26.059,5-all in one,2024.1.4,None,2024-07-03 12h49.30.744351 +0900,
Images/Speaker1.jpg,Images/Speaker2.jpg,Images/Speaker3.jpg,Images/Speaker4.jpg,Audio/Speaker4_Per/P4-7-Per.wav,Speaker4,گوینده۴,2,39,199,66,,,,,140.61433208400013,,,,,,,,,,,,,,,,,,,,,,,,,,,,,,,,,,,,,,,,,,,,,54.25129370899958,0.0,False,54.25146862499969,714310,001,2024-07-03_12h49.26.059,5-all in one,2024.1.4,None,2024-07-03 12h49.30.744351 +0900,
Images/Speaker1.jpg,Images/Speaker2.jpg,Images/Speaker3.jpg,Images/Speaker4.jpg,Audio/Speaker2_Per/P2-11-Per.wav,Speaker2,گوینده۲,2,40,200,30,,,,,140.61433208400013,,,,,,,,,,,,,,,,,,,,,,,,,,,,,,,,,,,,,,,,,,,,,54.267097208999985,0.0,False,54.26728316699882,714310,001,2024-07-03_12h49.26.059,5-all in one,2024.1.4,None,2024-07-03 12h49.30.744351 +0900,
Images/Speaker1.jpg,Images/Speaker2.jpg,Images/Speaker3.jpg,Images/Speaker4.jpg,Audio/Speaker2_Per/P2-14-Per.wav,Speaker2,گوینده۲,2,41,201,33,,,,,140.61433208400013,,,,,,,,,,,,,,,,,,,,,,,,,,,,,,,,,,,,,,,,,,,,,54.28301133399873,0.0,False,54.28318637499979,714310,001,2024-07-03_12h49.26.059,5-all in one,2024.1.4,None,2024-07-03 12h49.30.744351 +0900,
Images/Speaker1.jpg,Images/Speaker2.jpg,Images/Speaker3.jpg,Images/Speaker4.jpg,Audio/Speaker4_Per/P4-5-Per.wav,Speaker4,گوینده۴,2,42,202,64,,,,,140.61433208400013,,,,,,,,,,,,,,,,,,,,,,,,,,,,,,,,,,,,,,,,,,,,,54.29982270899927,0.0,False,54.29998720900039,714310,001,2024-07-03_12h49.26.059,5-all in one,2024.1.4,None,2024-07-03 12h49.30.744351 +0900,
Images/Speaker1.jpg,Images/Speaker2.jpg,Images/Speaker3.jpg,Images/Speaker4.jpg,Audio/Speaker1_Per/P1-4-Per.wav,Speaker1,گوینده ۱,2,43,203,13,,,,,140.61433208400013,,,,,,,,,,,,,,,,,,,,,,,,,,,,,,,,,,,,,,,,,,,,,54.31563891699989,0.0,False,54.315819499999634,714310,001,2024-07-03_12h49.26.059,5-all in one,2024.1.4,None,2024-07-03 12h49.30.744351 +0900,
Images/Speaker1.jpg,Images/Speaker2.jpg,Images/Speaker3.jpg,Images/Speaker4.jpg,Audio/Speaker1_Per/P1-20-Per.wav,Speaker1,گوینده ۱,2,44,204,19,,,,,140.61433208400013,,,,,,,,,,,,,,,,,,,,,,,,,,,,,,,,,,,,,,,,,,,,,54.33150687499983,0.0,False,54.331696916999135,714310,001,2024-07-03_12h49.26.059,5-all in one,2024.1.4,None,2024-07-03 12h49.30.744351 +0900,
Images/Speaker1.jpg,Images/Speaker2.jpg,Images/Speaker3.jpg,Images/Speaker4.jpg,Audio/Speaker2_Per/P2-8-Per.wav,Speaker2,گوینده۲,2,45,205,27,,,,,140.61433208400013,,,,,,,,,,,,,,,,,,,,,,,,,,,,,,,,,,,,,,,,,,,,,54.34735820899914,0.0,False,54.34760333399936,714310,001,2024-07-03_12h49.26.059,5-all in one,2024.1.4,None,2024-07-03 12h49.30.744351 +0900,
Images/Speaker1.jpg,Images/Speaker2.jpg,Images/Speaker3.jpg,Images/Speaker4.jpg,Audio/Speaker4_Per/P4-6-Per.wav,Speaker4,گوینده۴,2,46,206,65,,,,,140.61433208400013,,,,,,,,,,,,,,,,,,,,,,,,,,,,,,,,,,,,,,,,,,,,,54.363967833998686,0.0,False,54.36415250000027,714310,001,2024-07-03_12h49.26.059,5-all in one,2024.1.4,None,2024-07-03 12h49.30.744351 +0900,
Images/Speaker1.jpg,Images/Speaker2.jpg,Images/Speaker3.jpg,Images/Speaker4.jpg,Audio/Speaker2_Per/P2-16-Per.wav,Speaker2,گوینده۲,2,47,207,35,,,,,140.61433208400013,,,,,,,,,,,,,,,,,,,,,,,,,,,,,,,,,,,,,,,,,,,,,54.37994054199953,0.0,False,54.38012399999934,714310,001,2024-07-03_12h49.26.059,5-all in one,2024.1.4,None,2024-07-03 12h49.30.744351 +0900,
Images/Speaker1.jpg,Images/Speaker2.jpg,Images/Speaker3.jpg,Images/Speaker4.jpg,Audio/Speaker3_Per/P3-4-Per.wav,Speaker3,گوینده۳,2,48,208,43,,,,,140.61433208400013,,,,,,,,,,,,,,,,,,,,,,,,,,,,,,,,,,,,,,,,,,,,,54.39576616699924,0.0,False,54.39593716699892,714310,001,2024-07-03_12h49.26.059,5-all in one,2024.1.4,None,2024-07-03 12h49.30.744351 +0900,
Images/Speaker1.jpg,Images/Speaker2.jpg,Images/Speaker3.jpg,Images/Speaker4.jpg,Audio/Speaker4_Per/P4-2-Per.wav,Speaker4,گوینده۴,2,49,209,61,,,,,140.61433208400013,,,,,,,,,,,,,,,,,,,,,,,,,,,,,,,,,,,,,,,,,,,,,54.411700999999084,0.0,False,54.41186491699955,714310,001,2024-07-03_12h49.26.059,5-all in one,2024.1.4,None,2024-07-03 12h49.30.744351 +0900,
Images/Speaker1.jpg,Images/Speaker2.jpg,Images/Speaker3.jpg,Images/Speaker4.jpg,Audio/Speaker2_Per/P2-12-Per.wav,Speaker2,گوینده۲,2,50,210,31,,,,,140.61433208400013,,,,,,,,,,,,,,,,,,,,,,,,,,,,,,,,,,,,,,,,,,,,,54.42817479199948,0.0,False,54.42834708400005,714310,001,2024-07-03_12h49.26.059,5-all in one,2024.1.4,None,2024-07-03 12h49.30.744351 +0900,
Images/Speaker1.jpg,Images/Speaker2.jpg,Images/Speaker3.jpg,Images/Speaker4.jpg,Audio/Speaker1_Per/P1-10-Per.wav,Speaker1,گوینده ۱,2,51,211,9,,,,,140.61433208400013,,,,,,,,,,,,,,,,,,,,,,,,,,,,,,,,,,,,,,,,,,,,,54.44404512499932,0.0,False,54.444206709000355,714310,001,2024-07-03_12h49.26.059,5-all in one,2024.1.4,None,2024-07-03 12h49.30.744351 +0900,
Images/Speaker1.jpg,Images/Speaker2.jpg,Images/Speaker3.jpg,Images/Speaker4.jpg,Audio/Speaker4_Per/P4-16-Per.wav,Speaker4,گوینده۴,2,52,212,75,,,,,140.61433208400013,,,,,,,,,,,,,,,,,,,,,,,,,,,,,,,,,,,,,,,,,,,,,54.45987020899884,0.0,False,54.46009699999922,714310,001,2024-07-03_12h49.26.059,5-all in one,2024.1.4,None,2024-07-03 12h49.30.744351 +0900,
Images/Speaker1.jpg,Images/Speaker2.jpg,Images/Speaker3.jpg,Images/Speaker4.jpg,Audio/Speaker3_Per/P3-12-Per.wav,Speaker3,گوینده۳,2,53,213,51,,,,,140.61433208400013,,,,,,,,,,,,,,,,,,,,,,,,,,,,,,,,,,,,,,,,,,,,,54.475818834000165,0.0,False,54.47599291699953,714310,001,2024-07-03_12h49.26.059,5-all in one,2024.1.4,None,2024-07-03 12h49.30.744351 +0900,
Images/Speaker1.jpg,Images/Speaker2.jpg,Images/Speaker3.jpg,Images/Speaker4.jpg,Audio/Speaker3_Per/P3-2-Per.wav,Speaker3,گوینده۳,2,54,214,41,,,,,140.61433208400013,,,,,,,,,,,,,,,,,,,,,,,,,,,,,,,,,,,,,,,,,,,,,54.49225062499863,0.0,False,54.49242837499878,714310,001,2024-07-03_12h49.26.059,5-all in one,2024.1.4,None,2024-07-03 12h49.30.744351 +0900,
Images/Speaker1.jpg,Images/Speaker2.jpg,Images/Speaker3.jpg,Images/Speaker4.jpg,Audio/Speaker3_Per/P3-17-Per.wav,Speaker3,گوینده۳,2,55,215,56,,,,,140.61433208400013,,,,,,,,,,,,,,,,,,,,,,,,,,,,,,,,,,,,,,,,,,,,,54.508067583999946,0.0,False,54.5082464169991,714310,001,2024-07-03_12h49.26.059,5-all in one,2024.1.4,None,2024-07-03 12h49.30.744351 +0900,
Images/Speaker1.jpg,Images/Speaker2.jpg,Images/Speaker3.jpg,Images/Speaker4.jpg,Audio/Speaker1_Per/P1-6-Per.wav,Speaker1,گوینده ۱,2,56,216,5,,,,,140.61433208400013,,,,,,,,,,,,,,,,,,,,,,,,,,,,,,,,,,,,,,,,,,,,,54.5237563339997,0.0,False,54.52392183399934,714310,001,2024-07-03_12h49.26.059,5-all in one,2024.1.4,None,2024-07-03 12h49.30.744351 +0900,
Images/Speaker1.jpg,Images/Speaker2.jpg,Images/Speaker3.jpg,Images/Speaker4.jpg,Audio/Speaker4_Per/P4-15-Per.wav,Speaker4,گوینده۴,2,57,217,74,,,,,140.61433208400013,,,,,,,,,,,,,,,,,,,,,,,,,,,,,,,,,,,,,,,,,,,,,54.53954695900029,0.0,False,54.539704916998744,714310,001,2024-07-03_12h49.26.059,5-all in one,2024.1.4,None,2024-07-03 12h49.30.744351 +0900,
Images/Speaker1.jpg,Images/Speaker2.jpg,Images/Speaker3.jpg,Images/Speaker4.jpg,Audio/Speaker4_Per/P4-8-Per.wav,Speaker4,گوینده۴,2,58,218,67,,,,,140.61433208400013,,,,,,,,,,,,,,,,,,,,,,,,,,,,,,,,,,,,,,,,,,,,,54.55595183399964,0.0,False,54.55612858399945,714310,001,2024-07-03_12h49.26.059,5-all in one,2024.1.4,None,2024-07-03 12h49.30.744351 +0900,
Images/Speaker1.jpg,Images/Speaker2.jpg,Images/Speaker3.jpg,Images/Speaker4.jpg,Audio/Speaker2_Per/P2-19-Per.wav,Speaker2,گوینده۲,2,59,219,38,,,,,140.61433208400013,,,,,,,,,,,,,,,,,,,,,,,,,,,,,,,,,,,,,,,,,,,,,54.57191941699966,0.0,False,54.572088625000106,714310,001,2024-07-03_12h49.26.059,5-all in one,2024.1.4,None,2024-07-03 12h49.30.744351 +0900,
Images/Speaker1.jpg,Images/Speaker2.jpg,Images/Speaker3.jpg,Images/Speaker4.jpg,Audio/Speaker1_Per/P1-9-Per.wav,Speaker1,گوینده ۱,2,60,220,8,,,,,140.61433208400013,,,,,,,,,,,,,,,,,,,,,,,,,,,,,,,,,,,,,,,,,,,,,54.58766804199877,0.0,False,54.58784783400006,714310,001,2024-07-03_12h49.26.059,5-all in one,2024.1.4,None,2024-07-03 12h49.30.744351 +0900,
Images/Speaker1.jpg,Images/Speaker2.jpg,Images/Speaker3.jpg,Images/Speaker4.jpg,Audio/Speaker4_Per/P4-17-Per.wav,Speaker4,گوینده۴,2,61,221,76,,,,,140.61433208400013,,,,,,,,,,,,,,,,,,,,,,,,,,,,,,,,,,,,,,,,,,,,,54.60343770899999,0.0,False,54.60362429199995,714310,001,2024-07-03_12h49.26.059,5-all in one,2024.1.4,None,2024-07-03 12h49.30.744351 +0900,
Images/Speaker1.jpg,Images/Speaker2.jpg,Images/Speaker3.jpg,Images/Speaker4.jpg,Audio/Speaker2_Per/P2-2-Per.wav,Speaker2,گوینده۲,2,62,222,21,,,,,140.61433208400013,,,,,,,,,,,,,,,,,,,,,,,,,,,,,,,,,,,,,,,,,,,,,54.619942583998636,0.0,False,54.62012549999963,714310,001,2024-07-03_12h49.26.059,5-all in one,2024.1.4,None,2024-07-03 12h49.30.744351 +0900,
Images/Speaker1.jpg,Images/Speaker2.jpg,Images/Speaker3.jpg,Images/Speaker4.jpg,Audio/Speaker3_Per/P3-11-Per.wav,Speaker3,گوینده۳,2,63,223,50,,,,,140.61433208400013,,,,,,,,,,,,,,,,,,,,,,,,,,,,,,,,,,,,,,,,,,,,,54.63580550000006,0.0,False,54.636042666999856,714310,001,2024-07-03_12h49.26.059,5-all in one,2024.1.4,None,2024-07-03 12h49.30.744351 +0900,
Images/Speaker1.jpg,Images/Speaker2.jpg,Images/Speaker3.jpg,Images/Speaker4.jpg,Audio/Speaker1_Per/P1-2-Per.wav,Speaker1,گوینده ۱,2,64,224,1,,,,,140.61433208400013,,,,,,,,,,,,,,,,,,,,,,,,,,,,,,,,,,,,,,,,,,,,,54.65168633400026,0.0,False,54.65192220899917,714310,001,2024-07-03_12h49.26.059,5-all in one,2024.1.4,None,2024-07-03 12h49.30.744351 +0900,
Images/Speaker1.jpg,Images/Speaker2.jpg,Images/Speaker3.jpg,Images/Speaker4.jpg,Audio/Speaker1_Per/P1-11-Per.wav,Speaker1,گوینده ۱,2,65,225,10,,,,,140.61433208400013,,,,,,,,,,,,,,,,,,,,,,,,,,,,,,,,,,,,,,,,,,,,,54.66764304199933,0.0,False,54.66781041699869,714310,001,2024-07-03_12h49.26.059,5-all in one,2024.1.4,None,2024-07-03 12h49.30.744351 +0900,
Images/Speaker1.jpg,Images/Speaker2.jpg,Images/Speaker3.jpg,Images/Speaker4.jpg,Audio/Speaker1_Per/P1-15-Per.wav,Speaker1,گوینده ۱,2,66,226,14,,,,,140.61433208400013,,,,,,,,,,,,,,,,,,,,,,,,,,,,,,,,,,,,,,,,,,,,,54.68414558400036,0.0,False,54.684313333998944,714310,001,2024-07-03_12h49.26.059,5-all in one,2024.1.4,None,2024-07-03 12h49.30.744351 +0900,
Images/Speaker1.jpg,Images/Speaker2.jpg,Images/Speaker3.jpg,Images/Speaker4.jpg,Audio/Speaker2_Per/P2-6-Per.wav,Speaker2,گوینده۲,2,67,227,25,,,,,140.61433208400013,,,,,,,,,,,,,,,,,,,,,,,,,,,,,,,,,,,,,,,,,,,,,54.70005387499987,0.0,False,54.70021595899925,714310,001,2024-07-03_12h49.26.059,5-all in one,2024.1.4,None,2024-07-03 12h49.30.744351 +0900,
Images/Speaker1.jpg,Images/Speaker2.jpg,Images/Speaker3.jpg,Images/Speaker4.jpg,Audio/Speaker3_Per/P3-6-Per.wav,Speaker3,گوینده۳,2,68,228,45,,,,,140.61433208400013,,,,,,,,,,,,,,,,,,,,,,,,,,,,,,,,,,,,,,,,,,,,,54.71610083399901,0.0,False,54.7163049589999,714310,001,2024-07-03_12h49.26.059,5-all in one,2024.1.4,None,2024-07-03 12h49.30.744351 +0900,
Images/Speaker1.jpg,Images/Speaker2.jpg,Images/Speaker3.jpg,Images/Speaker4.jpg,Audio/Speaker2_Per/P2-7-Per.wav,Speaker2,گوینده۲,2,69,229,26,,,,,140.61433208400013,,,,,,,,,,,,,,,,,,,,,,,,,,,,,,,,,,,,,,,,,,,,,54.73195012500037,0.0,False,54.73214962499878,714310,001,2024-07-03_12h49.26.059,5-all in one,2024.1.4,None,2024-07-03 12h49.30.744351 +0900,
Images/Speaker1.jpg,Images/Speaker2.jpg,Images/Speaker3.jpg,Images/Speaker4.jpg,Audio/Speaker4_Per/P4-9-Per.wav,Speaker4,گوینده۴,2,70,230,68,,,,,140.61433208400013,,,,,,,,,,,,,,,,,,,,,,,,,,,,,,,,,,,,,,,,,,,,,54.748547791999954,0.0,False,54.74872745900029,714310,001,2024-07-03_12h49.26.059,5-all in one,2024.1.4,None,2024-07-03 12h49.30.744351 +0900,
Images/Speaker1.jpg,Images/Speaker2.jpg,Images/Speaker3.jpg,Images/Speaker4.jpg,Audio/Speaker2_Per/P2-13-Per.wav,Speaker2,گوینده۲,2,71,231,32,,,,,140.61433208400013,,,,,,,,,,,,,,,,,,,,,,,,,,,,,,,,,,,,,,,,,,,,,54.764346208999996,0.0,False,54.76452199999949,714310,001,2024-07-03_12h49.26.059,5-all in one,2024.1.4,None,2024-07-03 12h49.30.744351 +0900,
Images/Speaker1.jpg,Images/Speaker2.jpg,Images/Speaker3.jpg,Images/Speaker4.jpg,Audio/Speaker4_Per/P4-18-Per.wav,Speaker4,گوینده۴,2,72,232,77,,,,,140.61433208400013,,,,,,,,,,,,,,,,,,,,,,,,,,,,,,,,,,,,,,,,,,,,,54.78017858400017,0.0,False,54.78038629199909,714310,001,2024-07-03_12h49.26.059,5-all in one,2024.1.4,None,2024-07-03 12h49.30.744351 +0900,
Images/Speaker1.jpg,Images/Speaker2.jpg,Images/Speaker3.jpg,Images/Speaker4.jpg,Audio/Speaker2_Per/P2-20-Per.wav,Speaker2,گوینده۲,2,73,233,39,,,,,140.61433208400013,,,,,,,,,,,,,,,,,,,,,,,,,,,,,,,,,,,,,,,,,,,,,54.79619825000009,0.0,False,54.79637429200011,714310,001,2024-07-03_12h49.26.059,5-all in one,2024.1.4,None,2024-07-03 12h49.30.744351 +0900,
Images/Speaker1.jpg,Images/Speaker2.jpg,Images/Speaker3.jpg,Images/Speaker4.jpg,Audio/Speaker3_Per/P3-9-Per.wav,Speaker3,گوینده۳,2,74,234,48,,,,,140.61433208400013,,,,,,,,,,,,,,,,,,,,,,,,,,,,,,,,,,,,,,,,,,,,,54.81266812499962,0.0,False,54.81286308400013,714310,001,2024-07-03_12h49.26.059,5-all in one,2024.1.4,None,2024-07-03 12h49.30.744351 +0900,
Images/Speaker1.jpg,Images/Speaker2.jpg,Images/Speaker3.jpg,Images/Speaker4.jpg,Audio/Speaker3_Per/P3-1-Per.wav,Speaker3,گوینده۳,2,75,235,40,,,,,140.61433208400013,,,,,,,,,,,,,,,,,,,,,,,,,,,,,,,,,,,,,,,,,,,,,54.82868408399918,0.0,False,54.82888037500015,714310,001,2024-07-03_12h49.26.059,5-all in one,2024.1.4,None,2024-07-03 12h49.30.744351 +0900,
Images/Speaker1.jpg,Images/Speaker2.jpg,Images/Speaker3.jpg,Images/Speaker4.jpg,Audio/Speaker3_Per/P3-5-Per.wav,Speaker3,گوینده۳,2,76,236,44,,,,,140.61433208400013,,,,,,,,,,,,,,,,,,,,,,,,,,,,,,,,,,,,,,,,,,,,,54.84458320900012,0.0,False,54.84476829199957,714310,001,2024-07-03_12h49.26.059,5-all in one,2024.1.4,None,2024-07-03 12h49.30.744351 +0900,
Images/Speaker1.jpg,Images/Speaker2.jpg,Images/Speaker3.jpg,Images/Speaker4.jpg,Audio/Speaker1_Per/P1-4-Per.wav,Speaker1,گوینده ۱,2,77,237,3,,,,,140.61433208400013,,,,,,,,,,,,,,,,,,,,,,,,,,,,,,,,,,,,,,,,,,,,,54.86051241699897,0.0,False,54.86072737500035,714310,001,2024-07-03_12h49.26.059,5-all in one,2024.1.4,None,2024-07-03 12h49.30.744351 +0900,
Images/Speaker1.jpg,Images/Speaker2.jpg,Images/Speaker3.jpg,Images/Speaker4.jpg,Audio/Speaker2_Per/P2-17-Per.wav,Speaker2,گوینده۲,2,78,238,36,,,,,140.61433208400013,,,,,,,,,,,,,,,,,,,,,,,,,,,,,,,,,,,,,,,,,,,,,54.877067916999295,0.0,False,54.877307499999006,714310,001,2024-07-03_12h49.26.059,5-all in one,2024.1.4,None,2024-07-03 12h49.30.744351 +0900,
Images/Speaker1.jpg,Images/Speaker2.jpg,Images/Speaker3.jpg,Images/Speaker4.jpg,Audio/Speaker3_Per/P3-8-Per.wav,Speaker3,گوینده۳,2,79,239,47,,,,,140.61433208400013,,,,,,,,,,,,,,,,,,,,,,,,,,,,,,,,,,,,,,,,,,,,,54.89295908399981,0.0,False,54.89317520899931,714310,001,2024-07-03_12h49.26.059,5-all in one,2024.1.4,None,2024-07-03 12h49.30.744351 +0900,
Images/Speaker1.jpg,Images/Speaker2.jpg,Images/Speaker3.jpg,Images/Speaker4.jpg,Audio/Speaker4_Per/P4-1-Per.wav,Speaker4,گوینده۴,3,0,240,60,,,,,140.61433208400013,,,,,,,,,,,,,,,,,,,,,,,,,,,,,,,,,,,,,,,,,,,,,54.90884100000039,0.0,False,54.90904416699959,714310,001,2024-07-03_12h49.26.059,5-all in one,2024.1.4,None,2024-07-03 12h49.30.744351 +0900,
Images/Speaker1.jpg,Images/Speaker2.jpg,Images/Speaker3.jpg,Images/Speaker4.jpg,Audio/Speaker2_Per/P2-19-Per.wav,Speaker2,گوینده۲,3,1,241,38,,,,,140.61433208400013,,,,,,,,,,,,,,,,,,,,,,,,,,,,,,,,,,,,,,,,,,,,,54.92482995899991,0.0,False,54.925034874999255,714310,001,2024-07-03_12h49.26.059,5-all in one,2024.1.4,None,2024-07-03 12h49.30.744351 +0900,
Images/Speaker1.jpg,Images/Speaker2.jpg,Images/Speaker3.jpg,Images/Speaker4.jpg,Audio/Speaker1_Per/P1-15-Per.wav,Speaker1,گوینده ۱,3,2,242,14,,,,,140.61433208400013,,,,,,,,,,,,,,,,,,,,,,,,,,,,,,,,,,,,,,,,,,,,,54.94129108400011,0.0,False,54.94147541699931,714310,001,2024-07-03_12h49.26.059,5-all in one,2024.1.4,None,2024-07-03 12h49.30.744351 +0900,
Images/Speaker1.jpg,Images/Speaker2.jpg,Images/Speaker3.jpg,Images/Speaker4.jpg,Audio/Speaker3_Per/P3-8-Per.wav,Speaker3,گوینده۳,3,3,243,47,,,,,140.61433208400013,,,,,,,,,,,,,,,,,,,,,,,,,,,,,,,,,,,,,,,,,,,,,54.957192459,0.0,False,54.957382458998836,714310,001,2024-07-03_12h49.26.059,5-all in one,2024.1.4,None,2024-07-03 12h49.30.744351 +0900,
Images/Speaker1.jpg,Images/Speaker2.jpg,Images/Speaker3.jpg,Images/Speaker4.jpg,Audio/Speaker2_Per/P2-9-Per.wav,Speaker2,گوینده۲,3,4,244,28,,,,,140.61433208400013,,,,,,,,,,,,,,,,,,,,,,,,,,,,,,,,,,,,,,,,,,,,,54.973048583999116,0.0,False,54.97323541699916,714310,001,2024-07-03_12h49.26.059,5-all in one,2024.1.4,None,2024-07-03 12h49.30.744351 +0900,
Images/Speaker1.jpg,Images/Speaker2.jpg,Images/Speaker3.jpg,Images/Speaker4.jpg,Audio/Speaker1_Per/P1-3-Per.wav,Speaker1,گوینده ۱,3,5,245,2,,,,,140.61433208400013,,,,,,,,,,,,,,,,,,,,,,,,,,,,,,,,,,,,,,,,,,,,,54.98892270899887,0.0,False,54.989113624998936,714310,001,2024-07-03_12h49.26.059,5-all in one,2024.1.4,None,2024-07-03 12h49.30.744351 +0900,
Images/Speaker1.jpg,Images/Speaker2.jpg,Images/Speaker3.jpg,Images/Speaker4.jpg,Audio/Speaker3_Per/P3-20-Per.wav,Speaker3,گوینده۳,3,6,246,59,,,,,140.61433208400013,,,,,,,,,,,,,,,,,,,,,,,,,,,,,,,,,,,,,,,,,,,,,55.00543262499923,0.0,False,55.00560720899921,714310,001,2024-07-03_12h49.26.059,5-all in one,2024.1.4,None,2024-07-03 12h49.30.744351 +0900,
Images/Speaker1.jpg,Images/Speaker2.jpg,Images/Speaker3.jpg,Images/Speaker4.jpg,Audio/Speaker4_Per/P4-20-Per.wav,Speaker4,گوینده۴,3,7,247,79,,,,,140.61433208400013,,,,,,,,,,,,,,,,,,,,,,,,,,,,,,,,,,,,,,,,,,,,,55.02133941699867,0.0,False,55.021514291998756,714310,001,2024-07-03_12h49.26.059,5-all in one,2024.1.4,None,2024-07-03 12h49.30.744351 +0900,
Images/Speaker1.jpg,Images/Speaker2.jpg,Images/Speaker3.jpg,Images/Speaker4.jpg,Audio/Speaker4_Per/P4-8-Per.wav,Speaker4,گوینده۴,3,8,248,67,,,,,140.61433208400013,,,,,,,,,,,,,,,,,,,,,,,,,,,,,,,,,,,,,,,,,,,,,55.03717233399948,0.0,False,55.03736066700003,714310,001,2024-07-03_12h49.26.059,5-all in one,2024.1.4,None,2024-07-03 12h49.30.744351 +0900,
Images/Speaker1.jpg,Images/Speaker2.jpg,Images/Speaker3.jpg,Images/Speaker4.jpg,Audio/Speaker1_Per/P1-2-Per.wav,Speaker1,گوینده ۱,3,9,249,1,,,,,140.61433208400013,,,,,,,,,,,,,,,,,,,,,,,,,,,,,,,,,,,,,,,,,,,,,55.05300075000014,0.0,False,55.0531824589998,714310,001,2024-07-03_12h49.26.059,5-all in one,2024.1.4,None,2024-07-03 12h49.30.744351 +0900,
Images/Speaker1.jpg,Images/Speaker2.jpg,Images/Speaker3.jpg,Images/Speaker4.jpg,Audio/Speaker3_Per/P3-11-Per.wav,Speaker3,گوینده۳,3,10,250,50,,,,,140.61433208400013,,,,,,,,,,,,,,,,,,,,,,,,,,,,,,,,,,,,,,,,,,,,,55.06943024999964,0.0,False,55.06958395899892,714310,001,2024-07-03_12h49.26.059,5-all in one,2024.1.4,None,2024-07-03 12h49.30.744351 +0900,
Images/Speaker1.jpg,Images/Speaker2.jpg,Images/Speaker3.jpg,Images/Speaker4.jpg,Audio/Speaker3_Per/P3-14-Per.wav,Speaker3,گوینده۳,3,11,251,53,,,,,140.61433208400013,,,,,,,,,,,,,,,,,,,,,,,,,,,,,,,,,,,,,,,,,,,,,55.08518616699985,0.0,False,55.08539824999934,714310,001,2024-07-03_12h49.26.059,5-all in one,2024.1.4,None,2024-07-03 12h49.30.744351 +0900,
Images/Speaker1.jpg,Images/Speaker2.jpg,Images/Speaker3.jpg,Images/Speaker4.jpg,Audio/Speaker2_Per/P2-17-Per.wav,Speaker2,گوینده۲,3,12,252,36,,,,,140.61433208400013,,,,,,,,,,,,,,,,,,,,,,,,,,,,,,,,,,,,,,,,,,,,,55.10116266699879,0.0,False,55.10141045899945,714310,001,2024-07-03_12h49.26.059,5-all in one,2024.1.4,None,2024-07-03 12h49.30.744351 +0900,
Images/Speaker1.jpg,Images/Speaker2.jpg,Images/Speaker3.jpg,Images/Speaker4.jpg,Audio/Speaker1_Per/P1-20-Per.wav,Speaker1,گوینده ۱,3,13,253,19,,,,,140.61433208400013,,,,,,,,,,,,,,,,,,,,,,,,,,,,,,,,,,,,,,,,,,,,,55.11717116699947,0.0,False,55.11740645899954,714310,001,2024-07-03_12h49.26.059,5-all in one,2024.1.4,None,2024-07-03 12h49.30.744351 +0900,
Images/Speaker1.jpg,Images/Speaker2.jpg,Images/Speaker3.jpg,Images/Speaker4.jpg,Audio/Speaker3_Per/P3-7-Per.wav,Speaker3,گوینده۳,3,14,254,46,,,,,140.61433208400013,,,,,,,,,,,,,,,,,,,,,,,,,,,,,,,,,,,,,,,,,,,,,55.13375287499912,0.0,False,55.13393579199874,714310,001,2024-07-03_12h49.26.059,5-all in one,2024.1.4,None,2024-07-03 12h49.30.744351 +0900,
Images/Speaker1.jpg,Images/Speaker2.jpg,Images/Speaker3.jpg,Images/Speaker4.jpg,Audio/Speaker1_Per/P1-10-Per.wav,Speaker1,گوینده ۱,3,15,255,9,,,,,140.61433208400013,,,,,,,,,,,,,,,,,,,,,,,,,,,,,,,,,,,,,,,,,,,,,55.14965854199909,0.0,False,55.14984437499879,714310,001,2024-07-03_12h49.26.059,5-all in one,2024.1.4,None,2024-07-03 12h49.30.744351 +0900,
Images/Speaker1.jpg,Images/Speaker2.jpg,Images/Speaker3.jpg,Images/Speaker4.jpg,Audio/Speaker2_Per/P2-11-Per.wav,Speaker2,گوینده۲,3,16,256,30,,,,,140.61433208400013,,,,,,,,,,,,,,,,,,,,,,,,,,,,,,,,,,,,,,,,,,,,,55.165517084000385,0.0,False,55.16570333399977,714310,001,2024-07-03_12h49.26.059,5-all in one,2024.1.4,None,2024-07-03 12h49.30.744351 +0900,
Images/Speaker1.jpg,Images/Speaker2.jpg,Images/Speaker3.jpg,Images/Speaker4.jpg,Audio/Speaker2_Per/P2-5-Per.wav,Speaker2,گوینده۲,3,17,257,24,,,,,140.61433208400013,,,,,,,,,,,,,,,,,,,,,,,,,,,,,,,,,,,,,,,,,,,,,55.18141912499959,0.0,False,55.18160258399985,714310,001,2024-07-03_12h49.26.059,5-all in one,2024.1.4,None,2024-07-03 12h49.30.744351 +0900,
Images/Speaker1.jpg,Images/Speaker2.jpg,Images/Speaker3.jpg,Images/Speaker4.jpg,Audio/Speaker4_Per/P4-6-Per.wav,Speaker4,گوینده۴,3,18,258,65,,,,,140.61433208400013,,,,,,,,,,,,,,,,,,,,,,,,,,,,,,,,,,,,,,,,,,,,,55.19782229199882,0.0,False,55.19798387499941,714310,001,2024-07-03_12h49.26.059,5-all in one,2024.1.4,None,2024-07-03 12h49.30.744351 +0900,
Images/Speaker1.jpg,Images/Speaker2.jpg,Images/Speaker3.jpg,Images/Speaker4.jpg,Audio/Speaker1_Per/P1-1-Per.wav,Speaker1,گوینده ۱,3,19,259,0,,,,,140.61433208400013,,,,,,,,,,,,,,,,,,,,,,,,,,,,,,,,,,,,,,,,,,,,,55.2135909589997,0.0,False,55.21378029199877,714310,001,2024-07-03_12h49.26.059,5-all in one,2024.1.4,None,2024-07-03 12h49.30.744351 +0900,
Images/Speaker1.jpg,Images/Speaker2.jpg,Images/Speaker3.jpg,Images/Speaker4.jpg,Audio/Speaker3_Per/P3-13-Per.wav,Speaker3,گوینده۳,3,20,260,52,,,,,140.61433208400013,,,,,,,,,,,,,,,,,,,,,,,,,,,,,,,,,,,,,,,,,,,,,55.22935854199932,0.0,False,55.22953754199989,714310,001,2024-07-03_12h49.26.059,5-all in one,2024.1.4,None,2024-07-03 12h49.30.744351 +0900,
Images/Speaker1.jpg,Images/Speaker2.jpg,Images/Speaker3.jpg,Images/Speaker4.jpg,Audio/Speaker1_Per/P1-4-Per.wav,Speaker1,گوینده ۱,3,21,261,3,,,,,140.61433208400013,,,,,,,,,,,,,,,,,,,,,,,,,,,,,,,,,,,,,,,,,,,,,55.24509041700003,0.0,False,55.245238999999856,714310,001,2024-07-03_12h49.26.059,5-all in one,2024.1.4,None,2024-07-03 12h49.30.744351 +0900,
Images/Speaker1.jpg,Images/Speaker2.jpg,Images/Speaker3.jpg,Images/Speaker4.jpg,Audio/Speaker3_Per/P3-9-Per.wav,Speaker3,گوینده۳,3,22,262,48,,,,,140.61433208400013,,,,,,,,,,,,,,,,,,,,,,,,,,,,,,,,,,,,,,,,,,,,,55.26139883399992,0.0,False,55.261554875,714310,001,2024-07-03_12h49.26.059,5-all in one,2024.1.4,None,2024-07-03 12h49.30.744351 +0900,
Images/Speaker1.jpg,Images/Speaker2.jpg,Images/Speaker3.jpg,Images/Speaker4.jpg,Audio/Speaker1_Per/P1-7-Per.wav,Speaker1,گوینده ۱,3,23,263,6,,,,,140.61433208400013,,,,,,,,,,,,,,,,,,,,,,,,,,,,,,,,,,,,,,,,,,,,,55.277109583999845,0.0,False,55.27726595899912,714310,001,2024-07-03_12h49.26.059,5-all in one,2024.1.4,None,2024-07-03 12h49.30.744351 +0900,
Images/Speaker1.jpg,Images/Speaker2.jpg,Images/Speaker3.jpg,Images/Speaker4.jpg,Audio/Speaker4_Per/P4-10-Per.wav,Speaker4,گوینده۴,3,24,264,69,,,,,140.61433208400013,,,,,,,,,,,,,,,,,,,,,,,,,,,,,,,,,,,,,,,,,,,,,55.292879833999905,0.0,False,55.29306079199887,714310,001,2024-07-03_12h49.26.059,5-all in one,2024.1.4,None,2024-07-03 12h49.30.744351 +0900,
Images/Speaker1.jpg,Images/Speaker2.jpg,Images/Speaker3.jpg,Images/Speaker4.jpg,Audio/Speaker3_Per/P3-6-Per.wav,Speaker3,گوینده۳,3,25,265,45,,,,,140.61433208400013,,,,,,,,,,,,,,,,,,,,,,,,,,,,,,,,,,,,,,,,,,,,,55.308816749999096,0.0,False,55.30899274999865,714310,001,2024-07-03_12h49.26.059,5-all in one,2024.1.4,None,2024-07-03 12h49.30.744351 +0900,
Images/Speaker1.jpg,Images/Speaker2.jpg,Images/Speaker3.jpg,Images/Speaker4.jpg,Audio/Speaker2_Per/P2-8-Per.wav,Speaker2,گوینده۲,3,26,266,27,,,,,140.61433208400013,,,,,,,,,,,,,,,,,,,,,,,,,,,,,,,,,,,,,,,,,,,,,55.32522108400008,0.0,False,55.32538691700029,714310,001,2024-07-03_12h49.26.059,5-all in one,2024.1.4,None,2024-07-03 12h49.30.744351 +0900,
Images/Speaker1.jpg,Images/Speaker2.jpg,Images/Speaker3.jpg,Images/Speaker4.jpg,Audio/Speaker1_Per/P1-19-Per.wav,Speaker1,گوینده ۱,3,27,267,18,,,,,140.61433208400013,,,,,,,,,,,,,,,,,,,,,,,,,,,,,,,,,,,,,,,,,,,,,55.34123595900019,0.0,False,55.34142533399972,714310,001,2024-07-03_12h49.26.059,5-all in one,2024.1.4,None,2024-07-03 12h49.30.744351 +0900,
Images/Speaker1.jpg,Images/Speaker2.jpg,Images/Speaker3.jpg,Images/Speaker4.jpg,Audio/Speaker1_Per/P1-13-Per.wav,Speaker1,گوینده ۱,3,28,268,12,,,,,140.61433208400013,,,,,,,,,,,,,,,,,,,,,,,,,,,,,,,,,,,,,,,,,,,,,55.35699933399883,0.0,False,55.35717337499955,714310,001,2024-07-03_12h49.26.059,5-all in one,2024.1.4,None,2024-07-03 12h49.30.744351 +0900,
Images/Speaker1.jpg,Images/Speaker2.jpg,Images/Speaker3.jpg,Images/Speaker4.jpg,Audio/Speaker4_Per/P4-9-Per.wav,Speaker4,گوینده۴,3,29,269,68,,,,,140.61433208400013,,,,,,,,,,,,,,,,,,,,,,,,,,,,,,,,,,,,,,,,,,,,,55.372825458998705,0.0,False,55.37300733399934,714310,001,2024-07-03_12h49.26.059,5-all in one,2024.1.4,None,2024-07-03 12h49.30.744351 +0900,
Images/Speaker1.jpg,Images/Speaker2.jpg,Images/Speaker3.jpg,Images/Speaker4.jpg,Audio/Speaker4_Per/P4-4-Per.wav,Speaker4,گوینده۴,3,30,270,63,,,,,140.61433208400013,,,,,,,,,,,,,,,,,,,,,,,,,,,,,,,,,,,,,,,,,,,,,55.389443833999394,0.0,False,55.38962349999929,714310,001,2024-07-03_12h49.26.059,5-all in one,2024.1.4,None,2024-07-03 12h49.30.744351 +0900,
Images/Speaker1.jpg,Images/Speaker2.jpg,Images/Speaker3.jpg,Images/Speaker4.jpg,Audio/Speaker4_Per/P4-5-Per.wav,Speaker4,گوینده۴,3,31,271,64,,,,,140.61433208400013,,,,,,,,,,,,,,,,,,,,,,,,,,,,,,,,,,,,,,,,,,,,,55.40524979200018,0.0,False,55.40540820899878,714310,001,2024-07-03_12h49.26.059,5-all in one,2024.1.4,None,2024-07-03 12h49.30.744351 +0900,
Images/Speaker1.jpg,Images/Speaker2.jpg,Images/Speaker3.jpg,Images/Speaker4.jpg,Audio/Speaker2_Per/P2-1-Per.wav,Speaker2,گوینده۲,3,32,272,20,,,,,140.61433208400013,,,,,,,,,,,,,,,,,,,,,,,,,,,,,,,,,,,,,,,,,,,,,55.420957291999,0.0,False,55.421151499998814,714310,001,2024-07-03_12h49.26.059,5-all in one,2024.1.4,None,2024-07-03 12h49.30.744351 +0900,
Images/Speaker1.jpg,Images/Speaker2.jpg,Images/Speaker3.jpg,Images/Speaker4.jpg,Audio/Speaker1_Per/P1-8-Per.wav,Speaker1,گوینده ۱,3,33,273,7,,,,,140.61433208400013,,,,,,,,,,,,,,,,,,,,,,,,,,,,,,,,,,,,,,,,,,,,,55.437005709000005,0.0,False,55.43718662500032,714310,001,2024-07-03_12h49.26.059,5-all in one,2024.1.4,None,2024-07-03 12h49.30.744351 +0900,
Images/Speaker1.jpg,Images/Speaker2.jpg,Images/Speaker3.jpg,Images/Speaker4.jpg,Audio/Speaker3_Per/P3-19-Per.wav,Speaker3,گوینده۳,3,34,274,58,,,,,140.61433208400013,,,,,,,,,,,,,,,,,,,,,,,,,,,,,,,,,,,,,,,,,,,,,55.45351949999895,0.0,False,55.45370020900009,714310,001,2024-07-03_12h49.26.059,5-all in one,2024.1.4,None,2024-07-03 12h49.30.744351 +0900,
Images/Speaker1.jpg,Images/Speaker2.jpg,Images/Speaker3.jpg,Images/Speaker4.jpg,Audio/Speaker3_Per/P3-17-Per.wav,Speaker3,گوینده۳,3,35,275,56,,,,,140.61433208400013,,,,,,,,,,,,,,,,,,,,,,,,,,,,,,,,,,,,,,,,,,,,,55.46923820899974,0.0,False,55.469421583999065,714310,001,2024-07-03_12h49.26.059,5-all in one,2024.1.4,None,2024-07-03 12h49.30.744351 +0900,
Images/Speaker1.jpg,Images/Speaker2.jpg,Images/Speaker3.jpg,Images/Speaker4.jpg,Audio/Speaker3_Per/P3-1-Per.wav,Speaker3,گوینده۳,3,36,276,40,,,,,140.61433208400013,,,,,,,,,,,,,,,,,,,,,,,,,,,,,,,,,,,,,,,,,,,,,55.48510470899964,0.0,False,55.485260041999936,714310,001,2024-07-03_12h49.26.059,5-all in one,2024.1.4,None,2024-07-03 12h49.30.744351 +0900,
