SpeakerImage1,SpeakerImage2,SpeakerImage3,SpeakerImage4,TrainingSound,EnglishCorrectAnswer,PersianCorrectAnswer,repeated_TrainingLoopGroup2.thisRepN,repeated_TrainingLoopGroup2.thisTrialN,repeated_TrainingLoopGroup2.thisN,repeated_TrainingLoopGroup2.thisIndex,TrainingLoopGroup2.thisRepN,TrainingLoopGroup2.thisTrialN,TrainingLoopGroup2.thisN,TrainingLoopGroup2.thisIndex,thisRow.t,notes,trial.started,trial.stopped,GroupSelection.started,GroupInstructions.started,key_resp.started,GroupSelection.stopped,key_resp.keys,key_resp.rt,key_resp.duration,HeadphoneCheck.started,text_13.started,mouse.started,checkbox.started,HeadphoneCheck.stopped,mouse.x,mouse.y,mouse.leftButton,mouse.midButton,mouse.rightButton,mouse.time,mouse.clicked_name,Headphone_Used,Introduction.started,text_2.started,text_2.stopped,image.started,sound_8.started,text_4.started,image.stopped,text_4.stopped,image_7.started,sound_10.started,text_5.started,image_7.stopped,text_5.stopped,image_8.started,sound_12.started,text_6.started,image_8.stopped,text_6.stopped,image_9.started,sound_14.started,text_7.started,Introduction.stopped,Instructions.started,InstructionText.started,InstructionText.stopped,Instructions.stopped,Countdown.started,number1.started,number1.stopped,number2.started,number2.stopped,number3.started,number3.stopped,start.started,start.stopped,silence.started,silence.stopped,Countdown.stopped,InitializeExperiment.started,InitializeExperiment.stopped,TrainingGroup2.started,image_11.started,SpeakerPicture2.started,image_5.started,image_6.started,Sound2.started,Instruction2.started,Response2.started,SessionNumberTest.started,TrainingGroup2.stopped,feedbackText,correct_responses_group2,total_trials_group2,Response2.keys,Response2.rt,Response2.duration,FeedbackRoutine2.started,FeedbackText2.started,FeedbackText2.stopped,FeedbackRoutine2.stopped,Break.started,Break.stopped,mouse2.x,mouse2.y,mouse2.leftButton,mouse2.midButton,mouse2.rightButton,mouse2.time,mouse2.clicked_name,Proceed_Break,participant,session,date,expName,psychopyVersion,frameRate,expStart,
,,,,,,,,,,,,,,,,,0.01124925000112853,0.012513708999904338,,,,,,,,,,,,,,,,,,,,,,,,,,,,,,,,,,,,,,,,,,,,,,,,,,,,,,,,,,,,,,,,,,,,,,,,,,,,,,,,,,,,,,,,,,,715107,001,2024-08-18_21h08.32.697,5-36 ready-Persian trained,2024.1.5,None,2024-08-18 21h08.39.193707 +0900,
,,,,,,,,,,,,,,,,,,,0.012531208998552756,0.02673708400106989,0.02673708400106989,0.7620286669989582,2,0.6905791249992035,None,,,,,,,,,,,,,,,,,,,,,,,,,,,,,,,,,,,,,,,,,,,,,,,,,,,,,,,,,,,,,,,,,,,,,,,,,,,,,,,,,,,,715107,001,2024-08-18_21h08.32.697,5-36 ready-Persian trained,2024.1.5,None,2024-08-18 21h08.39.193707 +0900,
,,,,,,,,,,,,,,,,,,,,,,,,,,0.7620635839994065,0.8010869169993384,0.0001833749993238598,0.8010869169993384,1.6337302920001093,[-0.025458248472505093],[-0.21690427698574338],[1],[0],[0],[0.870817499999248],['checkbox'],True,,,,,,,,,,,,,,,,,,,,,,,,,,,,,,,,,,,,,,,,,,,,,,,,,,,,,,,,,,,,,,,,,,,,,,,715107,001,2024-08-18_21h08.32.697,5-36 ready-Persian trained,2024.1.5,None,2024-08-18 21h08.39.193707 +0900,
,,,,,,,,,,,,,,,,,,,,,,,,,,,,,,,,,,,,,,,1.6338916669992614,1.6944483340012084,6.691956083999685,8.650740375000169,8.643276583665527,8.650740375000169,13.637988124999538,13.637988124999538,16.638776250001683,16.644884833666097,16.638776250001683,21.630493959000887,21.630493959000887,24.629617250000592,24.641746750665575,24.629617250000592,29.625631916998827,29.625631916998827,32.63887495900053,32.64384550066849,32.63887495900053,37.634351584001706,,,,,,,,,,,,,,,,,,,,,,,,,,,,,,,,,,,,,,,,,,,,,,,,,715107,001,2024-08-18_21h08.32.697,5-36 ready-Persian trained,2024.1.5,None,2024-08-18 21h08.39.193707 +0900,
,,,,,,,,,,,,,,,,,,,,,,,,,,,,,,,,,,,,,,,,,,,,,,,,,,,,,,,,,,,,,37.63443591699979,37.64093329200114,47.630539208999835,47.624875334000535,,,,,,,,,,,,,,,,,,,,,,,,,,,,,,,,,,,,,,,,,,,,,715107,001,2024-08-18_21h08.32.697,5-36 ready-Persian trained,2024.1.5,None,2024-08-18 21h08.39.193707 +0900,
,,,,,,,,,,,,,,,,,,,,,,,,,,,,,,,,,,,,,,,,,,,,,,,,,,,,,,,,,,,,,,,,,47.6248877500002,47.630539208999835,48.6265764589989,49.12811062499895,50.12505183399844,50.628200999999535,51.625341792001564,52.12799508399985,54.12705854199885,54.1296268340011,56.194668125001044,56.11230250000153,,,,,,,,,,,,,,,,,,,,,,,,,,,,,,,,,715107,001,2024-08-18_21h08.32.697,5-36 ready-Persian trained,2024.1.5,None,2024-08-18 21h08.39.193707 +0900,
,,,,,,,,,,,,,,,,,,,,,,,,,,,,,,,,,,,,,,,,,,,,,,,,,,,,,,,,,,,,,,,,,,,,,,,,,,,,,56.11231654199946,56.112503249998554,,,,,,,,,,,,,,,,,,,,,,,,,,,,,,,715107,001,2024-08-18_21h08.32.697,5-36 ready-Persian trained,2024.1.5,None,2024-08-18 21h08.39.193707 +0900,
Images/Speaker1.jpg,Images/Speaker2.jpg,Images/Speaker3.jpg,Images/Speaker4.jpg,Audio/Speaker2_Per/P2-16-Per.wav,Speaker2,گوینده۲,0,0,0,7,0,0,0,35,56.194668125001044,,,,,,,,,,,,,,,,,,,,,,,,,,,,,,,,,,,,,,,,,,,,,,,,,,,,,,,,,,,,,,,,56.16634366699873,56.194668125001044,56.194668125001044,56.194668125001044,56.194668125001044,56.1953569173323,56.194668125001044,56.194668125001044,56.194668125001044,58.52837862500019,نادرست! پاسخ صحیح گوینده۲ است,0,1,1,2.3299804999987828,None,58.53278399999908,58.54486991700105,60.55933500000174,60.53107845900013,60.531093541998416,60.53125604199886,[],[],[],[],[],[],[],False,715107,001,2024-08-18_21h08.32.697,5-36 ready-Persian trained,2024.1.5,None,2024-08-18 21h08.39.193707 +0900,
Images/Speaker1.jpg,Images/Speaker2.jpg,Images/Speaker3.jpg,Images/Speaker4.jpg,Audio/Speaker4_Per/P4-13-Per.wav,Speaker4,گوینده۴,0,0,0,7,0,1,1,72,60.55933500000174,,,,,,,,,,,,,,,,,,,,,,,,,,,,,,,,,,,,,,,,,,,,,,,,,,,,,,,,,,,,,,,,60.53201841700138,60.55933500000174,60.55933500000174,60.55933500000174,60.55933500000174,60.56422562533456,60.55933500000174,60.55933500000174,60.55933500000174,62.37791804199878,صحیح است,1,1,4,1.8141510829991603,None,62.38210979200085,62.39320958399912,64.40687529199931,64.38008708399866,64.38009512500139,64.38019712499954,[],[],[],[],[],[],[],False,715107,001,2024-08-18_21h08.32.697,5-36 ready-Persian trained,2024.1.5,None,2024-08-18 21h08.39.193707 +0900,
Images/Speaker1.jpg,Images/Speaker2.jpg,Images/Speaker3.jpg,Images/Speaker4.jpg,Audio/Speaker3_Per/P3-17-Per.wav,Speaker3,گوینده۳,0,0,0,7,0,2,2,56,64.40687529199931,,,,,,,,,,,,,,,,,,,,,,,,,,,,,,,,,,,,,,,,,,,,,,,,,,,,,,,,,,,,,,,,64.38059729200177,64.40687529199931,64.40687529199931,64.40687529199931,64.40687529199931,64.41319250033169,64.40687529199931,64.40687529199931,64.40687529199931,66.43062308400113,نادرست! پاسخ صحیح گوینده۳ است,0,1,1,2.0112262920010835,None,66.4345502920005,66.4439377919989,68.45666337500006,68.42870866700105,68.42871954200018,68.42882045900114,[],[],[],[],[],[],[],False,715107,001,2024-08-18_21h08.32.697,5-36 ready-Persian trained,2024.1.5,None,2024-08-18 21h08.39.193707 +0900,
Images/Speaker1.jpg,Images/Speaker2.jpg,Images/Speaker3.jpg,Images/Speaker4.jpg,Audio/Speaker2_Per/P2-8-Per.wav,Speaker2,گوینده۲,0,0,0,7,0,3,3,27,68.45666337500006,,,,,,,,,,,,,,,,,,,,,,,,,,,,,,,,,,,,,,,,,,,,,,,,,,,,,,,,,,,,,,,,68.42925245900187,68.45666337500006,68.45666337500006,68.45666337500006,68.45666337500006,68.4617646673328,68.45666337500006,68.45666337500006,68.45666337500006,70.83245525000166,صحیح است,1,1,2,2.3671019169996725,None,70.83674841700122,70.84804916700159,72.85987091700008,72.83417408400055,72.83418670899846,72.83429354200052,[],[],[],[],[],[],[],False,715107,001,2024-08-18_21h08.32.697,5-36 ready-Persian trained,2024.1.5,None,2024-08-18 21h08.39.193707 +0900,
Images/Speaker1.jpg,Images/Speaker2.jpg,Images/Speaker3.jpg,Images/Speaker4.jpg,Audio/Speaker3_Per/P3-18-Per.wav,Speaker3,گوینده۳,0,0,0,7,0,4,4,57,72.85987091700008,,,,,,,,,,,,,,,,,,,,,,,,,,,,,,,,,,,,,,,,,,,,,,,,,,,,,,,,,,,,,,,,72.83471512500182,72.85987091700008,72.85987091700008,72.85987091700008,72.85987091700008,72.86734187533196,72.85987091700008,72.85987091700008,72.85987091700008,76.72683329199936,صحیح است,1,1,3,3.8654755419993307,None,76.72707866700148,76.73763099999996,78.75065395899946,78.72191858400038,78.72192762499981,78.72203112499847,[],[],[],[],[],[],[],False,715107,001,2024-08-18_21h08.32.697,5-36 ready-Persian trained,2024.1.5,None,2024-08-18 21h08.39.193707 +0900,
Images/Speaker1.jpg,Images/Speaker2.jpg,Images/Speaker3.jpg,Images/Speaker4.jpg,Audio/Speaker3_Per/P3-11-Per.wav,Speaker3,گوینده۳,0,0,0,7,0,5,5,50,78.75065395899946,,,,,,,,,,,,,,,,,,,,,,,,,,,,,,,,,,,,,,,,,,,,,,,,,,,,,,,,,,,,,,,,78.72245395899881,78.75065395899946,78.75065395899946,78.75065395899946,78.75065395899946,78.75506933333284,78.75065395899946,78.75065395899946,78.75065395899946,99.53481670900146,صحیح است,1,1,3,20.78263262499968,None,99.53504641700056,99.55078133400093,,101.54601924999952,101.546029000001,101.54613595900082,[],[],[],[],[],[],[],False,715107,001,2024-08-18_21h08.32.697,5-36 ready-Persian trained,2024.1.5,None,2024-08-18 21h08.39.193707 +0900,
Images/Speaker1.jpg,Images/Speaker2.jpg,Images/Speaker3.jpg,Images/Speaker4.jpg,Audio/Speaker1_Per/P1-8-Per.wav,Speaker1,گوینده ۱,0,0,0,7,0,6,6,7,101.57193933400049,,,,,,,,,,,,,,,,,,,,,,,,,,,,,,,,,,,,,,,,,,,,,,,,,,,,,,,,,,,,,,,,101.5465291670007,101.57193933400049,101.57193933400049,101.57193933400049,101.57193933400049,101.57931620833236,101.57193933400049,101.57193933400049,101.57193933400049,105.67244025000036,صحیح است,1,1,1,4.098876166000991,None,105.67271687500033,105.68338158400002,,107.67425341700073,107.6742616670017,107.6743747090004,[],[],[],[],[],[],[],False,715107,001,2024-08-18_21h08.32.697,5-36 ready-Persian trained,2024.1.5,None,2024-08-18 21h08.39.193707 +0900,
Images/Speaker1.jpg,Images/Speaker2.jpg,Images/Speaker3.jpg,Images/Speaker4.jpg,Audio/Speaker3_Per/P3-2-Per.wav,Speaker3,گوینده۳,0,0,0,7,0,7,7,41,107.70093808399906,,,,,,,,,,,,,,,,,,,,,,,,,,,,,,,,,,,,,,,,,,,,,,,,,,,,,,,,,,,,,,,,107.67479933399954,107.70093808399906,107.70093808399906,107.70093808399906,107.70093808399906,107.70754983333293,107.70093808399906,107.70093808399906,107.70093808399906,115.30026029199871,صحیح است,1,1,3,7.594886332997703,None,115.30048850000094,115.31154954199883,117.32294479199845,117.29460112499874,117.29461512499984,117.29473791700002,[],[],[],[],[],[],[],False,715107,001,2024-08-18_21h08.32.697,5-36 ready-Persian trained,2024.1.5,None,2024-08-18 21h08.39.193707 +0900,
Images/Speaker1.jpg,Images/Speaker2.jpg,Images/Speaker3.jpg,Images/Speaker4.jpg,Audio/Speaker2_Per/P2-1-Per.wav,Speaker2,گوینده۲,0,0,0,7,0,8,8,20,117.32294479199845,,,,,,,,,,,,,,,,,,,,,,,,,,,,,,,,,,,,,,,,,,,,,,,,,,,,,,,,,,,,,,,,117.29605245900166,117.32294479199845,117.32294479199845,117.32294479199845,117.32294479199845,117.32773641733414,117.32294479199845,117.32294479199845,117.32294479199845,124.89328695899894,صحیح است,1,1,2,7.5691792920006264,None,124.89352024999971,124.90410808399974,126.91778041699945,126.89214791699851,126.89215666699965,126.89226029199926,[],[],[],[],[],[],[],False,715107,001,2024-08-18_21h08.32.697,5-36 ready-Persian trained,2024.1.5,None,2024-08-18 21h08.39.193707 +0900,
Images/Speaker1.jpg,Images/Speaker2.jpg,Images/Speaker3.jpg,Images/Speaker4.jpg,Audio/Speaker1_Per/P1-20-Per.wav,Speaker1,گوینده ۱,0,0,0,7,0,9,9,19,126.91778041699945,,,,,,,,,,,,,,,,,,,,,,,,,,,,,,,,,,,,,,,,,,,,,,,,,,,,,,,,,,,,,,,,126.89268900000025,126.91778041699945,126.91778041699945,126.91778041699945,126.91778041699945,126.92519508333183,126.91778041699945,126.91778041699945,126.91778041699945,133.3295735419997,صحیح است,1,1,1,6.410053832998528,None,133.3298225840008,133.34100549999857,135.35310041699995,135.32663237499946,135.32664504200147,135.32676720900054,[],[],[],[],[],[],[],False,715107,001,2024-08-18_21h08.32.697,5-36 ready-Persian trained,2024.1.5,None,2024-08-18 21h08.39.193707 +0900,
Images/Speaker1.jpg,Images/Speaker2.jpg,Images/Speaker3.jpg,Images/Speaker4.jpg,Audio/Speaker4_Per/P4-2-Per.wav,Speaker4,گوینده۴,0,0,0,7,0,10,10,61,135.35310041699995,,,,,,,,,,,,,,,,,,,,,,,,,,,,,,,,,,,,,,,,,,,,,,,,,,,,,,,,,,,,,,,,135.3271804169999,135.35310041699995,135.35310041699995,135.35310041699995,135.35310041699995,135.35969920833355,135.35310041699995,135.35310041699995,135.35310041699995,136.9849532920016,نادرست! پاسخ صحیح گوینده۴ است,0,1,1,1.6305749169987394,None,136.98892025000168,137.00053208399913,139.01190154199867,138.98542866700154,138.98543791699922,138.98553941700084,[],[],[],[],[],[],[],False,715107,001,2024-08-18_21h08.32.697,5-36 ready-Persian trained,2024.1.5,None,2024-08-18 21h08.39.193707 +0900,
Images/Speaker1.jpg,Images/Speaker2.jpg,Images/Speaker3.jpg,Images/Speaker4.jpg,Audio/Speaker3_Per/P3-1-Per.wav,Speaker3,گوینده۳,0,0,0,7,0,11,11,40,139.01190154199867,,,,,,,,,,,,,,,,,,,,,,,,,,,,,,,,,,,,,,,,,,,,,,,,,,,,,,,,,,,,,,,,138.98599349999859,139.01190154199867,139.01190154199867,139.01190154199867,139.01190154199867,139.0185426253343,139.01190154199867,139.01190154199867,139.01190154199867,142.10291245899862,صحیح است,1,1,3,3.089703959001781,None,142.1067630840007,142.11780166699828,,144.10774775000027,144.1077732090016,144.10813537500144,[],[],[],[],[],[],[],False,715107,001,2024-08-18_21h08.32.697,5-36 ready-Persian trained,2024.1.5,None,2024-08-18 21h08.39.193707 +0900,
Images/Speaker1.jpg,Images/Speaker2.jpg,Images/Speaker3.jpg,Images/Speaker4.jpg,Audio/Speaker4_Per/P4-11-Per.wav,Speaker4,گوینده۴,0,0,0,7,0,12,12,70,144.1357662090013,,,,,,,,,,,,,,,,,,,,,,,,,,,,,,,,,,,,,,,,,,,,,,,,,,,,,,,,,,,,,,,,144.10975545900146,144.1357662090013,144.1357662090013,144.1357662090013,144.1357662090013,144.1408992923321,144.1357662090013,144.1357662090013,144.1357662090013,150.87654575000124,نادرست! پاسخ صحیح گوینده۴ است,0,1,3,6.7395677079985035,None,150.8767915419994,150.88822058400183,152.8972694590011,152.87116191699897,152.8711710839998,152.87129016700055,[],[],[],[],[],[],[],False,715107,001,2024-08-18_21h08.32.697,5-36 ready-Persian trained,2024.1.5,None,2024-08-18 21h08.39.193707 +0900,
,,,,,,,,,,,,,,,152.8972694590011,,,,,,,,,,,,,,,,,,,,,,,,,,,,,,,,,,,,,,,,,,,,,,,,,,,,,,,,,,,,,,,,152.87171949999902,152.8972694590011,152.8972694590011,152.8972694590011,152.8972694590011,152.9042561673346,152.8972694590011,152.8972694590011,152.8972694590011,,,,,,,,,,,,,,,,,,,,,,,,,,,,,
