SpeakerImage1,SpeakerImage2,SpeakerImage3,SpeakerImage4,TrainingSound,EnglishCorrectAnswer,PersianCorrectAnswer,repeated_TrainingLoopGroup1.thisRepN,repeated_TrainingLoopGroup1.thisTrialN,repeated_TrainingLoopGroup1.thisN,repeated_TrainingLoopGroup1.thisIndex,TrainingLoopGroup1.thisRepN,TrainingLoopGroup1.thisTrialN,TrainingLoopGroup1.thisN,TrainingLoopGroup1.thisIndex,thisRow.t,notes,trial.started,trial.stopped,GroupSelection.started,GroupInstructions.started,key_resp.started,GroupSelection.stopped,key_resp.keys,key_resp.rt,key_resp.duration,HeadphoneCheck.started,text_13.started,mouse.started,checkbox.started,HeadphoneCheck.stopped,mouse.x,mouse.y,mouse.leftButton,mouse.midButton,mouse.rightButton,mouse.time,mouse.clicked_name,Headphone_Used,Introduction.started,text_2.started,image.started,sound_8.started,text_4.started,text_2.stopped,image.stopped,text_4.stopped,image_7.started,sound_10.started,text_5.started,image_7.stopped,text_5.stopped,image_8.started,sound_12.started,text_6.started,image_8.stopped,text_6.stopped,image_9.started,sound_14.started,text_7.started,image_9.stopped,text_7.stopped,Introduction.stopped,Instructions.started,InstructionText.started,InstructionText.stopped,Instructions.stopped,InitializeExperiment.started,InitializeExperiment.stopped,TrainingGroup1.started,image_1.started,image_2.started,image_3.started,image_4.started,sound1.started,Instruction.started,ResponseKey.started,SessionNumberText.started,TrainingGroup1.stopped,feedbackText,correct_responses_group1,total_trials_group1,ResponseKey.keys,ResponseKey.rt,ResponseKey.duration,FeedbackRoutine1.started,FeedbackText.started,FeedbackRoutine1.stopped,Break.started,Break.stopped,FeedbackText.stopped,break_message.started,participant,session,date,expName,psychopyVersion,frameRate,expStart,
,,,,,,,,,,,,,,,,,0.009566250002535526,0.010020458001235966,,,,,,,,,,,,,,,,,,,,,,,,,,,,,,,,,,,,,,,,,,,,,,,,,,,,,,,,,,,,,,,,,,,,,,,,,,739407,001,2024-08-02_15h21.28.142,5-34 ready-monolingual persian speaker,2024.1.5,None,2024-08-02 15h21.32.579466 +0900,
,,,,,,,,,,,,,,,,,,,0.0100378749993979,0.014559374998498242,0.014559374998498242,1.0672852499992587,1,1.0124585829980788,None,,,,,,,,,,,,,,,,,,,,,,,,,,,,,,,,,,,,,,,,,,,,,,,,,,,,,,,,,,,,,,,,,,,739407,001,2024-08-02_15h21.28.142,5-34 ready-monolingual persian speaker,2024.1.5,None,2024-08-02 15h21.32.579466 +0900,
,,,,,,,,,,,,,,,,,,,,,,,,,,1.0673141660008696,1.0784057909986586,0.00018191700655734167,1.0784057909986586,1.838285416000872,[-0.1425661914460285],[0.26272912423625255],[1],[0],[0],[0.7703963750027469],[],False,,,,,,,,,,,,,,,,,,,,,,,,,,,,,,,,,,,,,,,,,,,,,,,,,,,,,,739407,001,2024-08-02_15h21.28.142,5-34 ready-monolingual persian speaker,2024.1.5,None,2024-08-02 15h21.32.579466 +0900,
,,,,,,,,,,,,,,,,,,,,,,,,,,,,,,,,,,,,,,,1.838406875001965,1.880003582999052,6.833610749999934,6.837791999667631,6.833610749999934,6.871587374997034,14.825154582998948,14.825154582998948,14.830026666000776,14.841821249665616,14.830026666000776,22.820744791002653,22.820744791002653,22.836243124998873,22.83741145766932,22.836243124998873,30.82547591599723,30.82547591599723,30.83026679100294,30.842142582663897,30.83026679100294,38.82248254099977,38.82248254099977,38.81657816599909,,,,,,,,,,,,,,,,,,,,,,,,,,,,,,739407,001,2024-08-02_15h21.28.142,5-34 ready-monolingual persian speaker,2024.1.5,None,2024-08-02 15h21.32.579466 +0900,
,,,,,,,,,,,,,,,,,,,,,,,,,,,,,,,,,,,,,,,,,,,,,,,,,,,,,,,,,,,,,,,38.81660258299962,38.83426283299923,39.90358954099793,39.81763520799723,,,,,,,,,,,,,,,,,,,,,,,,,,739407,001,2024-08-02_15h21.28.142,5-34 ready-monolingual persian speaker,2024.1.5,None,2024-08-02 15h21.32.579466 +0900,
,,,,,,,,,,,,,,,,,,,,,,,,,,,,,,,,,,,,,,,,,,,,,,,,,,,,,,,,,,,,,,,,,,,39.817651541001396,39.817806083003234,,,,,,,,,,,,,,,,,,,,,,,,739407,001,2024-08-02_15h21.28.142,5-34 ready-monolingual persian speaker,2024.1.5,None,2024-08-02 15h21.32.579466 +0900,
Images/Speaker1.jpg,Images/Speaker2.jpg,Images/Speaker3.jpg,Images/Speaker4.jpg,Audio/Speaker3_Per/P3-11-Per.wav,Speaker3,گوینده۳,0,0,0,74,0,0,0,50,39.90358954099793,,,,,,,,,,,,,,,,,,,,,,,,,,,,,,,,,,,,,,,,,,,,,,,,,,,,,,39.869607250002446,39.90358954099793,39.90358954099793,39.90358954099793,39.90358954099793,39.90072391633051,39.90358954099793,39.90358954099793,39.90358954099793,40.94098274999851,نادرست! پاسخ صحیح گوینده۳ است,0,1,1,1.0326932089956244,None,40.94522683299874,40.961935500003165,42.95241383300163,42.952422290996765,42.95244249999814,,,739407,001,2024-08-02_15h21.28.142,5-34 ready-monolingual persian speaker,2024.1.5,None,2024-08-02 15h21.32.579466 +0900,
Images/Speaker1.jpg,Images/Speaker2.jpg,Images/Speaker3.jpg,Images/Speaker4.jpg,Audio/Speaker4_Per/P4-20-Per.wav,Speaker4,گوینده۴,0,0,0,74,0,1,1,79,42.97812945800251,,,,,,,,,,,,,,,,,,,,,,,,,,,,,,,,,,,,,,,,,,,,,,,,,,,,,,42.952633416003664,42.97812945800251,42.97812945800251,42.97812945800251,42.97812945800251,42.98570666633216,42.97812945800251,42.97812945800251,42.97812945800251,45.14321600000403,نادرست! پاسخ صحیح گوینده۴ است,0,2,1,2.1529266249999637,None,45.147155625003506,45.15906758300116,47.14526616600051,47.145296249997045,47.145355540997116,47.17241666599875,,739407,001,2024-08-02_15h21.28.142,5-34 ready-monolingual persian speaker,2024.1.5,None,2024-08-02 15h21.32.579466 +0900,
Images/Speaker1.jpg,Images/Speaker2.jpg,Images/Speaker3.jpg,Images/Speaker4.jpg,Audio/Speaker1_Per/P1-17-Per.wav,Speaker1,گوینده ۱,0,0,0,74,0,2,2,16,47.17241666599875,,,,,,,,,,,,,,,,,,,,,,,,,,,,,,,,,,,,,,,,,,,,,,,,,,,,,,47.1461916249973,47.17241666599875,47.17241666599875,47.17241666599875,47.17241666599875,47.17777699933552,47.17241666599875,47.17241666599875,47.17241666599875,47.48276608299784,صحیح است,1,3,1,0.30938420799793676,None,47.48664216599718,47.497381540997594,49.4832097910039,49.48321816600219,49.48323554100352,49.5101104580026,,739407,001,2024-08-02_15h21.28.142,5-34 ready-monolingual persian speaker,2024.1.5,None,2024-08-02 15h21.32.579466 +0900,
Images/Speaker1.jpg,Images/Speaker2.jpg,Images/Speaker3.jpg,Images/Speaker4.jpg,Audio/Speaker3_Per/P3-4-Per.wav,Speaker3,گوینده۳,0,0,0,74,0,3,3,43,49.5101104580026,,,,,,,,,,,,,,,,,,,,,,,,,,,,,,,,,,,,,,,,,,,,,,,,,,,,,,49.483409166001366,49.5101104580026,49.5101104580026,49.5101104580026,49.5101104580026,49.51630962433458,49.5101104580026,49.5101104580026,49.5101104580026,49.75684424999781,نادرست! پاسخ صحیح گوینده۳ است,1,4,1,0.2427384170005098,None,49.7605976249979,49.77180812499864,51.75486850000016,51.75488000000041,51.75489883300179,51.78201887499745,,739407,001,2024-08-02_15h21.28.142,5-34 ready-monolingual persian speaker,2024.1.5,None,2024-08-02 15h21.32.579466 +0900,
Images/Speaker1.jpg,Images/Speaker2.jpg,Images/Speaker3.jpg,Images/Speaker4.jpg,Audio/Speaker1_Per/P1-9-Per.wav,Speaker1,گوینده ۱,0,0,0,74,0,4,4,8,51.78201887499745,,,,,,,,,,,,,,,,,,,,,,,,,,,,,,,,,,,,,,,,,,,,,,,,,,,,,,51.7550796659998,51.78201887499745,51.78201887499745,51.78201887499745,51.78201887499745,51.78796716633272,51.78201887499745,51.78201887499745,51.78201887499745,51.87728975000209,صحیح است,2,5,1,0.08754879199841525,None,51.881518832997244,51.891993541001284,53.87648425000225,53.876515582996944,53.8765716659982,53.90395787500165,,739407,001,2024-08-02_15h21.28.142,5-34 ready-monolingual persian speaker,2024.1.5,None,2024-08-02 15h21.32.579466 +0900,
Images/Speaker1.jpg,Images/Speaker2.jpg,Images/Speaker3.jpg,Images/Speaker4.jpg,Audio/Speaker2_Per/P2-10-Per.wav,Speaker2,گوینده۲,0,0,0,74,0,5,5,29,53.90395787500165,,,,,,,,,,,,,,,,,,,,,,,,,,,,,,,,,,,,,,,,,,,,,,,,,,,,,,53.87710954099748,53.90395787500165,53.90395787500165,53.90395787500165,53.90395787500165,53.908934458334016,53.90395787500165,53.90395787500165,53.90395787500165,54.247105166003166,نادرست! پاسخ صحیح گوینده۲ است,2,6,1,0.3383655829966301,None,54.25092270800087,54.26142295799946,56.24589970800298,56.245908791002876,56.24592866600142,56.27145133299928,,739407,001,2024-08-02_15h21.28.142,5-34 ready-monolingual persian speaker,2024.1.5,None,2024-08-02 15h21.32.579466 +0900,
Images/Speaker1.jpg,Images/Speaker2.jpg,Images/Speaker3.jpg,Images/Speaker4.jpg,Audio/Speaker1_Per/P1-18-Per.wav,Speaker1,گوینده ۱,0,0,0,74,0,6,6,17,56.27145133299928,,,,,,,,,,,,,,,,,,,,,,,,,,,,,,,,,,,,,,,,,,,,,,,,,,,,,,56.2461233330032,56.27145133299928,56.27145133299928,56.27145133299928,56.27145133299928,56.279034749336034,56.27145133299928,56.27145133299928,56.27145133299928,56.50398566600052,صحیح است,3,7,1,0.22399316600058228,None,56.50810462499794,56.518085124997015,58.50933433300088,58.509369958002935,58.50943245799863,,,739407,001,2024-08-02_15h21.28.142,5-34 ready-monolingual persian speaker,2024.1.5,None,2024-08-02 15h21.32.579466 +0900,
Images/Speaker1.jpg,Images/Speaker2.jpg,Images/Speaker3.jpg,Images/Speaker4.jpg,Audio/Speaker3_Per/P3-15-Per.wav,Speaker3,گوینده۳,0,0,0,74,0,7,7,54,58.538358290999895,,,,,,,,,,,,,,,,,,,,,,,,,,,,,,,,,,,,,,,,,,,,,,,,,,,,,,58.51008704100241,58.538358290999895,58.538358290999895,58.538358290999895,58.538358290999895,58.54248508333015,58.538358290999895,58.538358290999895,58.538358290999895,58.649926165999204,نادرست! پاسخ صحیح گوینده۳ است,3,8,1,0.10709804199723294,None,58.65389820800192,58.66521766599908,60.6539058749986,60.65391508299945,60.65393425000366,60.67945129099826,,739407,001,2024-08-02_15h21.28.142,5-34 ready-monolingual persian speaker,2024.1.5,None,2024-08-02 15h21.32.579466 +0900,
Images/Speaker1.jpg,Images/Speaker2.jpg,Images/Speaker3.jpg,Images/Speaker4.jpg,Audio/Speaker4_Per/P4-12-Per.wav,Speaker4,گوینده۴,0,0,0,74,0,8,8,71,60.67945129099826,,,,,,,,,,,,,,,,,,,,,,,,,,,,,,,,,,,,,,,,,,,,,,,,,,,,,,60.65410129100201,60.67945129099826,60.67945129099826,60.67945129099826,60.67945129099826,60.68701679133713,60.67945129099826,60.67945129099826,60.67945129099826,60.73495879099937,نادرست! پاسخ صحیح گوینده۴ است,3,9,1,0.05331862499588169,None,60.73875362500257,60.74998575000063,62.73946420800348,62.7394767079968,62.739496125002916,,,739407,001,2024-08-02_15h21.28.142,5-34 ready-monolingual persian speaker,2024.1.5,None,2024-08-02 15h21.32.579466 +0900,
Images/Speaker1.jpg,Images/Speaker2.jpg,Images/Speaker3.jpg,Images/Speaker4.jpg,Audio/Speaker2_Per/P2-14-Per.wav,Speaker2,گوینده۲,0,0,0,74,0,9,9,33,62.76500020799722,,,,,,,,,,,,,,,,,,,,,,,,,,,,,,,,,,,,,,,,,,,,,,,,,,,,,,62.73965862500336,62.76500020799722,62.76500020799722,62.76500020799722,62.76500020799722,62.7727572083318,62.76500020799722,62.76500020799722,62.76500020799722,63.15547499999957,نادرست! پاسخ صحیح گوینده۲ است,3,10,1,0.38961495900002774,None,63.15941937499883,63.17061920800188,65.15976462500112,65.15979408300336,65.15985208300117,,,739407,001,2024-08-02_15h21.28.142,5-34 ready-monolingual persian speaker,2024.1.5,None,2024-08-02 15h21.32.579466 +0900,
Images/Speaker1.jpg,Images/Speaker2.jpg,Images/Speaker3.jpg,Images/Speaker4.jpg,Audio/Speaker2_Per/P2-3-Per.wav,Speaker2,گوینده۲,0,0,0,74,0,10,10,22,65.18636700000206,,,,,,,,,,,,,,,,,,,,,,,,,,,,,,,,,,,,,,,,,,,,,,,,,,,,,,65.16057549999823,65.18636700000206,65.18636700000206,65.18636700000206,65.18636700000206,65.19290399933428,65.18636700000206,65.18636700000206,65.18636700000206,65.46853533299873,نادرست! پاسخ صحیح گوینده۲ است,3,11,1,0.2769791669998085,None,65.47255720799876,65.48335487500299,67.47069624999858,67.4707183749997,67.47078299999703,67.4964239999972,,739407,001,2024-08-02_15h21.28.142,5-34 ready-monolingual persian speaker,2024.1.5,None,2024-08-02 15h21.32.579466 +0900,
Images/Speaker1.jpg,Images/Speaker2.jpg,Images/Speaker3.jpg,Images/Speaker4.jpg,Audio/Speaker4_Per/P4-16-Per.wav,Speaker4,گوینده۴,0,0,0,74,0,11,11,75,67.4964239999972,,,,,,,,,,,,,,,,,,,,,,,,,,,,,,,,,,,,,,,,,,,,,,,,,,,,,,67.47163691600144,67.4964239999972,67.4964239999972,67.4964239999972,67.4964239999972,67.50325895833569,67.4964239999972,67.4964239999972,67.4964239999972,67.6891695000013,نادرست! پاسخ صحیح گوینده۴ است,3,12,1,0.19184662500629202,None,67.69348462500056,67.70454733299994,69.68729083299695,69.6873000830019,69.68732041600015,69.71340249999776,,739407,001,2024-08-02_15h21.28.142,5-34 ready-monolingual persian speaker,2024.1.5,None,2024-08-02 15h21.32.579466 +0900,
Images/Speaker1.jpg,Images/Speaker2.jpg,Images/Speaker3.jpg,Images/Speaker4.jpg,Audio/Speaker3_Per/P3-19-Per.wav,Speaker3,گوینده۳,0,0,0,74,0,12,12,58,69.71340249999776,,,,,,,,,,,,,,,,,,,,,,,,,,,,,,,,,,,,,,,,,,,,,,,,,,,,,,69.68749687499803,69.71340249999776,69.71340249999776,69.71340249999776,69.71340249999776,69.72042104133337,69.71340249999776,69.71340249999776,69.71340249999776,70.15964354100288,نادرست! پاسخ صحیح گوینده۳ است,3,13,1,0.4442758750010398,None,70.16382020799938,70.17508749999979,72.15886937500181,72.15887741599727,72.15889454100397,72.18307225000171,,739407,001,2024-08-02_15h21.28.142,5-34 ready-monolingual persian speaker,2024.1.5,None,2024-08-02 15h21.32.579466 +0900,
Images/Speaker1.jpg,Images/Speaker2.jpg,Images/Speaker3.jpg,Images/Speaker4.jpg,Audio/Speaker3_Per/P3-3-Per.wav,Speaker3,گوینده۳,0,0,0,74,0,13,13,42,72.18307225000171,,,,,,,,,,,,,,,,,,,,,,,,,,,,,,,,,,,,,,,,,,,,,,,,,,,,,,72.15908137500082,72.18307225000171,72.18307225000171,72.18307225000171,72.18307225000171,72.19200179133671,72.18307225000171,72.18307225000171,72.18307225000171,72.34312845800014,نادرست! پاسخ صحیح گوینده۳ است,3,14,1,0.15255637500376906,None,72.34694754100201,72.35599774999719,74.34301275000325,74.34305745799793,74.34312050000153,74.37074725000275,,739407,001,2024-08-02_15h21.28.142,5-34 ready-monolingual persian speaker,2024.1.5,None,2024-08-02 15h21.32.579466 +0900,
Images/Speaker1.jpg,Images/Speaker2.jpg,Images/Speaker3.jpg,Images/Speaker4.jpg,Audio/Speaker3_Per/P3-2-Per.wav,Speaker3,گوینده۳,0,0,0,74,0,14,14,41,74.37074725000275,,,,,,,,,,,,,,,,,,,,,,,,,,,,,,,,,,,,,,,,,,,,,,,,,,,,,,74.34417920799751,74.37074725000275,74.37074725000275,74.37074725000275,74.37074725000275,74.37540758333537,74.37074725000275,74.37074725000275,74.37074725000275,74.73907783300092,نادرست! پاسخ صحیح گوینده۳ است,3,15,1,0.36667854199913563,None,74.7429235410018,74.75402162499813,76.74321404100192,76.74324466600228,76.74329970800318,,,739407,001,2024-08-02_15h21.28.142,5-34 ready-monolingual persian speaker,2024.1.5,None,2024-08-02 15h21.32.579466 +0900,
Images/Speaker1.jpg,Images/Speaker2.jpg,Images/Speaker3.jpg,Images/Speaker4.jpg,Audio/Speaker1_Per/P1-2-Per.wav,Speaker1,گوینده ۱,0,0,0,74,0,15,15,1,76.77080512500106,,,,,,,,,,,,,,,,,,,,,,,,,,,,,,,,,,,,,,,,,,,,,,,,,,,,,,76.74398983299761,76.77080512500106,76.77080512500106,76.77080512500106,76.77080512500106,76.77634716633523,76.77080512500106,76.77080512500106,76.77080512500106,76.97235141599958,صحیح است,4,16,1,0.19909845800430048,None,76.97635679099767,76.9870006659985,78.97098558300058,78.97099529099796,78.97101416600344,78.996107166,,739407,001,2024-08-02_15h21.28.142,5-34 ready-monolingual persian speaker,2024.1.5,None,2024-08-02 15h21.32.579466 +0900,
Images/Speaker1.jpg,Images/Speaker2.jpg,Images/Speaker3.jpg,Images/Speaker4.jpg,Audio/Speaker2_Per/P2-5-Per.wav,Speaker2,گوینده۲,0,0,0,74,0,16,16,24,78.996107166,,,,,,,,,,,,,,,,,,,,,,,,,,,,,,,,,,,,,,,,,,,,,,,,,,,,,,78.97121087500273,78.996107166,78.996107166,78.996107166,78.996107166,79.00411062433025,78.996107166,78.996107166,78.996107166,79.05725991600048,نادرست! پاسخ صحیح گوینده۲ است,4,17,1,0.06017729100130964,None,79.0610211250023,79.07208874999924,81.05562254100369,81.05563175000134,81.05565104100242,81.07956829100294,,739407,001,2024-08-02_15h21.28.142,5-34 ready-monolingual persian speaker,2024.1.5,None,2024-08-02 15h21.32.579466 +0900,
Images/Speaker1.jpg,Images/Speaker2.jpg,Images/Speaker3.jpg,Images/Speaker4.jpg,Audio/Speaker4_Per/P4-9-Per.wav,Speaker4,گوینده۴,0,0,0,74,0,17,17,68,81.07956829100294,,,,,,,,,,,,,,,,,,,,,,,,,,,,,,,,,,,,,,,,,,,,,,,,,,,,,,81.05582237499766,81.07956829100294,81.07956829100294,81.07956829100294,81.07956829100294,81.088722916335,81.07956829100294,81.07956829100294,81.07956829100294,81.20888820799883,نادرست! پاسخ صحیح گوینده۴ است,4,18,1,0.12847304200113285,None,81.21258841599774,81.22359929099912,83.21715016599774,83.21717808300309,83.217247665998,,,739407,001,2024-08-02_15h21.28.142,5-34 ready-monolingual persian speaker,2024.1.5,None,2024-08-02 15h21.32.579466 +0900,
Images/Speaker1.jpg,Images/Speaker2.jpg,Images/Speaker3.jpg,Images/Speaker4.jpg,Audio/Speaker4_Per/P4-2-Per.wav,Speaker4,گوینده۴,0,0,0,74,0,18,18,61,83.24567291600397,,,,,,,,,,,,,,,,,,,,,,,,,,,,,,,,,,,,,,,,,,,,,,,,,,,,,,83.21781779100274,83.24567291600397,83.24567291600397,83.24567291600397,83.24567291600397,83.25035199933384,83.24567291600397,83.24567291600397,83.24567291600397,83.49390575000143,نادرست! پاسخ صحیح گوینده۴ است,4,19,1,0.2446341660033795,None,83.49792204100231,83.50894162499753,85.5009280000013,85.50093612499768,85.50095520800096,,,739407,001,2024-08-02_15h21.28.142,5-34 ready-monolingual persian speaker,2024.1.5,None,2024-08-02 15h21.32.579466 +0900,
Images/Speaker1.jpg,Images/Speaker2.jpg,Images/Speaker3.jpg,Images/Speaker4.jpg,Audio/Speaker4_Per/P4-11-Per.wav,Speaker4,گوینده۴,0,0,0,74,0,19,19,70,85.5255163749971,,,,,,,,,,,,,,,,,,,,,,,,,,,,,,,,,,,,,,,,,,,,,,,,,,,,,,85.50110433300142,85.5255163749971,85.5255163749971,85.5255163749971,85.5255163749971,85.53422533333699,85.5255163749971,85.5255163749971,85.5255163749971,85.61120908299927,نادرست! پاسخ صحیح گوینده۴ است,4,20,1,0.0760752499991213,None,85.61545108300197,85.62611104099778,87.61601858300128,87.61605237500044,87.6161260000008,,,739407,001,2024-08-02_15h21.28.142,5-34 ready-monolingual persian speaker,2024.1.5,None,2024-08-02 15h21.32.579466 +0900,
Images/Speaker1.jpg,Images/Speaker2.jpg,Images/Speaker3.jpg,Images/Speaker4.jpg,Audio/Speaker2_Per/P2-11-Per.wav,Speaker2,گوینده۲,0,0,0,74,0,20,20,30,87.64430137500312,,,,,,,,,,,,,,,,,,,,,,,,,,,,,,,,,,,,,,,,,,,,,,,,,,,,,,87.61672558300052,87.64430137500312,87.64430137500312,87.64430137500312,87.64430137500312,87.64918329133118,87.64430137500312,87.64430137500312,87.64430137500312,87.84239537500252,نادرست! پاسخ صحیح گوینده۲ است,4,21,1,0.19670333300018683,None,87.84640883300017,87.85777049999888,89.84482783300336,89.84485229100392,89.84491437500401,89.87366299999849,,739407,001,2024-08-02_15h21.28.142,5-34 ready-monolingual persian speaker,2024.1.5,None,2024-08-02 15h21.32.579466 +0900,
Images/Speaker1.jpg,Images/Speaker2.jpg,Images/Speaker3.jpg,Images/Speaker4.jpg,Audio/Speaker2_Per/P2-17-Per.wav,Speaker2,گوینده۲,0,0,0,74,0,21,21,36,89.87366299999849,,,,,,,,,,,,,,,,,,,,,,,,,,,,,,,,,,,,,,,,,,,,,,,,,,,,,,89.84575554099865,89.87366299999849,89.87366299999849,89.87366299999849,89.87366299999849,89.87726079133475,89.87366299999849,89.87366299999849,89.87366299999849,90.10905191599886,نادرست! پاسخ صحیح گوینده۲ است,4,22,1,0.23011583300103666,None,90.11294158300007,90.12383062500157,92.10891608300153,92.10892491599952,92.10894312500022,92.132638957999,,739407,001,2024-08-02_15h21.28.142,5-34 ready-monolingual persian speaker,2024.1.5,None,2024-08-02 15h21.32.579466 +0900,
Images/Speaker1.jpg,Images/Speaker2.jpg,Images/Speaker3.jpg,Images/Speaker4.jpg,Audio/Speaker3_Per/P3-17-Per.wav,Speaker3,گوینده۳,0,0,0,74,0,22,22,56,92.132638957999,,,,,,,,,,,,,,,,,,,,,,,,,,,,,,,,,,,,,,,,,,,,,,,,,,,,,,92.10913545799849,92.132638957999,92.132638957999,92.132638957999,92.132638957999,92.14202004133452,92.132638957999,92.132638957999,92.132638957999,92.38081120800052,نادرست! پاسخ صحیح گوینده۳ است,4,23,1,0.2455329169970355,None,92.38455258300382,92.39620395800011,94.38515387500229,94.38520137500018,94.38527162500395,,,739407,001,2024-08-02_15h21.28.142,5-34 ready-monolingual persian speaker,2024.1.5,None,2024-08-02 15h21.32.579466 +0900,
Images/Speaker1.jpg,Images/Speaker2.jpg,Images/Speaker3.jpg,Images/Speaker4.jpg,Audio/Speaker3_Per/P3-5-Per.wav,Speaker3,گوینده۳,0,0,0,74,0,23,23,44,94.41365191600198,,,,,,,,,,,,,,,,,,,,,,,,,,,,,,,,,,,,,,,,,,,,,,,,,,,,,,94.38590600000316,94.41365191600198,94.41365191600198,94.41365191600198,94.41365191600198,94.4183167913366,94.41365191600198,94.41365191600198,94.41365191600198,94.54857525000261,نادرست! پاسخ صحیح گوینده۳ است,4,24,1,0.13373529199452605,None,94.55266445800225,94.56362245800119,96.55265900000086,96.55268629099737,96.55274449999706,96.58066345800034,,739407,001,2024-08-02_15h21.28.142,5-34 ready-monolingual persian speaker,2024.1.5,None,2024-08-02 15h21.32.579466 +0900,
Images/Speaker1.jpg,Images/Speaker2.jpg,Images/Speaker3.jpg,Images/Speaker4.jpg,Audio/Speaker3_Per/P3-8-Per.wav,Speaker3,گوینده۳,0,0,0,74,0,24,24,47,96.58066345800034,,,,,,,,,,,,,,,,,,,,,,,,,,,,,,,,,,,,,,,,,,,,,,,,,,,,,,96.55333391600288,96.58066345800034,96.58066345800034,96.58066345800034,96.58066345800034,96.58508883333027,96.58066345800034,96.58066345800034,96.58066345800034,97.05551295800251,نادرست! پاسخ صحیح گوینده۳ است,4,25,1,0.466013125005702,None,97.05956245800189,97.06802220799727,99.05325283300044,99.05326216600224,99.05328445800114,99.07789062499796,,739407,001,2024-08-02_15h21.28.142,5-34 ready-monolingual persian speaker,2024.1.5,None,2024-08-02 15h21.32.579466 +0900,
Images/Speaker1.jpg,Images/Speaker2.jpg,Images/Speaker3.jpg,Images/Speaker4.jpg,Audio/Speaker1_Per/P1-4-Per.wav,Speaker1,گوینده ۱,0,0,0,74,0,25,25,13,99.07789062499796,,,,,,,,,,,,,,,,,,,,,,,,,,,,,,,,,,,,,,,,,,,,,,,,,,,,,,99.05345133299852,99.07789062499796,99.07789062499796,99.07789062499796,99.07789062499796,99.08635574933626,99.07789062499796,99.07789062499796,99.07789062499796,99.1719200410007,صحیح است,5,26,1,0.0930936250006198,None,99.1757851250004,99.1856897079997,101.1711544159989,101.17116366600385,101.17118262500298,101.1963915410015,,739407,001,2024-08-02_15h21.28.142,5-34 ready-monolingual persian speaker,2024.1.5,None,2024-08-02 15h21.32.579466 +0900,
Images/Speaker1.jpg,Images/Speaker2.jpg,Images/Speaker3.jpg,Images/Speaker4.jpg,Audio/Speaker1_Per/P1-15-Per.wav,Speaker1,گوینده ۱,0,0,0,74,0,26,26,14,101.1963915410015,,,,,,,,,,,,,,,,,,,,,,,,,,,,,,,,,,,,,,,,,,,,,,,,,,,,,,101.17137874999753,101.1963915410015,101.1963915410015,101.1963915410015,101.1963915410015,101.20424624933415,101.1963915410015,101.1963915410015,101.1963915410015,101.47268695799721,صحیح است,6,27,1,0.2713446659981855,None,101.47678508300305,101.48716566600342,103.47810612500325,103.47811770800035,103.47813745799795,,,739407,001,2024-08-02_15h21.28.142,5-34 ready-monolingual persian speaker,2024.1.5,None,2024-08-02 15h21.32.579466 +0900,
Images/Speaker1.jpg,Images/Speaker2.jpg,Images/Speaker3.jpg,Images/Speaker4.jpg,Audio/Speaker3_Per/P3-7-Per.wav,Speaker3,گوینده۳,0,0,0,74,0,27,27,46,103.5011431660023,,,,,,,,,,,,,,,,,,,,,,,,,,,,,,,,,,,,,,,,,,,,,,,,,,,,,,103.47829674999957,103.5011431660023,103.5011431660023,103.5011431660023,103.5011431660023,103.49473462466655,103.5011431660023,103.5011431660023,103.5011431660023,103.69243395800004,نادرست! پاسخ صحیح گوینده۳ است,6,28,1,0.18583879200014053,None,103.69616833300097,103.70674408299965,105.69059949999792,105.69061004099785,105.6906297079986,105.71631733299728,,739407,001,2024-08-02_15h21.28.142,5-34 ready-monolingual persian speaker,2024.1.5,None,2024-08-02 15h21.32.579466 +0900,
Images/Speaker1.jpg,Images/Speaker2.jpg,Images/Speaker3.jpg,Images/Speaker4.jpg,Audio/Speaker1_Per/P1-11-Per.wav,Speaker1,گوینده ۱,0,0,0,74,0,28,28,10,105.71631733299728,,,,,,,,,,,,,,,,,,,,,,,,,,,,,,,,,,,,,,,,,,,,,,,,,,,,,,105.69079020799836,105.71631733299728,105.71631733299728,105.71631733299728,105.71631733299728,105.72370491633095,105.71631733299728,105.71631733299728,105.71631733299728,105.8343530830025,صحیح است,7,29,1,0.10907887500070501,None,105.8383803329998,105.84919079099927,107.83414679099951,107.83415620800224,107.83417558299698,107.8594585000028,,739407,001,2024-08-02_15h21.28.142,5-34 ready-monolingual persian speaker,2024.1.5,None,2024-08-02 15h21.32.579466 +0900,
Images/Speaker1.jpg,Images/Speaker2.jpg,Images/Speaker3.jpg,Images/Speaker4.jpg,Audio/Speaker2_Per/P2-8-Per.wav,Speaker2,گوینده۲,0,0,0,74,0,29,29,27,107.8594585000028,,,,,,,,,,,,,,,,,,,,,,,,,,,,,,,,,,,,,,,,,,,,,,,,,,,,,,107.83434241599753,107.8594585000028,107.8594585000028,107.8594585000028,107.8594585000028,107.86724958333119,107.8594585000028,107.8594585000028,107.8594585000028,108.02622416600207,نادرست! پاسخ صحیح گوینده۲ است,7,30,1,None,None,108.03006275000371,108.03926791599952,110.02297366600396,110.02298287500162,110.0230005830017,110.04877404100262,,739407,001,2024-08-02_15h21.28.142,5-34 ready-monolingual persian speaker,2024.1.5,None,2024-08-02 15h21.32.579466 +0900,
Images/Speaker1.jpg,Images/Speaker2.jpg,Images/Speaker3.jpg,Images/Speaker4.jpg,Audio/Speaker3_Per/P3-14-Per.wav,Speaker3,گوینده۳,0,0,0,74,0,30,30,53,110.04877404100262,,,,,,,,,,,,,,,,,,,,,,,,,,,,,,,,,,,,,,,,,,,,,,,,,,,,,,110.02316666600382,110.04877404100262,110.04877404100262,110.04877404100262,110.04877404100262,110.0561038743331,110.04877404100262,110.04877404100262,110.04877404100262,110.42786375000287,نادرست! پاسخ صحیح گوینده۳ است,7,31,1,0.3769680410041474,None,110.43191145799938,110.44314795800165,112.43733116600197,112.43736129099852,112.43742429099802,,,739407,001,2024-08-02_15h21.28.142,5-34 ready-monolingual persian speaker,2024.1.5,None,2024-08-02 15h21.32.579466 +0900,
Images/Speaker1.jpg,Images/Speaker2.jpg,Images/Speaker3.jpg,Images/Speaker4.jpg,Audio/Speaker4_Per/P4-10-Per.wav,Speaker4,گوینده۴,0,0,0,74,0,31,31,69,112.46401141599927,,,,,,,,,,,,,,,,,,,,,,,,,,,,,,,,,,,,,,,,,,,,,,,,,,,,,,112.4380657080037,112.46401141599927,112.46401141599927,112.46401141599927,112.46401141599927,112.47050754133718,112.46401141599927,112.46401141599927,112.46401141599927,112.68353941600071,نادرست! پاسخ صحیح گوینده۴ است,7,32,1,0.2185826250060927,None,112.68742383299832,112.69866120799998,114.68479300000035,114.68480258299678,114.68482349999977,114.71068654100236,,739407,001,2024-08-02_15h21.28.142,5-34 ready-monolingual persian speaker,2024.1.5,None,2024-08-02 15h21.32.579466 +0900,
Images/Speaker1.jpg,Images/Speaker2.jpg,Images/Speaker3.jpg,Images/Speaker4.jpg,Audio/Speaker3_Per/P3-18-Per.wav,Speaker3,گوینده۳,0,0,0,74,0,32,32,57,114.71068654100236,,,,,,,,,,,,,,,,,,,,,,,,,,,,,,,,,,,,,,,,,,,,,,,,,,,,,,114.68499470799725,114.71068654100236,114.71068654100236,114.71068654100236,114.71068654100236,114.71784812433228,114.71068654100236,114.71068654100236,114.71068654100236,114.99389008300204,نادرست! پاسخ صحیح گوینده۳ است,7,33,1,0.28010141699633095,None,114.99808787499933,115.00961395799823,117.00172308299807,117.00173158299731,117.00174987500213,,,739407,001,2024-08-02_15h21.28.142,5-34 ready-monolingual persian speaker,2024.1.5,None,2024-08-02 15h21.32.579466 +0900,
Images/Speaker1.jpg,Images/Speaker2.jpg,Images/Speaker3.jpg,Images/Speaker4.jpg,Audio/Speaker4_Per/P4-19-Per.wav,Speaker4,گوینده۴,0,0,0,74,0,33,33,78,117.0258739580022,,,,,,,,,,,,,,,,,,,,,,,,,,,,,,,,,,,,,,,,,,,,,,,,,,,,,,117.00192704099754,117.0258739580022,117.0258739580022,117.0258739580022,117.0258739580022,117.03501883333277,117.0258739580022,117.0258739580022,117.0258739580022,117.2516695000013,نادرست! پاسخ صحیح گوینده۴ است,7,34,1,0.21274891699431464,None,117.25561325000308,117.26403562499763,119.25968470799853,119.25971179099724,119.25977920799778,,,739407,001,2024-08-02_15h21.28.142,5-34 ready-monolingual persian speaker,2024.1.5,None,2024-08-02 15h21.32.579466 +0900,
Images/Speaker1.jpg,Images/Speaker2.jpg,Images/Speaker3.jpg,Images/Speaker4.jpg,Audio/Speaker2_Per/P2-12-Per.wav,Speaker2,گوینده۲,0,0,0,74,0,34,34,31,119.28776112500054,,,,,,,,,,,,,,,,,,,,,,,,,,,,,,,,,,,,,,,,,,,,,,,,,,,,,,119.26047537499835,119.28776112500054,119.28776112500054,119.28776112500054,119.28776112500054,119.29282416633262,119.28776112500054,119.28776112500054,119.28776112500054,119.54832333300146,نادرست! پاسخ صحیح گوینده۲ است,7,35,1,0.2521485830002348,None,119.5524821250001,119.56079262500134,121.55440737499885,121.55441495800187,121.55443316599849,,,739407,001,2024-08-02_15h21.28.142,5-34 ready-monolingual persian speaker,2024.1.5,None,2024-08-02 15h21.32.579466 +0900,
Images/Speaker1.jpg,Images/Speaker2.jpg,Images/Speaker3.jpg,Images/Speaker4.jpg,Audio/Speaker2_Per/P2-16-Per.wav,Speaker2,گوینده۲,0,0,0,74,0,35,35,35,121.57765266599745,,,,,,,,,,,,,,,,,,,,,,,,,,,,,,,,,,,,,,,,,,,,,,,,,,,,,,121.55458575000375,121.57765266599745,121.57765266599745,121.57765266599745,121.57765266599745,121.57104074967016,121.57765266599745,121.57765266599745,121.57765266599745,122.0576798330003,نادرست! پاسخ صحیح گوینده۲ است,7,36,1,0.4756387919987901,None,122.06195279100211,122.07306929100014,124.06208587499714,124.06209391599987,124.06211270800122,,,739407,001,2024-08-02_15h21.28.142,5-34 ready-monolingual persian speaker,2024.1.5,None,2024-08-02 15h21.32.579466 +0900,
Images/Speaker1.jpg,Images/Speaker2.jpg,Images/Speaker3.jpg,Images/Speaker4.jpg,Audio/Speaker4_Per/P4-6-Per.wav,Speaker4,گوینده۴,0,0,0,74,0,36,36,65,124.08645024999714,,,,,,,,,,,,,,,,,,,,,,,,,,,,,,,,,,,,,,,,,,,,,,,,,,,,,,124.06226574999891,124.08645024999714,124.08645024999714,124.08645024999714,124.08645024999714,124.09538579133417,124.08645024999714,124.08645024999714,124.08645024999714,124.47458400000323,نادرست! پاسخ صحیح گوینده۴ است,7,37,1,0.37953916700644186,None,124.47842529100308,124.48711437499878,126.47116016600194,126.47117199999775,126.47119158299756,126.4980873329987,,739407,001,2024-08-02_15h21.28.142,5-34 ready-monolingual persian speaker,2024.1.5,None,2024-08-02 15h21.32.579466 +0900,
Images/Speaker1.jpg,Images/Speaker2.jpg,Images/Speaker3.jpg,Images/Speaker4.jpg,Audio/Speaker1_Per/P1-13-Per.wav,Speaker1,گوینده ۱,0,0,0,74,0,37,37,12,126.4980873329987,,,,,,,,,,,,,,,,,,,,,,,,,,,,,,,,,,,,,,,,,,,,,,,,,,,,,,126.47135816600348,126.4980873329987,126.4980873329987,126.4980873329987,126.4980873329987,126.50428983333452,126.4980873329987,126.4980873329987,126.4980873329987,127.39861962499708,صحیح است,8,38,1,0.8972208330014837,None,127.40256195799884,127.41302779100079,129.40318316600315,129.40320566599985,129.403250166004,129.42916541599698,,739407,001,2024-08-02_15h21.28.142,5-34 ready-monolingual persian speaker,2024.1.5,None,2024-08-02 15h21.32.579466 +0900,
Images/Speaker1.jpg,Images/Speaker2.jpg,Images/Speaker3.jpg,Images/Speaker4.jpg,Audio/Speaker1_Per/P1-3-Per.wav,Speaker1,گوینده ۱,0,0,0,74,0,38,38,2,129.42916541599698,,,,,,,,,,,,,,,,,,,,,,,,,,,,,,,,,,,,,,,,,,,,,,,,,,,,,,129.40388125000027,129.42916541599698,129.42916541599698,129.42916541599698,129.42916541599698,129.43572345833724,129.42916541599698,129.42916541599698,129.42916541599698,130.8310363749988,صحیح است,9,39,1,1.398520707996795,None,130.83502287499869,130.84599229099695,132.82929316600348,132.82930133300397,132.8293249999988,132.85414212499745,,739407,001,2024-08-02_15h21.28.142,5-34 ready-monolingual persian speaker,2024.1.5,None,2024-08-02 15h21.32.579466 +0900,
Images/Speaker1.jpg,Images/Speaker2.jpg,Images/Speaker3.jpg,Images/Speaker4.jpg,Audio/Speaker2_Per/P2-4-Per.wav,Speaker2,گوینده۲,0,0,0,74,0,39,39,23,132.85414212499745,,,,,,,,,,,,,,,,,,,,,,,,,,,,,,,,,,,,,,,,,,,,,,,,,,,,,,132.82947866599716,132.85414212499745,132.85414212499745,132.85414212499745,132.85414212499745,132.86239720833015,132.85414212499745,132.85414212499745,132.85414212499745,135.35083850000228,صحیح است,10,40,2,2.494787625000754,None,135.35479758300062,135.36564841600193,137.35223429100006,137.35224458300218,137.35501625000325,137.38160570800392,,739407,001,2024-08-02_15h21.28.142,5-34 ready-monolingual persian speaker,2024.1.5,None,2024-08-02 15h21.32.579466 +0900,
Images/Speaker1.jpg,Images/Speaker2.jpg,Images/Speaker3.jpg,Images/Speaker4.jpg,Audio/Speaker1_Per/P1-1-Per.wav,Speaker1,گوینده ۱,0,0,0,74,0,40,40,0,137.38160570800392,,,,,,,,,,,,,,,,,,,,,,,,,,,,,,,,,,,,,,,,,,,,,,,,,,,,,,137.35522974999913,137.38160570800392,137.38160570800392,137.38160570800392,137.38160570800392,137.38533666633208,137.38160570800392,137.38160570800392,137.38160570800392,137.3734303329984,صحیح است,10,40,None,,,137.3737217079979,137.38160570800392,139.36992866599758,139.36993675000122,139.3742062079982,139.374010790998,139.374010790998,739407,001,2024-08-02_15h21.28.142,5-34 ready-monolingual persian speaker,2024.1.5,None,2024-08-02 15h21.32.579466 +0900,
,,,,,,,,,,,,,,,139.39407300000312,,,,,,,,,,,,,,,,,,,,,,,,,,,,,,,,,,,,,,,,,,,,,,,,,,,,,,139.37438570799713,141.37127454100118,141.37127454100118,141.37127454100118,141.37127454100118,,141.37127454100118,141.37127454100118,141.37127454100118,,,,,,,,,,,,,,,,,,,,,,
