SpeakerImage1,SpeakerImage2,SpeakerImage3,SpeakerImage4,TrainingSound,EnglishCorrectAnswer,PersianCorrectAnswer,TrainingLoopGroup1.thisRepN,TrainingLoopGroup1.thisTrialN,TrainingLoopGroup1.thisN,TrainingLoopGroup1.thisIndex,TrainingLoopGroup2.thisRepN,TrainingLoopGroup2.thisTrialN,TrainingLoopGroup2.thisN,TrainingLoopGroup2.thisIndex,Repeat_TrainingLoopGroup3.thisRepN,Repeat_TrainingLoopGroup3.thisTrialN,Repeat_TrainingLoopGroup3.thisN,Repeat_TrainingLoopGroup3.thisIndex,TrainingLoopGroup3.thisRepN,TrainingLoopGroup3.thisTrialN,TrainingLoopGroup3.thisN,TrainingLoopGroup3.thisIndex,thisRow.t,notes,trial.started,trial.stopped,GroupSelection.started,GroupInstructions.started,key_resp.started,GroupSelection.stopped,key_resp.keys,key_resp.rt,key_resp.duration,Introduction.started,text_2.started,image.started,sound_7.started,text_4.started,text_2.stopped,sound_8.started,image.stopped,text_4.stopped,image_7.started,sound_9.started,text_5.started,sound_10.started,image_7.stopped,text_5.stopped,image_8.started,sound_11.started,text_6.started,sound_12.started,image_8.stopped,text_6.stopped,image_9.started,sound_13.started,text_7.started,sound_14.started,image_9.stopped,text_7.stopped,Introduction.stopped,Instructions.started,InstructionText.started,InstructionText.stopped,Instructions.stopped,InitializeExperiment.started,InitializeExperiment.stopped,TrainingGroup3.started,SpeakerPicture3.started,image_15.started,image_16.started,image_17.started,Sound3.started,Instruction3.started,Response3.started,TrainingGroup3.stopped,feedbackText,correct_responses_group3,total_trials_group3,Response3.keys,Response3.rt,Response3.duration,FeedbackRoutine3.started,FeedbackText3.started,FeedbackRoutine3.stopped,FeedbackText3.stopped,CheckAccuracy3.started,accuracy_group3,proceed_to_test_group3,CheckAccuracy3.stopped,participant,session,date,expName,psychopyVersion,frameRate,expStart,
,,,,,,,,,,,,,,,,,,,,,,,,,0.009325625000201399,0.009632459000386007,,,,,,,,,,,,,,,,,,,,,,,,,,,,,,,,,,,,,,,,,,,,,,,,,,,,,,,,,,,,,,,,,784836,001,2024-07-01_18h15.50.825,5-26,2024.1.4,None,2024-07-01 18h15.55.827796 +0900,
,,,,,,,,,,,,,,,,,,,,,,,,,,,0.00964650000059919,0.014176292000229296,0.014176292000229296,0.6441039589999491,3,0.5944238339998265,None,,,,,,,,,,,,,,,,,,,,,,,,,,,,,,,,,,,,,,,,,,,,,,,,,,,,,,,,,,784836,001,2024-07-01_18h15.50.825,5-26,2024.1.4,None,2024-07-01 18h15.55.827796 +0900,
,,,,,,,,,,,,,,,,,,,,,,,,,,,,,,,,,,0.6441320420008196,0.695763500000794,5.643807459000527,5.650452291666867,5.643807459000527,5.690131416999975,10.643792916667069,15.639288625000518,15.639288625000518,15.639288625000518,15.648823666666674,15.639288625000518,20.655000083667133,25.626670667000326,25.626670667000326,25.639810042000136,25.64333733366699,25.639810042000136,30.64617433366699,35.63064237500021,35.63064237500021,35.63780187500015,35.64730904166687,35.63780187500015,40.648509291666656,45.628733500000635,45.628733500000635,45.624811417000274,,,,,,,,,,,,,,,,,,,,,,,,,,,,,,784836,001,2024-07-01_18h15.50.825,5-26,2024.1.4,None,2024-07-01 18h15.55.827796 +0900,
,,,,,,,,,,,,,,,,,,,,,,,,,,,,,,,,,,,,,,,,,,,,,,,,,,,,,,,,,,,,,,45.62485483399996,45.64171925000028,46.72785120900062,46.63075862500045,,,,,,,,,,,,,,,,,,,,,,,,,,784836,001,2024-07-01_18h15.50.825,5-26,2024.1.4,None,2024-07-01 18h15.55.827796 +0900,
,,,,,,,,,,,,,,,,,,,,,,,,,,,,,,,,,,,,,,,,,,,,,,,,,,,,,,,,,,,,,,,,,,46.630770459000814,46.630921124999986,,,,,,,,,,,,,,,,,,,,,,,,784836,001,2024-07-01_18h15.50.825,5-26,2024.1.4,None,2024-07-01 18h15.55.827796 +0900,
Images/Speaker1.jpg,Images/Speaker2.jpg,Images/Speaker3.jpg,Images/Speaker4.jpg,Audio/Speaker2_En/P2-20-En.wav,Speaker2,گوینده۲,,,,,,,,,0,0,0,19,0,0,0,39,46.72785120900062,,,,,,,,,,,,,,,,,,,,,,,,,,,,,,,,,,,,,,,,,,,,,46.702648959000726,46.72785120900062,46.72785120900062,46.72785120900062,46.72785120900062,46.73057295900035,46.72785120900062,46.72785120900062,49.50551766700028,Incorrect! The correct answer is Speaker2. نادرست! پاسخ صحیح گوینده۲ است,0,2,1,2.774578833000305,None,49.50593145900075,49.51931175000027,51.508082459000434,,,,,,784836,001,2024-07-01_18h15.50.825,5-26,2024.1.4,None,2024-07-01 18h15.55.827796 +0900,
Images/Speaker1.jpg,Images/Speaker2.jpg,Images/Speaker3.jpg,Images/Speaker4.jpg,Audio/Speaker3_En/P3-14-En.wav,Speaker3,گوینده۳,,,,,,,,,0,0,0,19,0,1,1,53,51.52971183400041,,,,,,,,,,,,,,,,,,,,,,,,,,,,,,,,,,,,,,,,,,,,,51.50824391700007,51.52971183400041,51.52971183400041,51.52971183400041,51.52971183400041,51.52471800066748,51.52971183400041,51.52971183400041,52.88126937500056,Incorrect! The correct answer is Speaker3. نادرست! پاسخ صحیح گوینده۳ است,0,4,1,1.3498116249993473,None,52.885317084000235,52.90465179200055,54.89039150000008,,,,,,784836,001,2024-07-01_18h15.50.825,5-26,2024.1.4,None,2024-07-01 18h15.55.827796 +0900,
Images/Speaker1.jpg,Images/Speaker2.jpg,Images/Speaker3.jpg,Images/Speaker4.jpg,Audio/Speaker3_En/P3-1-En.wav,Speaker3,گوینده۳,,,,,,,,,0,0,0,19,0,2,2,40,54.91459070900055,,,,,,,,,,,,,,,,,,,,,,,,,,,,,,,,,,,,,,,,,,,,,54.89102450000064,54.91459070900055,54.91459070900055,54.91459070900055,54.91459070900055,54.92355666733377,54.91459070900055,54.91459070900055,55.5145569590004,Incorrect! The correct answer is Speaker3. نادرست! پاسخ صحیح گوینده۳ است,0,6,1,0.5973266669998338,None,55.51862025000082,55.53146329200081,57.5175515840001,57.539267542000744,,,,,784836,001,2024-07-01_18h15.50.825,5-26,2024.1.4,None,2024-07-01 18h15.55.827796 +0900,
Images/Speaker1.jpg,Images/Speaker2.jpg,Images/Speaker3.jpg,Images/Speaker4.jpg,Audio/Speaker4_En/P4-11-En.wav,Speaker4,گوینده۴,,,,,,,,,0,0,0,19,0,3,3,70,57.539267542000744,,,,,,,,,,,,,,,,,,,,,,,,,,,,,,,,,,,,,,,,,,,,,57.51771891700082,57.539267542000744,57.539267542000744,57.539267542000744,57.539267542000744,57.53398750066687,57.539267542000744,57.539267542000744,57.69476458400004,Incorrect! The correct answer is Speaker4. نادرست! پاسخ صحیح گوینده۴ است,0,8,1,0.15297066699986317,None,57.69859416700001,57.71100320900041,59.6959283340002,59.71781433400065,,,,,784836,001,2024-07-01_18h15.50.825,5-26,2024.1.4,None,2024-07-01 18h15.55.827796 +0900,
Images/Speaker1.jpg,Images/Speaker2.jpg,Images/Speaker3.jpg,Images/Speaker4.jpg,Audio/Speaker3_En/P3-16-En.wav,Speaker3,گوینده۳,,,,,,,,,0,0,0,19,0,4,4,55,59.71781433400065,,,,,,,,,,,,,,,,,,,,,,,,,,,,,,,,,,,,,,,,,,,,,59.696102709000115,59.71781433400065,59.71781433400065,59.71781433400065,59.71781433400065,59.71238741666663,59.71781433400065,59.71781433400065,59.890652292000595,Incorrect! The correct answer is Speaker3. نادرست! پاسخ صحیح گوینده۳ است,0,10,1,0.15993824999986828,None,59.895873625000604,59.91010729200025,61.89763920900077,,,,,,784836,001,2024-07-01_18h15.50.825,5-26,2024.1.4,None,2024-07-01 18h15.55.827796 +0900,
Images/Speaker1.jpg,Images/Speaker2.jpg,Images/Speaker3.jpg,Images/Speaker4.jpg,Audio/Speaker1_En/P1-15-En.wav,Speaker1,گوینده ۱,,,,,,,,,0,0,0,19,0,5,5,14,61.91897670900016,,,,,,,,,,,,,,,,,,,,,,,,,,,,,,,,,,,,,,,,,,,,,61.89781370900073,61.91897670900016,61.91897670900016,61.91897670900016,61.91897670900016,61.91424858366669,61.91897670900016,61.91897670900016,62.01229358399996,Correct! صحیح است,0,12,1,0.08958516700022301,None,62.01647616700029,62.02794216700022,64.01110633400003,64.03203866700005,,,,,784836,001,2024-07-01_18h15.50.825,5-26,2024.1.4,None,2024-07-01 18h15.55.827796 +0900,
Images/Speaker1.jpg,Images/Speaker2.jpg,Images/Speaker3.jpg,Images/Speaker4.jpg,Audio/Speaker2_En/P2-9-En.wav,Speaker2,گوینده۲,,,,,,,,,0,0,0,19,0,6,6,28,64.03203866700005,,,,,,,,,,,,,,,,,,,,,,,,,,,,,,,,,,,,,,,,,,,,,64.0112959170001,64.03203866700005,64.03203866700005,64.03203866700005,64.03203866700005,64.02756945866737,64.03203866700005,64.03203866700005,64.03264050000053,Incorrect! The correct answer is Speaker2. نادرست! پاسخ صحیح گوینده۲ است,0,14,1,2.052903167000295,None,64.03669658400031,64.04700320900065,66.04091779200007,,,,,,784836,001,2024-07-01_18h15.50.825,5-26,2024.1.4,None,2024-07-01 18h15.55.827796 +0900,
Images/Speaker1.jpg,Images/Speaker2.jpg,Images/Speaker3.jpg,Images/Speaker4.jpg,Audio/Speaker1_En/P1-13-En.wav,Speaker1,گوینده ۱,,,,,,,,,0,0,0,19,0,7,7,12,66.06628054200064,,,,,,,,,,,,,,,,,,,,,,,,,,,,,,,,,,,,,,,,,,,,,66.04158895900036,66.06628054200064,66.06628054200064,66.06628054200064,66.06628054200064,66.07404775033368,66.06628054200064,66.06628054200064,66.17269491700063,Correct! صحیح است,0,16,1,0.10231225000006816,None,66.17642954200073,66.18704950000028,68.18149100000028,,,,,,784836,001,2024-07-01_18h15.50.825,5-26,2024.1.4,None,2024-07-01 18h15.55.827796 +0900,
Images/Speaker1.jpg,Images/Speaker2.jpg,Images/Speaker3.jpg,Images/Speaker4.jpg,Audio/Speaker1_En/P1-9-En.wav,Speaker1,گوینده ۱,,,,,,,,,0,0,0,19,0,8,8,8,68.2035888750006,,,,,,,,,,,,,,,,,,,,,,,,,,,,,,,,,,,,,,,,,,,,,68.18213266700059,68.2035888750006,68.2035888750006,68.2035888750006,68.2035888750006,68.19795400066711,68.2035888750006,68.2035888750006,68.20417966700006,Correct! صحیح است,0,18,1,2.007425291999425,None,68.20799258400075,68.21585412500008,70.19944312500047,70.22247112500008,,,,,784836,001,2024-07-01_18h15.50.825,5-26,2024.1.4,None,2024-07-01 18h15.55.827796 +0900,
Images/Speaker1.jpg,Images/Speaker2.jpg,Images/Speaker3.jpg,Images/Speaker4.jpg,Audio/Speaker4_En/P4-19-En.wav,Speaker4,گوینده۴,,,,,,,,,0,0,0,19,0,9,9,78,70.22247112500008,,,,,,,,,,,,,,,,,,,,,,,,,,,,,,,,,,,,,,,,,,,,,70.20010404200002,70.22247112500008,70.22247112500008,70.22247112500008,70.22247112500008,70.23185254233388,70.22247112500008,70.22247112500008,70.27160045900018,Incorrect! The correct answer is Speaker4. نادرست! پاسخ صحیح گوینده۴ است,0,20,1,0.04577320799944573,None,70.27553675000036,70.28828433400031,72.27385112499996,72.29483583399997,,,,,784836,001,2024-07-01_18h15.50.825,5-26,2024.1.4,None,2024-07-01 18h15.55.827796 +0900,
Images/Speaker1.jpg,Images/Speaker2.jpg,Images/Speaker3.jpg,Images/Speaker4.jpg,Audio/Speaker4_En/P4-13-En.wav,Speaker4,گوینده۴,,,,,,,,,0,0,0,19,0,10,10,72,72.29483583399997,,,,,,,,,,,,,,,,,,,,,,,,,,,,,,,,,,,,,,,,,,,,,72.27404916700016,72.29483583399997,72.29483583399997,72.29483583399997,72.29483583399997,72.29031375066667,72.29483583399997,72.29483583399997,72.38347341700046,Incorrect! The correct answer is Speaker4. نادرست! پاسخ صحیح گوینده۴ است,0,22,1,0.07776758399995742,None,72.38739058400006,72.39998791700054,74.3894851670002,,,,,,784836,001,2024-07-01_18h15.50.825,5-26,2024.1.4,None,2024-07-01 18h15.55.827796 +0900,
Images/Speaker1.jpg,Images/Speaker2.jpg,Images/Speaker3.jpg,Images/Speaker4.jpg,Audio/Speaker4_En/P4-12-En.wav,Speaker4,گوینده۴,,,,,,,,,0,0,0,19,0,11,11,71,74.41038516700064,,,,,,,,,,,,,,,,,,,,,,,,,,,,,,,,,,,,,,,,,,,,,74.3896567920001,74.41038516700064,74.41038516700064,74.41038516700064,74.41038516700064,74.40611541666682,74.41038516700064,74.41038516700064,74.41094479200001,Incorrect! The correct answer is Speaker4. نادرست! پاسخ صحیح گوینده۴ است,0,24,1,2.0693422499998633,None,74.4148874170005,74.42532795900024,76.41196308400049,76.4368140000006,,,,,784836,001,2024-07-01_18h15.50.825,5-26,2024.1.4,None,2024-07-01 18h15.55.827796 +0900,
Images/Speaker1.jpg,Images/Speaker2.jpg,Images/Speaker3.jpg,Images/Speaker4.jpg,Audio/Speaker2_En/P2-4-En.wav,Speaker2,گوینده۲,,,,,,,,,0,0,0,19,0,12,12,23,76.4368140000006,,,,,,,,,,,,,,,,,,,,,,,,,,,,,,,,,,,,,,,,,,,,,76.41215166700022,76.4368140000006,76.4368140000006,76.4368140000006,76.4368140000006,76.4284047916674,76.4368140000006,76.4368140000006,76.43745475000014,Incorrect! The correct answer is Speaker2. نادرست! پاسخ صحیح گوینده۲ است,0,26,1,2.0107072080008948,None,76.44148012500045,76.45125350000035,78.43534187500063,78.45637566700043,,,,,784836,001,2024-07-01_18h15.50.825,5-26,2024.1.4,None,2024-07-01 18h15.55.827796 +0900,
Images/Speaker1.jpg,Images/Speaker2.jpg,Images/Speaker3.jpg,Images/Speaker4.jpg,Audio/Speaker4_En/P4-5-En.wav,Speaker4,گوینده۴,,,,,,,,,0,0,0,19,0,13,13,64,78.45637566700043,,,,,,,,,,,,,,,,,,,,,,,,,,,,,,,,,,,,,,,,,,,,,78.43551295900033,78.45637566700043,78.45637566700043,78.45637566700043,78.45637566700043,78.45181925066687,78.45637566700043,78.45637566700043,78.54603104200032,Incorrect! The correct answer is Speaker4. نادرست! پاسخ صحیح گوینده۴ است,0,28,1,0.0848444590001236,None,78.55021929200029,78.56308720900051,80.5520457090006,,,,,,784836,001,2024-07-01_18h15.50.825,5-26,2024.1.4,None,2024-07-01 18h15.55.827796 +0900,
Images/Speaker1.jpg,Images/Speaker2.jpg,Images/Speaker3.jpg,Images/Speaker4.jpg,Audio/Speaker1_En/P1-4-En.wav,Speaker1,گوینده ۱,,,,,,,,,0,0,0,19,0,14,14,13,80.57722391700008,,,,,,,,,,,,,,,,,,,,,,,,,,,,,,,,,,,,,,,,,,,,,80.55273320900051,80.57722391700008,80.57722391700008,80.57722391700008,80.57722391700008,80.58521183333372,80.57722391700008,80.57722391700008,80.61366708400055,Correct! صحیح است,0,30,1,0.030682625000736152,None,80.61773670900038,80.62812666700029,82.62493545899997,,,,,,784836,001,2024-07-01_18h15.50.825,5-26,2024.1.4,None,2024-07-01 18h15.55.827796 +0900,
Images/Speaker1.jpg,Images/Speaker2.jpg,Images/Speaker3.jpg,Images/Speaker4.jpg,Audio/Speaker2_En/P2-19-En.wav,Speaker2,گوینده۲,,,,,,,,,0,0,0,19,0,15,15,38,82.64745416700043,,,,,,,,,,,,,,,,,,,,,,,,,,,,,,,,,,,,,,,,,,,,,82.62546020900027,82.64745416700043,82.64745416700043,82.64745416700043,82.64745416700043,82.64155483366746,82.64745416700043,82.64745416700043,82.67969358400023,Incorrect! The correct answer is Speaker2. نادرست! پاسخ صحیح گوینده۲ است,0,32,1,0.028905417000714806,None,82.68375683400063,82.69621854200068,84.69016783400002,,,,,,784836,001,2024-07-01_18h15.50.825,5-26,2024.1.4,None,2024-07-01 18h15.55.827796 +0900,
Images/Speaker1.jpg,Images/Speaker2.jpg,Images/Speaker3.jpg,Images/Speaker4.jpg,Audio/Speaker3_En/P3-3-En.wav,Speaker3,گوینده۳,,,,,,,,,0,0,0,19,0,16,16,42,84.71273400000064,,,,,,,,,,,,,,,,,,,,,,,,,,,,,,,,,,,,,,,,,,,,,84.69090170900017,84.71273400000064,84.71273400000064,84.71273400000064,84.71273400000064,84.72332925033382,84.71273400000064,84.71273400000064,84.77432545900047,Incorrect! The correct answer is Speaker3. نادرست! پاسخ صحیح گوینده۳ است,0,34,1,0.05077925000023242,None,84.77838679200067,84.79106558400053,86.77504854200015,86.79718758400031,,,,,784836,001,2024-07-01_18h15.50.825,5-26,2024.1.4,None,2024-07-01 18h15.55.827796 +0900,
Images/Speaker1.jpg,Images/Speaker2.jpg,Images/Speaker3.jpg,Images/Speaker4.jpg,Audio/Speaker4_En/P4-3-En.wav,Speaker4,گوینده۴,,,,,,,,,0,0,0,19,0,17,17,62,86.79718758400031,,,,,,,,,,,,,,,,,,,,,,,,,,,,,,,,,,,,,,,,,,,,,86.77525470900036,86.79718758400031,86.79718758400031,86.79718758400031,86.79718758400031,86.79141316666689,86.79718758400031,86.79718758400031,87.13877654200041,Incorrect! The correct answer is Speaker4. نادرست! پاسخ صحیح گوینده۴ است,0,36,1,0.3389535000005708,None,87.14281570900039,87.1551209170002,89.14152612500038,89.16374254200036,,,,,784836,001,2024-07-01_18h15.50.825,5-26,2024.1.4,None,2024-07-01 18h15.55.827796 +0900,
Images/Speaker1.jpg,Images/Speaker2.jpg,Images/Speaker3.jpg,Images/Speaker4.jpg,Audio/Speaker3_En/P3-4-En.wav,Speaker3,گوینده۳,,,,,,,,,0,0,0,19,0,18,18,43,89.16374254200036,,,,,,,,,,,,,,,,,,,,,,,,,,,,,,,,,,,,,,,,,,,,,89.14170637500047,89.16374254200036,89.16374254200036,89.16374254200036,89.16374254200036,89.15788045866726,89.16374254200036,89.16374254200036,89.16432958400037,Incorrect! The correct answer is Speaker3. نادرست! پاسخ صحیح گوینده۳ است,0,38,1,2.3211501249998037,None,89.16840150000007,89.17764341700058,91.16471766700033,91.18562341699999,,,,,784836,001,2024-07-01_18h15.50.825,5-26,2024.1.4,None,2024-07-01 18h15.55.827796 +0900,
Images/Speaker1.jpg,Images/Speaker2.jpg,Images/Speaker3.jpg,Images/Speaker4.jpg,Audio/Speaker2_En/P2-6-En.wav,Speaker2,گوینده۲,,,,,,,,,0,0,0,19,0,19,19,25,91.18562341699999,,,,,,,,,,,,,,,,,,,,,,,,,,,,,,,,,,,,,,,,,,,,,91.16488991700044,91.18562341699999,91.18562341699999,91.18562341699999,91.18562341699999,91.18112737566686,91.18562341699999,91.18562341699999,91.31950750000033,Incorrect! The correct answer is Speaker2. نادرست! پاسخ صحیح گوینده۲ است,0,40,1,None,None,91.32381200000054,91.33392950000052,93.31884537500082,93.34005650000017,,,,,784836,001,2024-07-01_18h15.50.825,5-26,2024.1.4,None,2024-07-01 18h15.55.827796 +0900,
Images/Speaker1.jpg,Images/Speaker2.jpg,Images/Speaker3.jpg,Images/Speaker4.jpg,Audio/Speaker2_En/P2-5-En.wav,Speaker2,گوینده۲,,,,,,,,,0,0,0,19,0,20,20,24,93.34005650000017,,,,,,,,,,,,,,,,,,,,,,,,,,,,,,,,,,,,,,,,,,,,,93.31902391700078,93.34005650000017,93.34005650000017,93.34005650000017,93.34005650000017,93.33520508366679,93.34005650000017,93.34005650000017,93.3461977500001,Incorrect! The correct answer is Speaker2. نادرست! پاسخ صحیح گوینده۲ است,0,42,1,0.004492500000196742,None,93.35024387500016,93.3626690000001,95.35098208399995,95.37628008400043,,,,,784836,001,2024-07-01_18h15.50.825,5-26,2024.1.4,None,2024-07-01 18h15.55.827796 +0900,
Images/Speaker1.jpg,Images/Speaker2.jpg,Images/Speaker3.jpg,Images/Speaker4.jpg,Audio/Speaker2_En/P2-11-En.wav,Speaker2,گوینده۲,,,,,,,,,0,0,0,19,0,21,21,30,95.37628008400043,,,,,,,,,,,,,,,,,,,,,,,,,,,,,,,,,,,,,,,,,,,,,95.3519596670003,95.37628008400043,95.37628008400043,95.37628008400043,95.37628008400043,95.3833963333341,95.37628008400043,95.37628008400043,95.37684295899999,Incorrect! The correct answer is Speaker2. نادرست! پاسخ صحیح گوینده۲ است,0,44,1,1.972586875000161,None,95.377147917,95.38714849999997,97.37449000000015,97.3953516670008,,,,,784836,001,2024-07-01_18h15.50.825,5-26,2024.1.4,None,2024-07-01 18h15.55.827796 +0900,
Images/Speaker1.jpg,Images/Speaker2.jpg,Images/Speaker3.jpg,Images/Speaker4.jpg,Audio/Speaker1_En/P1-12-En.wav,Speaker1,گوینده ۱,,,,,,,,,0,0,0,19,0,22,22,11,97.3953516670008,,,,,,,,,,,,,,,,,,,,,,,,,,,,,,,,,,,,,,,,,,,,,97.37467616699996,97.3953516670008,97.3953516670008,97.3953516670008,97.3953516670008,97.39088566666693,97.3953516670008,97.3953516670008,97.40172908400018,Correct! صحیح است,0,46,1,0.004551791000267258,None,97.40591937499994,97.41670258400063,99.40144237500044,99.42379312499997,,,,,784836,001,2024-07-01_18h15.50.825,5-26,2024.1.4,None,2024-07-01 18h15.55.827796 +0900,
Images/Speaker1.jpg,Images/Speaker2.jpg,Images/Speaker3.jpg,Images/Speaker4.jpg,Audio/Speaker3_En/P3-6-En.wav,Speaker3,گوینده۳,,,,,,,,,0,0,0,19,0,23,23,45,99.42379312499997,,,,,,,,,,,,,,,,,,,,,,,,,,,,,,,,,,,,,,,,,,,,,99.40160908400048,99.42379312499997,99.42379312499997,99.42379312499997,99.42379312499997,99.41791233366736,99.42379312499997,99.42379312499997,99.55828950000068,Incorrect! The correct answer is Speaker3. نادرست! پاسخ صحیح گوینده۳ است,0,48,1,0.12576637499932986,None,99.56220379200022,99.57467208400067,101.56643816700034,,,,,,784836,001,2024-07-01_18h15.50.825,5-26,2024.1.4,None,2024-07-01 18h15.55.827796 +0900,
Images/Speaker1.jpg,Images/Speaker2.jpg,Images/Speaker3.jpg,Images/Speaker4.jpg,Audio/Speaker1_En/P1-3-En.wav,Speaker1,گوینده ۱,,,,,,,,,0,0,0,19,0,24,24,2,101.59059045899994,,,,,,,,,,,,,,,,,,,,,,,,,,,,,,,,,,,,,,,,,,,,,101.56659750000017,101.59059045899994,101.59059045899994,101.59059045899994,101.59059045899994,101.58307104166694,101.59059045899994,101.59059045899994,101.59118987500005,Correct! صحیح است,0,50,1,2.1344859589999032,None,101.59503141700043,101.60364191700046,103.5875067500001,103.60901333400034,,,,,784836,001,2024-07-01_18h15.50.825,5-26,2024.1.4,None,2024-07-01 18h15.55.827796 +0900,
Images/Speaker1.jpg,Images/Speaker2.jpg,Images/Speaker3.jpg,Images/Speaker4.jpg,Audio/Speaker4_En/P4-1-En.wav,Speaker4,گوینده۴,,,,,,,,,0,0,0,19,0,25,25,60,103.60901333400034,,,,,,,,,,,,,,,,,,,,,,,,,,,,,,,,,,,,,,,,,,,,,103.58772425000006,103.60901333400034,103.60901333400034,103.60901333400034,103.60901333400034,103.60396545866685,103.60901333400034,103.60901333400034,103.69732612500047,Incorrect! The correct answer is Speaker4. نادرست! پاسخ صحیح گوینده۴ است,0,52,1,0.0809092919998875,None,103.70131241700074,103.71402141700037,105.70755366699996,,,,,,784836,001,2024-07-01_18h15.50.825,5-26,2024.1.4,None,2024-07-01 18h15.55.827796 +0900,
Images/Speaker1.jpg,Images/Speaker2.jpg,Images/Speaker3.jpg,Images/Speaker4.jpg,Audio/Speaker4_En/P4-14-En.wav,Speaker4,گوینده۴,,,,,,,,,0,0,0,19,0,26,26,73,105.73005212499993,,,,,,,,,,,,,,,,,,,,,,,,,,,,,,,,,,,,,,,,,,,,,105.7077183750007,105.73005212499993,105.73005212499993,105.73005212499993,105.73005212499993,105.72418033366672,105.73005212499993,105.73005212499993,105.73059191700031,Incorrect! The correct answer is Speaker4. نادرست! پاسخ صحیح گوینده۴ است,0,54,1,2.0556496250001146,None,105.73470250000082,105.74460175000058,107.74198579200038,,,,,,784836,001,2024-07-01_18h15.50.825,5-26,2024.1.4,None,2024-07-01 18h15.55.827796 +0900,
Images/Speaker1.jpg,Images/Speaker2.jpg,Images/Speaker3.jpg,Images/Speaker4.jpg,Audio/Speaker4_En/P4-17-En.wav,Speaker4,گوینده۴,,,,,,,,,0,0,0,19,0,27,27,76,107.76689600000009,,,,,,,,,,,,,,,,,,,,,,,,,,,,,,,,,,,,,,,,,,,,,107.74261254200064,107.76689600000009,107.76689600000009,107.76689600000009,107.76689600000009,107.77515858333348,107.76689600000009,107.76689600000009,107.76753704200019,Incorrect! The correct answer is Speaker4. نادرست! پاسخ صحیح گوینده۴ است,0,56,1,1.9651464999997188,None,107.7678376670001,107.77755308399992,109.76366325000072,109.78461275000063,,,,,784836,001,2024-07-01_18h15.50.825,5-26,2024.1.4,None,2024-07-01 18h15.55.827796 +0900,
Images/Speaker1.jpg,Images/Speaker2.jpg,Images/Speaker3.jpg,Images/Speaker4.jpg,Audio/Speaker3_En/P3-17-En.wav,Speaker3,گوینده۳,,,,,,,,,0,0,0,19,0,28,28,56,109.78461275000063,,,,,,,,,,,,,,,,,,,,,,,,,,,,,,,,,,,,,,,,,,,,,109.76383350000015,109.78461275000063,109.78461275000063,109.78461275000063,109.78461275000063,109.78004854166672,109.78461275000063,109.78461275000063,109.92775508400064,Incorrect! The correct answer is Speaker3. نادرست! پاسخ صحیح گوینده۳ است,0,58,1,0.1398073749996911,None,109.93194241700076,109.9441189170002,111.93539016700015,,,,,,784836,001,2024-07-01_18h15.50.825,5-26,2024.1.4,None,2024-07-01 18h15.55.827796 +0900,
Images/Speaker1.jpg,Images/Speaker2.jpg,Images/Speaker3.jpg,Images/Speaker4.jpg,Audio/Speaker1_En/P1-17-En.wav,Speaker1,گوینده ۱,,,,,,,,,0,0,0,19,0,29,29,16,111.96185712500028,,,,,,,,,,,,,,,,,,,,,,,,,,,,,,,,,,,,,,,,,,,,,111.93600704200071,111.96185712500028,111.96185712500028,111.96185712500028,111.96185712500028,111.96854025033329,111.96185712500028,111.96185712500028,112.01570316700054,Correct! صحیح است,0,60,1,0.05064883300019574,None,112.01944625000033,112.03032616700057,114.01634575000026,114.0410565000002,,,,,784836,001,2024-07-01_18h15.50.825,5-26,2024.1.4,None,2024-07-01 18h15.55.827796 +0900,
Images/Speaker1.jpg,Images/Speaker2.jpg,Images/Speaker3.jpg,Images/Speaker4.jpg,Audio/Speaker1_En/P1-6-En.wav,Speaker1,گوینده ۱,,,,,,,,,0,0,0,19,0,30,30,5,114.0410565000002,,,,,,,,,,,,,,,,,,,,,,,,,,,,,,,,,,,,,,,,,,,,,114.01693675000024,114.0410565000002,114.0410565000002,114.0410565000002,114.0410565000002,114.04865275033401,114.0410565000002,114.0410565000002,114.09034900000006,Correct! صحیح است,0,62,1,0.039723167000374815,None,114.09416170900022,114.10497166700043,116.08967983399998,116.11135987500074,,,,,784836,001,2024-07-01_18h15.50.825,5-26,2024.1.4,None,2024-07-01 18h15.55.827796 +0900,
Images/Speaker1.jpg,Images/Speaker2.jpg,Images/Speaker3.jpg,Images/Speaker4.jpg,Audio/Speaker2_En/P2-14-En.wav,Speaker2,گوینده۲,,,,,,,,,0,0,0,19,0,31,31,33,116.11135987500074,,,,,,,,,,,,,,,,,,,,,,,,,,,,,,,,,,,,,,,,,,,,,116.08985229200061,116.11135987500074,116.11135987500074,116.11135987500074,116.11135987500074,116.10615537566743,116.11135987500074,116.11135987500074,116.1349804170004,Incorrect! The correct answer is Speaker2. نادرست! پاسخ صحیح گوینده۲ است,0,64,1,0.02142416599963326,None,116.13883370900021,116.15226725000048,118.14359220900042,,,,,,784836,001,2024-07-01_18h15.50.825,5-26,2024.1.4,None,2024-07-01 18h15.55.827796 +0900,
Images/Speaker1.jpg,Images/Speaker2.jpg,Images/Speaker3.jpg,Images/Speaker4.jpg,Audio/Speaker1_En/P1-2-En.wav,Speaker1,گوینده ۱,,,,,,,,,0,0,0,19,0,32,32,1,118.16846854200048,,,,,,,,,,,,,,,,,,,,,,,,,,,,,,,,,,,,,,,,,,,,,118.14419470900066,118.16846854200048,118.16846854200048,118.16846854200048,118.16846854200048,118.17675516733337,118.16846854200048,118.16846854200048,118.19424783400063,Correct! صحیح است,0,66,1,0.02403425000011339,None,118.1985295000004,118.20935841700066,120.1974703750002,120.21830975000012,,,,,784836,001,2024-07-01_18h15.50.825,5-26,2024.1.4,None,2024-07-01 18h15.55.827796 +0900,
Images/Speaker1.jpg,Images/Speaker2.jpg,Images/Speaker3.jpg,Images/Speaker4.jpg,Audio/Speaker3_En/P3-10-En.wav,Speaker3,گوینده۳,,,,,,,,,0,0,0,19,0,33,33,49,120.21830975000012,,,,,,,,,,,,,,,,,,,,,,,,,,,,,,,,,,,,,,,,,,,,,120.19763941700057,120.21830975000012,120.21830975000012,120.21830975000012,120.21830975000012,120.21390183366681,120.21830975000012,120.21830975000012,120.21883862499999,Incorrect! The correct answer is Speaker3. نادرست! پاسخ صحیح گوینده۳ است,0,68,1,1.9709947080000347,None,120.22259558400037,120.2323666250004,122.22491420900042,,,,,,784836,001,2024-07-01_18h15.50.825,5-26,2024.1.4,None,2024-07-01 18h15.55.827796 +0900,
Images/Speaker1.jpg,Images/Speaker2.jpg,Images/Speaker3.jpg,Images/Speaker4.jpg,Audio/Speaker2_En/P2-16-En.wav,Speaker2,گوینده۲,,,,,,,,,0,0,0,19,0,34,34,35,122.248756125,,,,,,,,,,,,,,,,,,,,,,,,,,,,,,,,,,,,,,,,,,,,,122.22552887500024,122.248756125,122.248756125,122.248756125,122.248756125,122.25802175033326,122.248756125,122.248756125,122.28041300000041,Incorrect! The correct answer is Speaker2. نادرست! پاسخ صحیح گوینده۲ است,0,70,1,0.02779812500011758,None,122.28416983400075,122.29632537500038,124.28101716700075,124.3038513750007,,,,,784836,001,2024-07-01_18h15.50.825,5-26,2024.1.4,None,2024-07-01 18h15.55.827796 +0900,
Images/Speaker1.jpg,Images/Speaker2.jpg,Images/Speaker3.jpg,Images/Speaker4.jpg,Audio/Speaker1_En/P1-8-En.wav,Speaker1,گوینده ۱,,,,,,,,,0,0,0,19,0,35,35,7,124.3038513750007,,,,,,,,,,,,,,,,,,,,,,,,,,,,,,,,,,,,,,,,,,,,,124.28121908400044,124.3038513750007,124.3038513750007,124.3038513750007,124.3038513750007,124.29744025066726,124.3038513750007,124.3038513750007,124.31946391700058,Correct! صحیح است,0,72,1,0.011934999999539286,None,124.32327387500027,124.3340239170002,126.31698245900043,126.33772337500068,,,,,784836,001,2024-07-01_18h15.50.825,5-26,2024.1.4,None,2024-07-01 18h15.55.827796 +0900,
Images/Speaker1.jpg,Images/Speaker2.jpg,Images/Speaker3.jpg,Images/Speaker4.jpg,Audio/Speaker2_En/P2-3-En.wav,Speaker2,گوینده۲,,,,,,,,,0,0,0,19,0,36,36,22,126.33772337500068,,,,,,,,,,,,,,,,,,,,,,,,,,,,,,,,,,,,,,,,,,,,,126.31718891700075,126.33772337500068,126.33772337500068,126.33772337500068,126.33772337500068,126.3333672086667,126.33772337500068,126.33772337500068,126.36313804200017,Incorrect! The correct answer is Speaker2. نادرست! پاسخ صحیح گوینده۲ است,0,74,1,0.02389695900001243,None,126.36703283400038,126.37998650000009,128.37244304200067,,,,,,784836,001,2024-07-01_18h15.50.825,5-26,2024.1.4,None,2024-07-01 18h15.55.827796 +0900,
Images/Speaker1.jpg,Images/Speaker2.jpg,Images/Speaker3.jpg,Images/Speaker4.jpg,Audio/Speaker3_En/P3-9-En.wav,Speaker3,گوینده۳,,,,,,,,,0,0,0,19,0,37,37,48,128.3936641250002,,,,,,,,,,,,,,,,,,,,,,,,,,,,,,,,,,,,,,,,,,,,,128.37260716700075,128.3936641250002,128.3936641250002,128.3936641250002,128.3936641250002,128.38907445866724,128.3936641250002,128.3936641250002,128.4815454590007,Incorrect! The correct answer is Speaker3. نادرست! پاسخ صحیح گوینده۳ است,0,76,1,0.07632187499984866,None,128.4857735000005,128.49814516700008,130.4811795000005,130.50309749999997,,,,,784836,001,2024-07-01_18h15.50.825,5-26,2024.1.4,None,2024-07-01 18h15.55.827796 +0900,
Images/Speaker1.jpg,Images/Speaker2.jpg,Images/Speaker3.jpg,Images/Speaker4.jpg,Audio/Speaker4_En/P4-4-En.wav,Speaker4,گوینده۴,,,,,,,,,0,0,0,19,0,38,38,63,130.50309749999997,,,,,,,,,,,,,,,,,,,,,,,,,,,,,,,,,,,,,,,,,,,,,130.48135475000072,130.50309749999997,130.50309749999997,130.50309749999997,130.50309749999997,130.49762029166712,130.50309749999997,130.50309749999997,130.503696709,Incorrect! The correct answer is Speaker4. نادرست! پاسخ صحیح گوینده۴ است,0,78,1,2.072269709000466,None,130.5076375840008,130.51773491700078,132.50583929200002,132.53014333400006,,,,,784836,001,2024-07-01_18h15.50.825,5-26,2024.1.4,None,2024-07-01 18h15.55.827796 +0900,
Images/Speaker1.jpg,Images/Speaker2.jpg,Images/Speaker3.jpg,Images/Speaker4.jpg,Audio/Speaker2_En/P2-18-En.wav,Speaker2,گوینده۲,,,,,,,,,0,0,0,19,0,39,39,37,132.53014333400006,,,,,,,,,,,,,,,,,,,,,,,,,,,,,,,,,,,,,,,,,,,,,132.50633704200027,132.53014333400006,132.53014333400006,132.53014333400006,132.53014333400006,132.5385009173338,132.53014333400006,132.53014333400006,132.53080295900054,Incorrect! The correct answer is Speaker2. نادرست! پاسخ صحیح گوینده۲ است,0,80,1,1.9283747079998648,None,132.53108158400028,132.54105483400053,134.5329925420001,,,,,,784836,001,2024-07-01_18h15.50.825,5-26,2024.1.4,None,2024-07-01 18h15.55.827796 +0900,
Images/Speaker1.jpg,Images/Speaker2.jpg,Images/Speaker3.jpg,Images/Speaker4.jpg,Audio/Speaker3_En/P3-19-En.wav,Speaker3,گوینده۳,,,,,,,,,0,0,0,19,0,40,40,58,134.55879783399996,,,,,,,,,,,,,,,,,,,,,,,,,,,,,,,,,,,,,,,,,,,,,134.5336542920004,134.55879783399996,134.55879783399996,134.55879783399996,134.55879783399996,134.56611620833388,134.55879783399996,134.55879783399996,134.55936008400022,Incorrect! The correct answer is Speaker3. نادرست! پاسخ صحیح گوینده۳ است,0,82,1,1.8596528329999273,None,134.5598630000004,134.56987562500035,136.5572009590005,136.57837195899992,,,,,784836,001,2024-07-01_18h15.50.825,5-26,2024.1.4,None,2024-07-01 18h15.55.827796 +0900,
Images/Speaker1.jpg,Images/Speaker2.jpg,Images/Speaker3.jpg,Images/Speaker4.jpg,Audio/Speaker2_En/P2-15-En.wav,Speaker2,گوینده۲,,,,,,,,,0,0,0,19,0,41,41,34,136.57837195899992,,,,,,,,,,,,,,,,,,,,,,,,,,,,,,,,,,,,,,,,,,,,,136.5574042090002,136.57837195899992,136.57837195899992,136.57837195899992,136.57837195899992,136.57361833366693,136.57837195899992,136.57837195899992,136.57892741700016,Incorrect! The correct answer is Speaker2. نادرست! پاسخ صحیح گوینده۲ است,0,84,1,1.7491129579993867,None,136.58266270900003,136.59273541700077,138.57983225000044,138.60362824999993,,,,,784836,001,2024-07-01_18h15.50.825,5-26,2024.1.4,None,2024-07-01 18h15.55.827796 +0900,
Images/Speaker1.jpg,Images/Speaker2.jpg,Images/Speaker3.jpg,Images/Speaker4.jpg,Audio/Speaker1_En/P1-7-En.wav,Speaker1,گوینده ۱,,,,,,,,,0,0,0,19,0,42,42,6,138.60362824999993,,,,,,,,,,,,,,,,,,,,,,,,,,,,,,,,,,,,,,,,,,,,,138.58053820900022,138.60362824999993,138.60362824999993,138.60362824999993,138.60362824999993,138.61239291733415,138.60362824999993,138.60362824999993,138.60428833400056,Correct! صحیح است,0,86,1,1.890799915999196,None,138.60454616700008,138.61222866700064,140.59874391700032,140.61997870899995,,,,,784836,001,2024-07-01_18h15.50.825,5-26,2024.1.4,None,2024-07-01 18h15.55.827796 +0900,
Images/Speaker1.jpg,Images/Speaker2.jpg,Images/Speaker3.jpg,Images/Speaker4.jpg,Audio/Speaker1_En/P1-20-En.wav,Speaker1,گوینده ۱,,,,,,,,,0,0,0,19,0,43,43,19,140.61997870899995,,,,,,,,,,,,,,,,,,,,,,,,,,,,,,,,,,,,,,,,,,,,,140.59894166699996,140.61997870899995,140.61997870899995,140.61997870899995,140.61997870899995,140.6147705836668,140.61997870899995,140.61997870899995,140.62056412500078,Correct! صحیح است,0,88,1,1.8652473749998535,None,140.62424241700046,140.63258700000006,142.62515229200017,,,,,,784836,001,2024-07-01_18h15.50.825,5-26,2024.1.4,None,2024-07-01 18h15.55.827796 +0900,
Images/Speaker1.jpg,Images/Speaker2.jpg,Images/Speaker3.jpg,Images/Speaker4.jpg,Audio/Speaker4_En/P4-20-En.wav,Speaker4,گوینده۴,,,,,,,,,0,0,0,19,0,44,44,79,142.64867075000075,,,,,,,,,,,,,,,,,,,,,,,,,,,,,,,,,,,,,,,,,,,,,142.62577620899992,142.64867075000075,142.64867075000075,142.64867075000075,142.64867075000075,142.6583239173338,142.64867075000075,142.64867075000075,142.64923204200022,Incorrect! The correct answer is Speaker4. نادرست! پاسخ صحیح گوینده۴ است,0,90,1,1.886526041000252,None,142.64957129200047,142.65957875000004,144.64699700000074,144.6713930420001,,,,,784836,001,2024-07-01_18h15.50.825,5-26,2024.1.4,None,2024-07-01 18h15.55.827796 +0900,
Images/Speaker1.jpg,Images/Speaker2.jpg,Images/Speaker3.jpg,Images/Speaker4.jpg,Audio/Speaker3_En/P3-7-En.wav,Speaker3,گوینده۳,,,,,,,,,0,0,0,19,0,45,45,46,144.6713930420001,,,,,,,,,,,,,,,,,,,,,,,,,,,,,,,,,,,,,,,,,,,,,144.64715029200033,144.6713930420001,144.6713930420001,144.6713930420001,144.6713930420001,144.6634107916673,144.6713930420001,144.6713930420001,144.6720242500005,Incorrect! The correct answer is Speaker3. نادرست! پاسخ صحیح گوینده۳ است,0,92,1,2.0130142500001966,None,144.67614770900036,144.68634850000035,146.67565325000032,146.70281595899996,,,,,784836,001,2024-07-01_18h15.50.825,5-26,2024.1.4,None,2024-07-01 18h15.55.827796 +0900,
Images/Speaker1.jpg,Images/Speaker2.jpg,Images/Speaker3.jpg,Images/Speaker4.jpg,Audio/Speaker3_En/P3-20-En.wav,Speaker3,گوینده۳,,,,,,,,,0,0,0,19,0,46,46,59,146.70281595899996,,,,,,,,,,,,,,,,,,,,,,,,,,,,,,,,,,,,,,,,,,,,,146.6764777090002,146.70281595899996,146.70281595899996,146.70281595899996,146.70281595899996,146.7080911673334,146.70281595899996,146.70281595899996,146.70347425,Incorrect! The correct answer is Speaker3. نادرست! پاسخ صحیح گوینده۳ است,0,94,1,2.01592087500012,None,146.70402958400064,146.7146195840005,148.7005806670004,148.72253558400007,,,,,784836,001,2024-07-01_18h15.50.825,5-26,2024.1.4,None,2024-07-01 18h15.55.827796 +0900,
Images/Speaker1.jpg,Images/Speaker2.jpg,Images/Speaker3.jpg,Images/Speaker4.jpg,Audio/Speaker1_En/P1-10-En.wav,Speaker1,گوینده ۱,,,,,,,,,0,0,0,19,0,47,47,9,148.72253558400007,,,,,,,,,,,,,,,,,,,,,,,,,,,,,,,,,,,,,,,,,,,,,148.70075304200054,148.72253558400007,148.72253558400007,148.72253558400007,148.72253558400007,148.7169485006673,148.72253558400007,148.72253558400007,148.7231090840005,Correct! صحیح است,0,96,1,1.9771649169997545,None,148.72711704199992,148.73509804200057,150.72320137499992,150.7461573340006,,,,,784836,001,2024-07-01_18h15.50.825,5-26,2024.1.4,None,2024-07-01 18h15.55.827796 +0900,
Images/Speaker1.jpg,Images/Speaker2.jpg,Images/Speaker3.jpg,Images/Speaker4.jpg,Audio/Speaker4_En/P4-2-En.wav,Speaker4,گوینده۴,,,,,,,,,0,0,0,19,0,48,48,61,150.7461573340006,,,,,,,,,,,,,,,,,,,,,,,,,,,,,,,,,,,,,,,,,,,,,150.72416870899997,150.7461573340006,150.7461573340006,150.7461573340006,150.7461573340006,150.75564262533368,150.7461573340006,150.7461573340006,150.79479150000043,Incorrect! The correct answer is Speaker4. نادرست! پاسخ صحیح گوینده۴ است,0,98,1,0.03511799999978393,None,150.79871300000013,150.81057429200064,152.7933452090001,152.8153623750004,,,,,784836,001,2024-07-01_18h15.50.825,5-26,2024.1.4,None,2024-07-01 18h15.55.827796 +0900,
Images/Speaker1.jpg,Images/Speaker2.jpg,Images/Speaker3.jpg,Images/Speaker4.jpg,Audio/Speaker3_En/P3-8-En.wav,Speaker3,گوینده۳,,,,,,,,,0,0,0,19,0,49,49,47,152.8153623750004,,,,,,,,,,,,,,,,,,,,,,,,,,,,,,,,,,,,,,,,,,,,,152.79350716699992,152.8153623750004,152.8153623750004,152.8153623750004,152.8153623750004,152.8097247506669,152.8153623750004,152.8153623750004,152.89072654200027,Incorrect! The correct answer is Speaker3. نادرست! پاسخ صحیح گوینده۳ است,0,100,1,0.0724814579998565,None,152.89464966700052,152.9074392500006,154.8945037500007,154.9159105000008,,,,,784836,001,2024-07-01_18h15.50.825,5-26,2024.1.4,None,2024-07-01 18h15.55.827796 +0900,
Images/Speaker1.jpg,Images/Speaker2.jpg,Images/Speaker3.jpg,Images/Speaker4.jpg,Audio/Speaker3_En/P3-5-En.wav,Speaker3,گوینده۳,,,,,,,,,0,0,0,19,0,50,50,44,154.9159105000008,,,,,,,,,,,,,,,,,,,,,,,,,,,,,,,,,,,,,,,,,,,,,154.89470545900076,154.9159105000008,154.9159105000008,154.9159105000008,154.9159105000008,154.9109434586674,154.9159105000008,154.9159105000008,154.91646212500018,Incorrect! The correct answer is Speaker3. نادرست! پاسخ صحیح گوینده۳ است,0,102,1,2.0432504580003297,None,154.920576042,154.93052258400076,156.91391495900007,156.93436199999996,,,,,784836,001,2024-07-01_18h15.50.825,5-26,2024.1.4,None,2024-07-01 18h15.55.827796 +0900,
Images/Speaker1.jpg,Images/Speaker2.jpg,Images/Speaker3.jpg,Images/Speaker4.jpg,Audio/Speaker2_En/P2-12-En.wav,Speaker2,گوینده۲,,,,,,,,,0,0,0,19,0,51,51,31,156.93436199999996,,,,,,,,,,,,,,,,,,,,,,,,,,,,,,,,,,,,,,,,,,,,,156.9140949170005,156.93436199999996,156.93436199999996,156.93436199999996,156.93436199999996,156.9303011666673,156.93436199999996,156.93436199999996,156.93496504199993,Incorrect! The correct answer is Speaker2. نادرست! پاسخ صحیح گوینده۲ است,0,104,1,1.9527360419997422,None,156.93901575000018,156.94955366700015,158.93495529200027,158.95663629200044,,,,,784836,001,2024-07-01_18h15.50.825,5-26,2024.1.4,None,2024-07-01 18h15.55.827796 +0900,
Images/Speaker1.jpg,Images/Speaker2.jpg,Images/Speaker3.jpg,Images/Speaker4.jpg,Audio/Speaker3_En/P3-11-En.wav,Speaker3,گوینده۳,,,,,,,,,0,0,0,19,0,52,52,50,158.95663629200044,,,,,,,,,,,,,,,,,,,,,,,,,,,,,,,,,,,,,,,,,,,,,158.9351287920008,158.95663629200044,158.95663629200044,158.95663629200044,158.95663629200044,158.95139700066673,158.95663629200044,158.95663629200044,158.95719175000067,Incorrect! The correct answer is Speaker3. نادرست! پاسخ صحیح گوینده۳ است,0,106,1,1.9634402080000655,None,158.96123779200025,158.9702323750007,160.95767429200077,160.9791530420007,,,,,784836,001,2024-07-01_18h15.50.825,5-26,2024.1.4,None,2024-07-01 18h15.55.827796 +0900,
Images/Speaker1.jpg,Images/Speaker2.jpg,Images/Speaker3.jpg,Images/Speaker4.jpg,Audio/Speaker2_En/P2-2-En.wav,Speaker2,گوینده۲,,,,,,,,,0,0,0,19,0,53,53,21,160.9791530420007,,,,,,,,,,,,,,,,,,,,,,,,,,,,,,,,,,,,,,,,,,,,,160.95785883400004,160.9791530420007,160.9791530420007,160.9791530420007,160.9791530420007,160.97403495866664,160.9791530420007,160.9791530420007,160.979815959,Incorrect! The correct answer is Speaker2. نادرست! پاسخ صحیح گوینده۲ است,0,108,1,1.8777581670001382,None,160.98373141699994,160.99286133400074,162.97953487500035,163.00403554200057,,,,,784836,001,2024-07-01_18h15.50.825,5-26,2024.1.4,None,2024-07-01 18h15.55.827796 +0900,
Images/Speaker1.jpg,Images/Speaker2.jpg,Images/Speaker3.jpg,Images/Speaker4.jpg,Audio/Speaker1_En/P1-18-En.wav,Speaker1,گوینده ۱,,,,,,,,,0,0,0,19,0,54,54,17,163.00403554200057,,,,,,,,,,,,,,,,,,,,,,,,,,,,,,,,,,,,,,,,,,,,,162.98027958400053,163.00403554200057,163.00403554200057,163.00403554200057,163.00403554200057,163.0118667083339,163.00403554200057,163.00403554200057,163.0046797090008,Correct! صحیح است,0,110,1,1.9469633329999851,None,163.0049911670003,163.0124545840008,165.0019855420005,165.02600633400016,,,,,784836,001,2024-07-01_18h15.50.825,5-26,2024.1.4,None,2024-07-01 18h15.55.827796 +0900,
Images/Speaker1.jpg,Images/Speaker2.jpg,Images/Speaker3.jpg,Images/Speaker4.jpg,Audio/Speaker2_En/P2-13-En.wav,Speaker2,گوینده۲,,,,,,,,,0,0,0,19,0,55,55,32,165.02600633400016,,,,,,,,,,,,,,,,,,,,,,,,,,,,,,,,,,,,,,,,,,,,,165.00276795900027,165.02600633400016,165.02600633400016,165.02600633400016,165.02600633400016,165.03447083333373,165.02600633400016,165.02600633400016,165.02664608400028,Incorrect! The correct answer is Speaker2. نادرست! پاسخ صحیح گوینده۲ است,0,112,1,1.7820673339992936,None,165.02685287500026,165.0361196670001,167.01937833400007,167.04075070900035,,,,,784836,001,2024-07-01_18h15.50.825,5-26,2024.1.4,None,2024-07-01 18h15.55.827796 +0900,
Images/Speaker1.jpg,Images/Speaker2.jpg,Images/Speaker3.jpg,Images/Speaker4.jpg,Audio/Speaker4_En/P4-6-En.wav,Speaker4,گوینده۴,,,,,,,,,0,0,0,19,0,56,56,65,167.04075070900035,,,,,,,,,,,,,,,,,,,,,,,,,,,,,,,,,,,,,,,,,,,,,167.01953287500055,167.04075070900035,167.04075070900035,167.04075070900035,167.04075070900035,167.03546441666666,167.04075070900035,167.04075070900035,167.04133845900014,Incorrect! The correct answer is Speaker4. نادرست! پاسخ صحیح گوینده۴ است,0,114,1,1.8412440419997438,None,167.04531554200003,167.05594054199992,169.03889554200032,169.05968891700013,,,,,784836,001,2024-07-01_18h15.50.825,5-26,2024.1.4,None,2024-07-01 18h15.55.827796 +0900,
Images/Speaker1.jpg,Images/Speaker2.jpg,Images/Speaker3.jpg,Images/Speaker4.jpg,Audio/Speaker3_En/P3-12-En.wav,Speaker3,گوینده۳,,,,,,,,,0,0,0,19,0,57,57,51,169.05968891700013,,,,,,,,,,,,,,,,,,,,,,,,,,,,,,,,,,,,,,,,,,,,,169.03907825000078,169.05968891700013,169.05968891700013,169.05968891700013,169.05968891700013,169.05533291666714,169.05968891700013,169.05968891700013,169.06022737500007,Incorrect! The correct answer is Speaker3. نادرست! پاسخ صحیح گوینده۳ است,0,116,1,1.833754874999613,None,169.0640808750004,169.07389666700055,171.05917950000003,171.08033391700064,,,,,784836,001,2024-07-01_18h15.50.825,5-26,2024.1.4,None,2024-07-01 18h15.55.827796 +0900,
Images/Speaker1.jpg,Images/Speaker2.jpg,Images/Speaker3.jpg,Images/Speaker4.jpg,Audio/Speaker1_En/P1-16-En.wav,Speaker1,گوینده ۱,,,,,,,,,0,0,0,19,0,58,58,15,171.08033391700064,,,,,,,,,,,,,,,,,,,,,,,,,,,,,,,,,,,,,,,,,,,,,171.05935675,171.08033391700064,171.08033391700064,171.08033391700064,171.08033391700064,171.07557245866727,171.08033391700064,171.08033391700064,171.08097612500023,Correct! صحیح است,0,118,1,1.820218666999608,None,171.08500920900042,171.09337937500004,173.07606133400077,173.0973980000008,,,,,784836,001,2024-07-01_18h15.50.825,5-26,2024.1.4,None,2024-07-01 18h15.55.827796 +0900,
Images/Speaker1.jpg,Images/Speaker2.jpg,Images/Speaker3.jpg,Images/Speaker4.jpg,Audio/Speaker2_En/P2-7-En.wav,Speaker2,گوینده۲,,,,,,,,,0,0,0,19,0,59,59,26,173.0973980000008,,,,,,,,,,,,,,,,,,,,,,,,,,,,,,,,,,,,,,,,,,,,,173.07624370900066,173.0973980000008,173.0973980000008,173.0973980000008,173.0973980000008,173.0924087506667,173.0973980000008,173.0973980000008,173.0980211670003,Incorrect! The correct answer is Speaker2. نادرست! پاسخ صحیح گوینده۲ است,0,120,1,1.8127426660003039,None,173.10189933400034,173.11190708400045,175.09539037500053,175.11992458400073,,,,,784836,001,2024-07-01_18h15.50.825,5-26,2024.1.4,None,2024-07-01 18h15.55.827796 +0900,
Images/Speaker1.jpg,Images/Speaker2.jpg,Images/Speaker3.jpg,Images/Speaker4.jpg,Audio/Speaker3_En/P3-15-En.wav,Speaker3,گوینده۳,,,,,,,,,0,0,0,19,0,60,60,54,175.11992458400073,,,,,,,,,,,,,,,,,,,,,,,,,,,,,,,,,,,,,,,,,,,,,175.09589616700032,175.11992458400073,175.11992458400073,175.11992458400073,175.11992458400073,175.12773537533354,175.11992458400073,175.11992458400073,175.12054916700072,Incorrect! The correct answer is Speaker3. نادرست! پاسخ صحیح گوینده۳ است,0,122,1,1.9156679589996202,None,175.12099054200007,175.13090850000026,177.116623334,177.1385372090008,,,,,784836,001,2024-07-01_18h15.50.825,5-26,2024.1.4,None,2024-07-01 18h15.55.827796 +0900,
Images/Speaker1.jpg,Images/Speaker2.jpg,Images/Speaker3.jpg,Images/Speaker4.jpg,Audio/Speaker4_En/P4-15-En.wav,Speaker4,گوینده۴,,,,,,,,,0,0,0,19,0,61,61,74,177.1385372090008,,,,,,,,,,,,,,,,,,,,,,,,,,,,,,,,,,,,,,,,,,,,,177.11680500000057,177.1385372090008,177.1385372090008,177.1385372090008,177.1385372090008,177.1330175006672,177.1385372090008,177.1385372090008,177.17624841700035,Incorrect! The correct answer is Speaker4. نادرست! پاسخ صحیح گوینده۴ است,0,124,1,0.02984766600002331,None,177.18036579199998,177.1934487920007,179.18498337500023,,,,,,784836,001,2024-07-01_18h15.50.825,5-26,2024.1.4,None,2024-07-01 18h15.55.827796 +0900,
Images/Speaker1.jpg,Images/Speaker2.jpg,Images/Speaker3.jpg,Images/Speaker4.jpg,Audio/Speaker4_En/P4-10-En.wav,Speaker4,گوینده۴,,,,,,,,,0,0,0,19,0,62,62,69,179.2063576670007,,,,,,,,,,,,,,,,,,,,,,,,,,,,,,,,,,,,,,,,,,,,,179.1851657090001,179.2063576670007,179.2063576670007,179.2063576670007,179.2063576670007,179.2016080836668,179.2063576670007,179.2063576670007,179.29001820900066,Incorrect! The correct answer is Speaker4. نادرست! پاسخ صحیح گوینده۴ است,0,126,1,0.07595175000005838,None,179.29387070900066,179.3043147920007,181.28920929200012,181.30921729200054,,,,,784836,001,2024-07-01_18h15.50.825,5-26,2024.1.4,None,2024-07-01 18h15.55.827796 +0900,
Images/Speaker1.jpg,Images/Speaker2.jpg,Images/Speaker3.jpg,Images/Speaker4.jpg,Audio/Speaker4_En/P4-18-En.wav,Speaker4,گوینده۴,,,,,,,,,0,0,0,19,0,63,63,77,181.30921729200054,,,,,,,,,,,,,,,,,,,,,,,,,,,,,,,,,,,,,,,,,,,,,181.28939520900076,181.30921729200054,181.30921729200054,181.30921729200054,181.30921729200054,181.30567616666693,181.30921729200054,181.30921729200054,181.35685358400042,Incorrect! The correct answer is Speaker4. نادرست! پاسخ صحیح گوینده۴ است,0,128,1,0.04450570799963316,None,181.36071070900016,181.3729653750006,183.36114866700063,183.38491875,,,,,784836,001,2024-07-01_18h15.50.825,5-26,2024.1.4,None,2024-07-01 18h15.55.827796 +0900,
Images/Speaker1.jpg,Images/Speaker2.jpg,Images/Speaker3.jpg,Images/Speaker4.jpg,Audio/Speaker2_En/P2-1-En.wav,Speaker2,گوینده۲,,,,,,,,,0,0,0,19,0,64,64,20,183.38491875,,,,,,,,,,,,,,,,,,,,,,,,,,,,,,,,,,,,,,,,,,,,,183.3616710840006,183.38491875,183.38491875,183.38491875,183.38491875,183.39357754233384,183.38491875,183.38491875,183.49059758400017,Incorrect! The correct answer is Speaker2. نادرست! پاسخ صحیح گوینده۲ است,0,130,1,0.10465387499971257,None,183.49448912500065,183.50719004200073,185.49798633400042,,,,,,784836,001,2024-07-01_18h15.50.825,5-26,2024.1.4,None,2024-07-01 18h15.55.827796 +0900,
Images/Speaker1.jpg,Images/Speaker2.jpg,Images/Speaker3.jpg,Images/Speaker4.jpg,Audio/Speaker1_En/P1-1-En.wav,Speaker1,گوینده ۱,,,,,,,,,0,0,0,19,0,65,65,0,185.52332591699997,,,,,,,,,,,,,,,,,,,,,,,,,,,,,,,,,,,,,,,,,,,,,185.49866116700014,185.52332591699997,185.52332591699997,185.52332591699997,185.52332591699997,185.5311367923337,185.52332591699997,185.52332591699997,185.57797058400047,Correct! صحیح است,0,132,1,0.0428912079996735,None,185.58198695900046,185.5924482090004,187.577448,187.5983953340001,,,,,784836,001,2024-07-01_18h15.50.825,5-26,2024.1.4,None,2024-07-01 18h15.55.827796 +0900,
Images/Speaker1.jpg,Images/Speaker2.jpg,Images/Speaker3.jpg,Images/Speaker4.jpg,Audio/Speaker3_En/P3-18-En.wav,Speaker3,گوینده۳,,,,,,,,,0,0,0,19,0,66,66,57,187.5983953340001,,,,,,,,,,,,,,,,,,,,,,,,,,,,,,,,,,,,,,,,,,,,,187.57760833400062,187.5983953340001,187.5983953340001,187.5983953340001,187.5983953340001,187.5938538756666,187.5983953340001,187.5983953340001,187.5989690840006,Incorrect! The correct answer is Speaker3. نادرست! پاسخ صحیح گوینده۳ است,0,134,1,2.043556042000091,None,187.602924584,187.6134734590005,189.60001158400064,189.62068812500002,,,,,784836,001,2024-07-01_18h15.50.825,5-26,2024.1.4,None,2024-07-01 18h15.55.827796 +0900,
Images/Speaker1.jpg,Images/Speaker2.jpg,Images/Speaker3.jpg,Images/Speaker4.jpg,Audio/Speaker2_En/P2-10-En.wav,Speaker2,گوینده۲,,,,,,,,,0,0,0,19,0,67,67,29,189.62068812500002,,,,,,,,,,,,,,,,,,,,,,,,,,,,,,,,,,,,,,,,,,,,,189.60016570900007,189.62068812500002,189.62068812500002,189.62068812500002,189.62068812500002,189.61639025066714,189.62068812500002,189.62068812500002,189.83548895900003,Incorrect! The correct answer is Speaker2. نادرست! پاسخ صحیح گوینده۲ است,0,136,1,0.20307420799963438,None,189.8392064590007,189.85213020900028,191.84356641700015,,,,,,784836,001,2024-07-01_18h15.50.825,5-26,2024.1.4,None,2024-07-01 18h15.55.827796 +0900,
Images/Speaker1.jpg,Images/Speaker2.jpg,Images/Speaker3.jpg,Images/Speaker4.jpg,Audio/Speaker1_En/P1-4-En.wav,Speaker1,گوینده ۱,,,,,,,,,0,0,0,19,0,68,68,3,191.86732400000074,,,,,,,,,,,,,,,,,,,,,,,,,,,,,,,,,,,,,,,,,,,,,191.8441130000001,191.86732400000074,191.86732400000074,191.86732400000074,191.86732400000074,191.87674850033414,191.86732400000074,191.86732400000074,191.86797679200026,Correct! صحیح است,0,138,1,2.205741207999381,None,191.86824675000025,191.8762427090005,193.86145629200018,193.88393966700005,,,,,784836,001,2024-07-01_18h15.50.825,5-26,2024.1.4,None,2024-07-01 18h15.55.827796 +0900,
Images/Speaker1.jpg,Images/Speaker2.jpg,Images/Speaker3.jpg,Images/Speaker4.jpg,Audio/Speaker1_En/P1-5-En.wav,Speaker1,گوینده ۱,,,,,,,,,0,0,0,19,0,69,69,4,193.88393966700005,,,,,,,,,,,,,,,,,,,,,,,,,,,,,,,,,,,,,,,,,,,,,193.86204708400055,193.88393966700005,193.88393966700005,193.88393966700005,193.88393966700005,193.89385183333394,193.88393966700005,193.88393966700005,194.15700833400024,Correct! صحیح است,0,140,1,0.27142766599990864,None,194.16092929200022,194.1719511250003,196.15513545900012,196.17743479199999,,,,,784836,001,2024-07-01_18h15.50.825,5-26,2024.1.4,None,2024-07-01 18h15.55.827796 +0900,
Images/Speaker1.jpg,Images/Speaker2.jpg,Images/Speaker3.jpg,Images/Speaker4.jpg,Audio/Speaker4_En/P4-7-En.wav,Speaker4,گوینده۴,,,,,,,,,0,0,0,19,0,70,70,66,196.17743479199999,,,,,,,,,,,,,,,,,,,,,,,,,,,,,,,,,,,,,,,,,,,,,196.15529162500025,196.17743479199999,196.17743479199999,196.17743479199999,196.17743479199999,196.17152691666732,196.17743479199999,196.17743479199999,196.17806504200053,Incorrect! The correct answer is Speaker4. نادرست! پاسخ صحیح گوینده۴ است,0,142,1,2.2500808330005384,None,196.1820222920005,196.1920997090001,198.17991758400058,198.20427612500043,,,,,784836,001,2024-07-01_18h15.50.825,5-26,2024.1.4,None,2024-07-01 18h15.55.827796 +0900,
Images/Speaker1.jpg,Images/Speaker2.jpg,Images/Speaker3.jpg,Images/Speaker4.jpg,Audio/Speaker2_En/P2-8-En.wav,Speaker2,گوینده۲,,,,,,,,,0,0,0,19,0,71,71,27,198.20427612500043,,,,,,,,,,,,,,,,,,,,,,,,,,,,,,,,,,,,,,,,,,,,,198.18080579200068,198.20427612500043,198.20427612500043,198.20427612500043,198.20427612500043,198.2123037503339,198.20427612500043,198.20427612500043,198.2928009590005,Incorrect! The correct answer is Speaker2. نادرست! پاسخ صحیح گوینده۲ است,0,144,1,0.08738825000000361,None,198.29671654200047,198.30963916700057,200.30321725000067,,,,,,784836,001,2024-07-01_18h15.50.825,5-26,2024.1.4,None,2024-07-01 18h15.55.827796 +0900,
Images/Speaker1.jpg,Images/Speaker2.jpg,Images/Speaker3.jpg,Images/Speaker4.jpg,Audio/Speaker3_En/P3-2-En.wav,Speaker3,گوینده۳,,,,,,,,,0,0,0,19,0,72,72,41,200.33016529199995,,,,,,,,,,,,,,,,,,,,,,,,,,,,,,,,,,,,,,,,,,,,,200.30390733400054,200.33016529199995,200.33016529199995,200.33016529199995,200.33016529199995,200.33640850033368,200.33016529199995,200.33016529199995,200.3307614590003,Incorrect! The correct answer is Speaker3. نادرست! پاسخ صحیح گوینده۳ است,0,146,1,2.0983171670004594,None,200.33110720900004,200.3409590000001,202.33730387500054,,,,,,784836,001,2024-07-01_18h15.50.825,5-26,2024.1.4,None,2024-07-01 18h15.55.827796 +0900,
Images/Speaker1.jpg,Images/Speaker2.jpg,Images/Speaker3.jpg,Images/Speaker4.jpg,Audio/Speaker4_En/P4-16-En.wav,Speaker4,گوینده۴,,,,,,,,,0,0,0,19,0,73,73,75,202.3578554170008,,,,,,,,,,,,,,,,,,,,,,,,,,,,,,,,,,,,,,,,,,,,,202.33747145899997,202.3578554170008,202.3578554170008,202.3578554170008,202.3578554170008,202.35392787566732,202.3578554170008,202.3578554170008,202.43446470900017,Incorrect! The correct answer is Speaker4. نادرست! پاسخ صحیح گوینده۴ است,0,148,1,0.0753679170002215,None,202.43829450000067,202.45094720900033,204.43809308400068,204.45930475000023,,,,,784836,001,2024-07-01_18h15.50.825,5-26,2024.1.4,None,2024-07-01 18h15.55.827796 +0900,
Images/Speaker1.jpg,Images/Speaker2.jpg,Images/Speaker3.jpg,Images/Speaker4.jpg,Audio/Speaker2_En/P2-17-En.wav,Speaker2,گوینده۲,,,,,,,,,0,0,0,19,0,74,74,36,204.45930475000023,,,,,,,,,,,,,,,,,,,,,,,,,,,,,,,,,,,,,,,,,,,,,204.43828454200047,204.45930475000023,204.45930475000023,204.45930475000023,204.45930475000023,204.45438687566664,204.45930475000023,204.45930475000023,204.5182434590006,Incorrect! The correct answer is Speaker2. نادرست! پاسخ صحیح گوینده۲ است,0,150,1,0.05707099999926868,None,204.52205354200032,204.5349025000005,206.5207034590003,206.54601204200026,,,,,784836,001,2024-07-01_18h15.50.825,5-26,2024.1.4,None,2024-07-01 18h15.55.827796 +0900,
Images/Speaker1.jpg,Images/Speaker2.jpg,Images/Speaker3.jpg,Images/Speaker4.jpg,Audio/Speaker4_En/P4-8-En.wav,Speaker4,گوینده۴,,,,,,,,,0,0,0,19,0,75,75,67,206.54601204200026,,,,,,,,,,,,,,,,,,,,,,,,,,,,,,,,,,,,,,,,,,,,,206.52129591700032,206.54601204200026,206.54601204200026,206.54601204200026,206.54601204200026,206.5365230416667,206.54601204200026,206.54601204200026,206.54665220900006,Incorrect! The correct answer is Speaker4. نادرست! پاسخ صحیح گوینده۴ است,0,152,1,2.0765910839991193,None,206.550544834,206.5606272920004,208.549287584,208.57353416700062,,,,,784836,001,2024-07-01_18h15.50.825,5-26,2024.1.4,None,2024-07-01 18h15.55.827796 +0900,
Images/Speaker1.jpg,Images/Speaker2.jpg,Images/Speaker3.jpg,Images/Speaker4.jpg,Audio/Speaker3_En/P3-13-En.wav,Speaker3,گوینده۳,,,,,,,,,0,0,0,19,0,76,76,52,208.57353416700062,,,,,,,,,,,,,,,,,,,,,,,,,,,,,,,,,,,,,,,,,,,,,208.54983266700037,208.57353416700062,208.57353416700062,208.57353416700062,208.57353416700062,208.58187716733352,208.57353416700062,208.57353416700062,209.78850754199993,Incorrect! The correct answer is Speaker3. نادرست! پاسخ صحیح گوینده۳ است,0,154,1,1.2122284580000269,None,209.79289608399995,209.807782375,211.80042370899992,,,,,,784836,001,2024-07-01_18h15.50.825,5-26,2024.1.4,None,2024-07-01 18h15.55.827796 +0900,
Images/Speaker1.jpg,Images/Speaker2.jpg,Images/Speaker3.jpg,Images/Speaker4.jpg,Audio/Speaker4_En/P4-9-En.wav,Speaker4,گوینده۴,,,,,,,,,0,0,0,19,0,77,77,68,211.8244415420004,,,,,,,,,,,,,,,,,,,,,,,,,,,,,,,,,,,,,,,,,,,,,211.80097583400038,211.8244415420004,211.8244415420004,211.8244415420004,211.8244415420004,211.83361241733343,211.8244415420004,211.8244415420004,212.0195454170007,Incorrect! The correct answer is Speaker4. نادرست! پاسخ صحیح گوینده۴ است,0,156,1,0.19398041700060276,None,212.02440504200058,212.03920566700072,214.02311187500072,214.04603541699998,,,,,784836,001,2024-07-01_18h15.50.825,5-26,2024.1.4,None,2024-07-01 18h15.55.827796 +0900,
Images/Speaker1.jpg,Images/Speaker2.jpg,Images/Speaker3.jpg,Images/Speaker4.jpg,Audio/Speaker1_En/P1-19-En.wav,Speaker1,گوینده ۱,,,,,,,,,0,0,0,19,0,78,78,18,214.04603541699998,,,,,,,,,,,,,,,,,,,,,,,,,,,,,,,,,,,,,,,,,,,,,214.02328058400053,214.04603541699998,214.04603541699998,214.04603541699998,214.04603541699998,214.03953612566718,214.04603541699998,214.04603541699998,214.99462066700016,Correct! صحیح است,0,158,1,0.9458707089997915,None,214.9987135420006,215.01134187500065,216.999184667,,,,,,784836,001,2024-07-01_18h15.50.825,5-26,2024.1.4,None,2024-07-01 18h15.55.827796 +0900,
Images/Speaker1.jpg,Images/Speaker2.jpg,Images/Speaker3.jpg,Images/Speaker4.jpg,Audio/Speaker1_En/P1-11-En.wav,Speaker1,گوینده ۱,,,,,,,,,0,0,0,19,0,79,79,10,217.02448954200008,,,,,,,,,,,,,,,,,,,,,,,,,,,,,,,,,,,,,,,,,,,,,216.9999472090003,217.02448954200008,217.02448954200008,217.02448954200008,217.02448954200008,217.03232550033368,217.02448954200008,217.02448954200008,217.98971116700068,Correct! صحیح است,0,160,1,0.9608387079997556,None,217.99457783400067,218.00730291700074,219.9988397090001,,,,,,784836,001,2024-07-01_18h15.50.825,5-26,2024.1.4,None,2024-07-01 18h15.55.827796 +0900,
Images/Speaker1.jpg,Images/Speaker2.jpg,Images/Speaker3.jpg,Images/Speaker4.jpg,Audio/Speaker1_En/P1-20-En.wav,Speaker1,گوینده ۱,,,,,,,,,0,0,0,19,,,,,,,,,,,,,,,,,,,,,,,,,,,,,,,,,,,,,,,,,,,,,,,,,,,,,,,,,,,,,,,,,,,,,219.99916795900026,0.0,False,219.9998487920002,784836,001,2024-07-01_18h15.50.825,5-26,2024.1.4,None,2024-07-01 18h15.55.827796 +0900,
Images/Speaker1.jpg,Images/Speaker2.jpg,Images/Speaker3.jpg,Images/Speaker4.jpg,Audio/Speaker4_En/P4-14-En.wav,Speaker4,گوینده۴,,,,,,,,,0,1,1,70,0,0,0,73,220.04211725000005,,,,,,,,,,,,,,,,,,,,,,,,,,,,,,,,,,,,,,,,,,,,,220.01942850000069,220.04211725000005,220.04211725000005,220.04211725000005,220.04211725000005,220.04866720900083,220.04211725000005,220.04211725000005,226.5430812500008,Correct! صحیح است,0,162,4,6.493305624999266,None,226.54345879200082,226.5544812500002,228.5449459170004,,,,,,784836,001,2024-07-01_18h15.50.825,5-26,2024.1.4,None,2024-07-01 18h15.55.827796 +0900,
Images/Speaker1.jpg,Images/Speaker2.jpg,Images/Speaker3.jpg,Images/Speaker4.jpg,Audio/Speaker4_En/P4-13-En.wav,Speaker4,گوینده۴,,,,,,,,,0,1,1,70,0,1,1,72,228.57019279199994,,,,,,,,,,,,,,,,,,,,,,,,,,,,,,,,,,,,,,,,,,,,,228.54567291700005,228.57019279199994,228.57019279199994,228.57019279199994,228.57019279199994,228.57808329233336,228.57019279199994,228.57019279199994,229.78247591700074,Correct! صحیح است,0,164,4,1.209685083000295,None,229.7863011670006,229.79758358400068,231.78562624999995,231.80676308400052,,,,,784836,001,2024-07-01_18h15.50.825,5-26,2024.1.4,None,2024-07-01 18h15.55.827796 +0900,
Images/Speaker1.jpg,Images/Speaker2.jpg,Images/Speaker3.jpg,Images/Speaker4.jpg,Audio/Speaker3_En/P3-18-En.wav,Speaker3,گوینده۳,,,,,,,,,0,1,1,70,0,2,2,57,231.80676308400052,,,,,,,,,,,,,,,,,,,,,,,,,,,,,,,,,,,,,,,,,,,,,231.78583891700055,231.80676308400052,231.80676308400052,231.80676308400052,231.80676308400052,231.80204358366726,231.80676308400052,231.80676308400052,233.17995454200081,Correct! صحیح است,0,166,3,1.3624892080006248,None,233.1841492500007,233.1957089590005,235.1846420840002,,,,,,784836,001,2024-07-01_18h15.50.825,5-26,2024.1.4,None,2024-07-01 18h15.55.827796 +0900,
Images/Speaker1.jpg,Images/Speaker2.jpg,Images/Speaker3.jpg,Images/Speaker4.jpg,Audio/Speaker3_En/P3-8-En.wav,Speaker3,گوینده۳,,,,,,,,,0,1,1,70,0,3,3,47,235.20574812500035,,,,,,,,,,,,,,,,,,,,,,,,,,,,,,,,,,,,,,,,,,,,,235.18482520900034,235.20574812500035,235.20574812500035,235.20574812500035,235.20574812500035,235.2012637506671,235.20574812500035,235.20574812500035,236.84146812500057,Correct! صحیح است,0,168,3,1.627422249999654,None,236.84569091699996,236.85693941699992,238.84641425000063,,,,,,784836,001,2024-07-01_18h15.50.825,5-26,2024.1.4,None,2024-07-01 18h15.55.827796 +0900,
Images/Speaker1.jpg,Images/Speaker2.jpg,Images/Speaker3.jpg,Images/Speaker4.jpg,Audio/Speaker3_En/P3-10-En.wav,Speaker3,گوینده۳,,,,,,,,,0,1,1,70,0,4,4,49,238.86734391700065,,,,,,,,,,,,,,,,,,,,,,,,,,,,,,,,,,,,,,,,,,,,,238.84662108400062,238.86734391700065,238.86734391700065,238.86734391700065,238.86734391700065,238.86300291666728,238.86734391700065,238.86734391700065,240.03625975000068,Correct! صحیح است,0,170,3,1.1590948339999159,None,240.0410622920008,240.05518866700004,242.0440968340008,,,,,,784836,001,2024-07-01_18h15.50.825,5-26,2024.1.4,None,2024-07-01 18h15.55.827796 +0900,
Images/Speaker1.jpg,Images/Speaker2.jpg,Images/Speaker3.jpg,Images/Speaker4.jpg,Audio/Speaker1_En/P1-20-En.wav,Speaker1,گوینده ۱,,,,,,,,,0,1,1,70,0,5,5,19,242.06473679200008,,,,,,,,,,,,,,,,,,,,,,,,,,,,,,,,,,,,,,,,,,,,,242.0442675000004,242.06473679200008,242.06473679200008,242.06473679200008,242.06473679200008,242.06072754166715,242.06473679200008,242.06473679200008,243.4487352920005,Correct! صحیح است,0,172,1,1.3827154999999038,None,243.4529284170003,243.46417737499996,245.45063225000013,245.4716589590007,,,,,784836,001,2024-07-01_18h15.50.825,5-26,2024.1.4,None,2024-07-01 18h15.55.827796 +0900,
Images/Speaker1.jpg,Images/Speaker2.jpg,Images/Speaker3.jpg,Images/Speaker4.jpg,Audio/Speaker1_En/P1-17-En.wav,Speaker1,گوینده ۱,,,,,,,,,0,1,1,70,0,6,6,16,245.4716589590007,,,,,,,,,,,,,,,,,,,,,,,,,,,,,,,,,,,,,,,,,,,,,245.45079562499996,245.4716589590007,245.4716589590007,245.4716589590007,245.4716589590007,245.46694200066693,245.4716589590007,245.4716589590007,247.70960100000048,Correct! صحیح است,0,174,1,2.2323861669992766,None,247.71389716700014,247.7253912920005,249.71014354199997,249.73311345900038,,,,,784836,001,2024-07-01_18h15.50.825,5-26,2024.1.4,None,2024-07-01 18h15.55.827796 +0900,
Images/Speaker1.jpg,Images/Speaker2.jpg,Images/Speaker3.jpg,Images/Speaker4.jpg,Audio/Speaker3_En/P3-4-En.wav,Speaker3,گوینده۳,,,,,,,,,0,1,1,70,0,7,7,43,249.73311345900038,,,,,,,,,,,,,,,,,,,,,,,,,,,,,,,,,,,,,,,,,,,,,249.71035225000014,249.73311345900038,249.73311345900038,249.73311345900038,249.73311345900038,249.7265124586668,249.73311345900038,249.73311345900038,251.13189975000023,Correct! صحیح است,0,176,3,1.3969120840001779,None,251.1357793750003,251.1470924590003,253.1309329170008,253.1528270000008,,,,,784836,001,2024-07-01_18h15.50.825,5-26,2024.1.4,None,2024-07-01 18h15.55.827796 +0900,
Images/Speaker1.jpg,Images/Speaker2.jpg,Images/Speaker3.jpg,Images/Speaker4.jpg,Audio/Speaker4_En/P4-5-En.wav,Speaker4,گوینده۴,,,,,,,,,0,1,1,70,0,8,8,64,253.1528270000008,,,,,,,,,,,,,,,,,,,,,,,,,,,,,,,,,,,,,,,,,,,,,253.13110354200035,253.1528270000008,253.1528270000008,253.1528270000008,253.1528270000008,253.14737291666668,253.1528270000008,253.1528270000008,255.28027612500046,Correct! صحیح است,0,178,4,2.120906625000316,None,255.2845852090004,255.29594579200057,257.28116658399995,257.3025225420006,,,,,784836,001,2024-07-01_18h15.50.825,5-26,2024.1.4,None,2024-07-01 18h15.55.827796 +0900,
Images/Speaker1.jpg,Images/Speaker2.jpg,Images/Speaker3.jpg,Images/Speaker4.jpg,Audio/Speaker1_En/P1-1-En.wav,Speaker1,گوینده ۱,,,,,,,,,0,1,1,70,0,9,9,0,257.3025225420006,,,,,,,,,,,,,,,,,,,,,,,,,,,,,,,,,,,,,,,,,,,,,257.2813286670007,257.3025225420006,257.3025225420006,257.3025225420006,257.3025225420006,257.2975920006668,257.3025225420006,257.3025225420006,258.88998854200054,Correct! صحیح است,0,180,1,1.5823028750000958,None,258.8950202920005,258.90833408400067,260.89574808399993,,,,,,784836,001,2024-07-01_18h15.50.825,5-26,2024.1.4,None,2024-07-01 18h15.55.827796 +0900,
Images/Speaker1.jpg,Images/Speaker2.jpg,Images/Speaker3.jpg,Images/Speaker4.jpg,Audio/Speaker1_En/P1-2-En.wav,Speaker1,گوینده ۱,,,,,,,,,0,1,1,70,0,10,10,1,260.9170076670007,,,,,,,,,,,,,,,,,,,,,,,,,,,,,,,,,,,,,,,,,,,,,260.895916167,260.9170076670007,260.9170076670007,260.9170076670007,260.9170076670007,260.91237737566667,260.9170076670007,260.9170076670007,261.619159375,Correct! صحیح است,0,182,1,0.6936304589999054,None,261.6230148750001,261.63447025000005,263.6210356670008,263.64424908399997,,,,,784836,001,2024-07-01_18h15.50.825,5-26,2024.1.4,None,2024-07-01 18h15.55.827796 +0900,
Images/Speaker1.jpg,Images/Speaker2.jpg,Images/Speaker3.jpg,Images/Speaker4.jpg,Audio/Speaker4_En/P4-15-En.wav,Speaker4,گوینده۴,,,,,,,,,0,1,1,70,0,11,11,74,263.64424908399997,,,,,,,,,,,,,,,,,,,,,,,,,,,,,,,,,,,,,,,,,,,,,263.6217057090007,263.64424908399997,263.64424908399997,263.64424908399997,263.64424908399997,263.65347233333387,263.64424908399997,263.64424908399997,265.2916702090006,Correct! صحیح است,0,184,4,1.6433244580002793,None,265.2955818340006,265.30649933400036,267.29149970900016,267.31381208400035,,,,,784836,001,2024-07-01_18h15.50.825,5-26,2024.1.4,None,2024-07-01 18h15.55.827796 +0900,
Images/Speaker1.jpg,Images/Speaker2.jpg,Images/Speaker3.jpg,Images/Speaker4.jpg,Audio/Speaker4_En/P4-11-En.wav,Speaker4,گوینده۴,,,,,,,,,0,1,1,70,0,12,12,70,267.31381208400035,,,,,,,,,,,,,,,,,,,,,,,,,,,,,,,,,,,,,,,,,,,,,267.29170049999993,267.31381208400035,267.31381208400035,267.31381208400035,267.31381208400035,267.3078979166669,267.31381208400035,267.31381208400035,268.5736703340008,Correct! صحیح است,0,186,4,1.2555940840002222,None,268.5774288340008,268.58875216700017,270.57165920900025,270.59453608400054,,,,,784836,001,2024-07-01_18h15.50.825,5-26,2024.1.4,None,2024-07-01 18h15.55.827796 +0900,
Images/Speaker1.jpg,Images/Speaker2.jpg,Images/Speaker3.jpg,Images/Speaker4.jpg,Audio/Speaker4_En/P4-12-En.wav,Speaker4,گوینده۴,,,,,,,,,0,1,1,70,0,13,13,71,270.59453608400054,,,,,,,,,,,,,,,,,,,,,,,,,,,,,,,,,,,,,,,,,,,,,270.5718539170002,270.59453608400054,270.59453608400054,270.59453608400054,270.59453608400054,270.58804775066733,270.59453608400054,270.59453608400054,272.30701058400064,Correct! صحیح است,0,188,4,1.7108977919997415,None,272.3108901250007,272.3215594590001,274.3115777920002,,,,,,784836,001,2024-07-01_18h15.50.825,5-26,2024.1.4,None,2024-07-01 18h15.55.827796 +0900,
Images/Speaker1.jpg,Images/Speaker2.jpg,Images/Speaker3.jpg,Images/Speaker4.jpg,Audio/Speaker2_En/P2-20-En.wav,Speaker2,گوینده۲,,,,,,,,,0,1,1,70,0,14,14,39,274.33662483400076,,,,,,,,,,,,,,,,,,,,,,,,,,,,,,,,,,,,,,,,,,,,,274.31233420900026,274.33662483400076,274.33662483400076,274.33662483400076,274.33662483400076,274.34471962533325,274.33662483400076,274.33662483400076,276.40179824999996,Correct! صحیح است,0,190,2,2.0568984999999884,None,276.40592491700045,276.41785441699994,278.403490875,278.4247069590001,,,,,784836,001,2024-07-01_18h15.50.825,5-26,2024.1.4,None,2024-07-01 18h15.55.827796 +0900,
Images/Speaker1.jpg,Images/Speaker2.jpg,Images/Speaker3.jpg,Images/Speaker4.jpg,Audio/Speaker1_En/P1-4-En.wav,Speaker1,گوینده ۱,,,,,,,,,0,1,1,70,0,15,15,13,278.4247069590001,,,,,,,,,,,,,,,,,,,,,,,,,,,,,,,,,,,,,,,,,,,,,278.40368958399995,278.4247069590001,278.4247069590001,278.4247069590001,278.4247069590001,278.41991729166716,278.4247069590001,278.4247069590001,280.3760614590001,Correct! صحیح است,0,192,1,1.9485522499999206,None,280.3799494590003,280.39095145900046,282.377289,282.39753225000004,,,,,784836,001,2024-07-01_18h15.50.825,5-26,2024.1.4,None,2024-07-01 18h15.55.827796 +0900,
Images/Speaker1.jpg,Images/Speaker2.jpg,Images/Speaker3.jpg,Images/Speaker4.jpg,Audio/Speaker2_En/P2-16-En.wav,Speaker2,گوینده۲,,,,,,,,,0,1,1,70,0,16,16,35,282.39753225000004,,,,,,,,,,,,,,,,,,,,,,,,,,,,,,,,,,,,,,,,,,,,,282.3774610420005,282.39753225000004,282.39753225000004,282.39753225000004,282.39753225000004,282.3937452506673,282.39753225000004,282.39753225000004,284.14416783400065,Correct! صحیح است,0,194,2,1.74333604200001,None,284.1481469170003,284.1597335000006,286.1449989590001,286.1663244170004,,,,,784836,001,2024-07-01_18h15.50.825,5-26,2024.1.4,None,2024-07-01 18h15.55.827796 +0900,
Images/Speaker1.jpg,Images/Speaker2.jpg,Images/Speaker3.jpg,Images/Speaker4.jpg,Audio/Speaker2_En/P2-9-En.wav,Speaker2,گوینده۲,,,,,,,,,0,1,1,70,0,17,17,28,286.1663244170004,,,,,,,,,,,,,,,,,,,,,,,,,,,,,,,,,,,,,,,,,,,,,286.14520158400046,286.1663244170004,286.1663244170004,286.1663244170004,286.1663244170004,286.16133975066737,286.1663244170004,286.1663244170004,287.29895095900065,Correct! صحیح است,0,196,2,1.1315794580004876,None,287.3028253750008,287.31390312500025,289.3031605420001,289.3277451670001,,,,,784836,001,2024-07-01_18h15.50.825,5-26,2024.1.4,None,2024-07-01 18h15.55.827796 +0900,
Images/Speaker1.jpg,Images/Speaker2.jpg,Images/Speaker3.jpg,Images/Speaker4.jpg,Audio/Speaker1_En/P1-19-En.wav,Speaker1,گوینده ۱,,,,,,,,,0,1,1,70,0,18,18,18,289.3277451670001,,,,,,,,,,,,,,,,,,,,,,,,,,,,,,,,,,,,,,,,,,,,,289.3038167090008,289.3277451670001,289.3277451670001,289.3277451670001,289.3277451670001,289.3354281253337,289.3277451670001,289.3277451670001,290.4670329170003,Correct! صحیح است,0,198,1,1.1318602080000346,None,290.471291584,290.4826145420002,292.4714750840003,,,,,,784836,001,2024-07-01_18h15.50.825,5-26,2024.1.4,None,2024-07-01 18h15.55.827796 +0900,
Images/Speaker1.jpg,Images/Speaker2.jpg,Images/Speaker3.jpg,Images/Speaker4.jpg,Audio/Speaker4_En/P4-6-En.wav,Speaker4,گوینده۴,,,,,,,,,0,1,1,70,0,19,19,65,292.49739933399997,,,,,,,,,,,,,,,,,,,,,,,,,,,,,,,,,,,,,,,,,,,,,292.4721651250002,292.49739933399997,292.49739933399997,292.49739933399997,292.49739933399997,292.5046436673333,292.49739933399997,292.49739933399997,294.4498587090002,Correct! صحیح است,0,200,4,1.949022709000019,None,294.4542163340002,294.4664025840002,296.4500907090005,296.4720775420001,,,,,784836,001,2024-07-01_18h15.50.825,5-26,2024.1.4,None,2024-07-01 18h15.55.827796 +0900,
Images/Speaker1.jpg,Images/Speaker2.jpg,Images/Speaker3.jpg,Images/Speaker4.jpg,Audio/Speaker3_En/P3-13-En.wav,Speaker3,گوینده۳,,,,,,,,,0,1,1,70,0,20,20,52,296.4720775420001,,,,,,,,,,,,,,,,,,,,,,,,,,,,,,,,,,,,,,,,,,,,,296.45029279200025,296.4720775420001,296.4720775420001,296.4720775420001,296.4720775420001,296.4664620416672,296.4720775420001,296.4720775420001,299.01255391700033,Correct! صحیح است,0,202,3,2.5379479169996557,None,299.01632704200074,299.0277277089999,301.0114858750003,301.0336802920001,,,,,784836,001,2024-07-01_18h15.50.825,5-26,2024.1.4,None,2024-07-01 18h15.55.827796 +0900,
Images/Speaker1.jpg,Images/Speaker2.jpg,Images/Speaker3.jpg,Images/Speaker4.jpg,Audio/Speaker1_En/P1-9-En.wav,Speaker1,گوینده ۱,,,,,,,,,0,1,1,70,0,21,21,8,301.0336802920001,,,,,,,,,,,,,,,,,,,,,,,,,,,,,,,,,,,,,,,,,,,,,301.0120637500004,301.0336802920001,301.0336802920001,301.0336802920001,301.0336802920001,301.02717916666666,301.0336802920001,301.0336802920001,302.43562999999995,Correct! صحیح است,0,204,1,1.4003235829995901,None,302.44074004200047,302.45270716699997,304.4369706670004,304.45910537500004,,,,,784836,001,2024-07-01_18h15.50.825,5-26,2024.1.4,None,2024-07-01 18h15.55.827796 +0900,
Images/Speaker1.jpg,Images/Speaker2.jpg,Images/Speaker3.jpg,Images/Speaker4.jpg,Audio/Speaker1_En/P1-15-En.wav,Speaker1,گوینده ۱,,,,,,,,,0,1,1,70,0,22,22,14,304.45910537500004,,,,,,,,,,,,,,,,,,,,,,,,,,,,,,,,,,,,,,,,,,,,,304.43718462500055,304.45910537500004,304.45910537500004,304.45910537500004,304.45910537500004,304.4533908336673,304.45910537500004,304.45910537500004,305.90491391700016,Correct! صحیح است,0,206,1,1.4310292089994618,None,305.90884620900033,305.92019483400054,307.9057807090003,307.926819542,,,,,784836,001,2024-07-01_18h15.50.825,5-26,2024.1.4,None,2024-07-01 18h15.55.827796 +0900,
Images/Speaker1.jpg,Images/Speaker2.jpg,Images/Speaker3.jpg,Images/Speaker4.jpg,Audio/Speaker3_En/P3-20-En.wav,Speaker3,گوینده۳,,,,,,,,,0,1,1,70,0,23,23,59,307.926819542,,,,,,,,,,,,,,,,,,,,,,,,,,,,,,,,,,,,,,,,,,,,,307.9059855840005,307.926819542,307.926819542,307.926819542,307.926819542,307.92222633366714,307.926819542,307.926819542,309.5934568340008,Correct! صحیح است,0,208,3,1.665060917000119,None,309.59762320900063,309.60911466700054,311.5932400840002,311.61480904200016,,,,,784836,001,2024-07-01_18h15.50.825,5-26,2024.1.4,None,2024-07-01 18h15.55.827796 +0900,
Images/Speaker1.jpg,Images/Speaker2.jpg,Images/Speaker3.jpg,Images/Speaker4.jpg,Audio/Speaker4_En/P4-1-En.wav,Speaker4,گوینده۴,,,,,,,,,0,1,1,70,0,24,24,60,311.61480904200016,,,,,,,,,,,,,,,,,,,,,,,,,,,,,,,,,,,,,,,,,,,,,311.59343354200064,311.61480904200016,311.61480904200016,311.61480904200016,311.61480904200016,311.6095789166668,311.61480904200016,311.61480904200016,313.19408425000074,Correct! صحیح است,0,210,4,1.5729895829999805,None,313.19827641700067,313.210150334,315.20306537500073,,,,,,784836,001,2024-07-01_18h15.50.825,5-26,2024.1.4,None,2024-07-01 18h15.55.827796 +0900,
Images/Speaker1.jpg,Images/Speaker2.jpg,Images/Speaker3.jpg,Images/Speaker4.jpg,Audio/Speaker2_En/P2-12-En.wav,Speaker2,گوینده۲,,,,,,,,,0,1,1,70,0,25,25,31,315.22560295900075,,,,,,,,,,,,,,,,,,,,,,,,,,,,,,,,,,,,,,,,,,,,,315.2038026670007,315.22560295900075,315.22560295900075,315.22560295900075,315.22560295900075,315.2195614166669,315.22560295900075,315.22560295900075,316.6823970000005,Correct! صحیح است,0,212,2,1.4534063749997586,None,316.68639816700033,316.69767649999994,318.68089725000027,318.70199175000016,,,,,784836,001,2024-07-01_18h15.50.825,5-26,2024.1.4,None,2024-07-01 18h15.55.827796 +0900,
Images/Speaker1.jpg,Images/Speaker2.jpg,Images/Speaker3.jpg,Images/Speaker4.jpg,Audio/Speaker1_En/P1-3-En.wav,Speaker1,گوینده ۱,,,,,,,,,0,1,1,70,0,26,26,2,318.70199175000016,,,,,,,,,,,,,,,,,,,,,,,,,,,,,,,,,,,,,,,,,,,,,318.68106162500044,318.70199175000016,318.70199175000016,318.70199175000016,318.70199175000016,318.69735500066713,318.70199175000016,318.70199175000016,319.81516716700025,Correct! صحیح است,0,214,1,1.1121520409997174,None,319.82027895900046,319.8333402920007,321.82203945900073,,,,,,784836,001,2024-07-01_18h15.50.825,5-26,2024.1.4,None,2024-07-01 18h15.55.827796 +0900,
Images/Speaker1.jpg,Images/Speaker2.jpg,Images/Speaker3.jpg,Images/Speaker4.jpg,Audio/Speaker2_En/P2-10-En.wav,Speaker2,گوینده۲,,,,,,,,,0,1,1,70,0,27,27,29,321.84390404200076,,,,,,,,,,,,,,,,,,,,,,,,,,,,,,,,,,,,,,,,,,,,,321.822257625,321.84390404200076,321.84390404200076,321.84390404200076,321.84390404200076,321.8386308336669,321.84390404200076,321.84390404200076,323.26046416700046,Correct! صحیح است,0,216,2,1.4047596250002243,None,323.2642394170007,323.2757300840003,325.2705890840007,,,,,,784836,001,2024-07-01_18h15.50.825,5-26,2024.1.4,None,2024-07-01 18h15.55.827796 +0900,
Images/Speaker1.jpg,Images/Speaker2.jpg,Images/Speaker3.jpg,Images/Speaker4.jpg,Audio/Speaker1_En/P1-7-En.wav,Speaker1,گوینده ۱,,,,,,,,,0,1,1,70,0,28,28,6,325.2956702500005,,,,,,,,,,,,,,,,,,,,,,,,,,,,,,,,,,,,,,,,,,,,,325.27116591699996,325.2956702500005,325.2956702500005,325.2956702500005,325.2956702500005,325.3037780423333,325.2956702500005,325.2956702500005,326.6154829590005,Correct! صحیح است,0,218,1,1.3186983750001673,None,326.6192689590007,326.63069570900007,328.6145813339999,328.6359017090008,,,,,784836,001,2024-07-01_18h15.50.825,5-26,2024.1.4,None,2024-07-01 18h15.55.827796 +0900,
Images/Speaker1.jpg,Images/Speaker2.jpg,Images/Speaker3.jpg,Images/Speaker4.jpg,Audio/Speaker2_En/P2-11-En.wav,Speaker2,گوینده۲,,,,,,,,,0,1,1,70,0,29,29,30,328.6359017090008,,,,,,,,,,,,,,,,,,,,,,,,,,,,,,,,,,,,,,,,,,,,,328.6147978750005,328.6359017090008,328.6359017090008,328.6359017090008,328.6359017090008,328.6309776256669,328.6359017090008,328.6359017090008,330.49597341700064,Correct! صحیح است,0,220,2,1.8581447919996208,None,330.5002030000005,330.5121318750007,332.49682504200064,332.52123225000014,,,,,784836,001,2024-07-01_18h15.50.825,5-26,2024.1.4,None,2024-07-01 18h15.55.827796 +0900,
Images/Speaker1.jpg,Images/Speaker2.jpg,Images/Speaker3.jpg,Images/Speaker4.jpg,Audio/Speaker1_En/P1-6-En.wav,Speaker1,گوینده ۱,,,,,,,,,0,1,1,70,0,30,30,5,332.52123225000014,,,,,,,,,,,,,,,,,,,,,,,,,,,,,,,,,,,,,,,,,,,,,332.49772875000053,332.52123225000014,332.52123225000014,332.52123225000014,332.52123225000014,332.5292771253339,332.52123225000014,332.52123225000014,334.0184057920005,Correct! صحیح است,0,222,1,1.4915746669994405,None,334.02368625000054,334.03603866699996,336.0220949170007,336.04355045900047,,,,,784836,001,2024-07-01_18h15.50.825,5-26,2024.1.4,None,2024-07-01 18h15.55.827796 +0900,
Images/Speaker1.jpg,Images/Speaker2.jpg,Images/Speaker3.jpg,Images/Speaker4.jpg,Audio/Speaker4_En/P4-18-En.wav,Speaker4,گوینده۴,,,,,,,,,0,1,1,70,0,31,31,77,336.04355045900047,,,,,,,,,,,,,,,,,,,,,,,,,,,,,,,,,,,,,,,,,,,,,336.0223147500001,336.04355045900047,336.04355045900047,336.04355045900047,336.04355045900047,336.03846458366684,336.04355045900047,336.04355045900047,337.5691634170007,Correct! صحیح است,0,224,4,1.515441292000105,None,337.57338716699996,337.5845806670004,339.57053237500077,339.59679962500013,,,,,784836,001,2024-07-01_18h15.50.825,5-26,2024.1.4,None,2024-07-01 18h15.55.827796 +0900,
Images/Speaker1.jpg,Images/Speaker2.jpg,Images/Speaker3.jpg,Images/Speaker4.jpg,Audio/Speaker4_En/P4-19-En.wav,Speaker4,گوینده۴,,,,,,,,,0,1,1,70,0,32,32,78,339.59679962500013,,,,,,,,,,,,,,,,,,,,,,,,,,,,,,,,,,,,,,,,,,,,,339.5711255840006,339.59679962500013,339.59679962500013,339.59679962500013,339.59679962500013,339.602868708334,339.59679962500013,339.59679962500013,340.9869291670002,Correct! صحیح است,0,226,4,1.3774258330004159,None,340.9911860840002,341.0022502920001,342.98786279200067,343.0115068340001,,,,,784836,001,2024-07-01_18h15.50.825,5-26,2024.1.4,None,2024-07-01 18h15.55.827796 +0900,
Images/Speaker1.jpg,Images/Speaker2.jpg,Images/Speaker3.jpg,Images/Speaker4.jpg,Audio/Speaker2_En/P2-4-En.wav,Speaker2,گوینده۲,,,,,,,,,0,1,1,70,0,33,33,23,343.0115068340001,,,,,,,,,,,,,,,,,,,,,,,,,,,,,,,,,,,,,,,,,,,,,342.9884977090005,343.0115068340001,343.0115068340001,343.0115068340001,343.0115068340001,343.0202717503339,343.0115068340001,343.0115068340001,344.31055683400064,Correct! صحیح است,0,228,2,1.2951168330000655,None,344.3144137920008,344.32586787500077,346.31489650000003,,,,,,784836,001,2024-07-01_18h15.50.825,5-26,2024.1.4,None,2024-07-01 18h15.55.827796 +0900,
Images/Speaker1.jpg,Images/Speaker2.jpg,Images/Speaker3.jpg,Images/Speaker4.jpg,Audio/Speaker2_En/P2-19-En.wav,Speaker2,گوینده۲,,,,,,,,,0,1,1,70,0,34,34,38,346.33635479200075,,,,,,,,,,,,,,,,,,,,,,,,,,,,,,,,,,,,,,,,,,,,,346.3150829169999,346.33635479200075,346.33635479200075,346.33635479200075,346.33635479200075,346.3315295006671,346.33635479200075,346.33635479200075,348.4125376669999,Correct! صحیح است,0,230,2,2.071643582999968,None,348.4168928750005,348.4294200000004,350.41464595900015,350.43621233400063,,,,,784836,001,2024-07-01_18h15.50.825,5-26,2024.1.4,None,2024-07-01 18h15.55.827796 +0900,
Images/Speaker1.jpg,Images/Speaker2.jpg,Images/Speaker3.jpg,Images/Speaker4.jpg,Audio/Speaker3_En/P3-16-En.wav,Speaker3,گوینده۳,,,,,,,,,0,1,1,70,0,35,35,55,350.43621233400063,,,,,,,,,,,,,,,,,,,,,,,,,,,,,,,,,,,,,,,,,,,,,350.4148667920008,350.43621233400063,350.43621233400063,350.43621233400063,350.43621233400063,350.43106183366694,350.43621233400063,350.43621233400063,352.2608953750005,Correct! صحیح است,0,232,3,1.8182453750005152,None,352.26471525000034,352.2762227920002,354.2602555000003,354.28142362500057,,,,,784836,001,2024-07-01_18h15.50.825,5-26,2024.1.4,None,2024-07-01 18h15.55.827796 +0900,
Images/Speaker1.jpg,Images/Speaker2.jpg,Images/Speaker3.jpg,Images/Speaker4.jpg,Audio/Speaker2_En/P2-17-En.wav,Speaker2,گوینده۲,,,,,,,,,0,1,1,70,0,36,36,36,354.28142362500057,,,,,,,,,,,,,,,,,,,,,,,,,,,,,,,,,,,,,,,,,,,,,354.26043500000014,354.28142362500057,354.28142362500057,354.28142362500057,354.28142362500057,354.27667079166736,354.28142362500057,354.28142362500057,356.0003112500008,Correct! صحیح است,0,234,2,1.7128120420002233,None,356.00501791700026,356.01767500000005,358.0041011249996,358.02543866700034,,,,,784836,001,2024-07-01_18h15.50.825,5-26,2024.1.4,None,2024-07-01 18h15.55.827796 +0900,
Images/Speaker1.jpg,Images/Speaker2.jpg,Images/Speaker3.jpg,Images/Speaker4.jpg,Audio/Speaker4_En/P4-8-En.wav,Speaker4,گوینده۴,,,,,,,,,0,1,1,70,0,37,37,67,358.02543866700034,,,,,,,,,,,,,,,,,,,,,,,,,,,,,,,,,,,,,,,,,,,,,358.00428408399966,358.02543866700034,358.02543866700034,358.02543866700034,358.02543866700034,358.02044154166674,358.02543866700034,358.02543866700034,360.67487249999976,Correct! صحیح است,0,236,4,2.6434104170002684,None,360.6788446669998,360.6905409170013,362.6783207919998,362.7007559169997,,,,,784836,001,2024-07-01_18h15.50.825,5-26,2024.1.4,None,2024-07-01 18h15.55.827796 +0900,
Images/Speaker1.jpg,Images/Speaker2.jpg,Images/Speaker3.jpg,Images/Speaker4.jpg,Audio/Speaker2_En/P2-8-En.wav,Speaker2,گوینده۲,,,,,,,,,0,1,1,70,0,38,38,27,362.7007559169997,,,,,,,,,,,,,,,,,,,,,,,,,,,,,,,,,,,,,,,,,,,,,362.6788790419996,362.7007559169997,362.7007559169997,362.7007559169997,362.7007559169997,362.7106582503334,362.7007559169997,362.7007559169997,363.84890279200044,Correct! صحیح است,0,238,2,1.1463101669996831,None,363.85314708400074,363.86425333400075,365.8506413750001,365.87176904199987,,,,,784836,001,2024-07-01_18h15.50.825,5-26,2024.1.4,None,2024-07-01 18h15.55.827796 +0900,
Images/Speaker1.jpg,Images/Speaker2.jpg,Images/Speaker3.jpg,Images/Speaker4.jpg,Audio/Speaker2_En/P2-1-En.wav,Speaker2,گوینده۲,,,,,,,,,0,1,1,70,0,39,39,20,365.87176904199987,,,,,,,,,,,,,,,,,,,,,,,,,,,,,,,,,,,,,,,,,,,,,365.85080016699976,365.87176904199987,365.87176904199987,365.87176904199987,365.87176904199987,365.86701637566716,365.87176904199987,365.87176904199987,367.0687163750008,Correct! صحیح است,0,240,2,1.1888915409999754,None,367.07287708399963,367.0846548749996,369.0727832499997,369.09760987499976,,,,,784836,001,2024-07-01_18h15.50.825,5-26,2024.1.4,None,2024-07-01 18h15.55.827796 +0900,
Images/Speaker1.jpg,Images/Speaker2.jpg,Images/Speaker3.jpg,Images/Speaker4.jpg,Audio/Speaker1_En/P1-16-En.wav,Speaker1,گوینده ۱,,,,,,,,,0,1,1,70,0,40,40,15,369.09760987499976,,,,,,,,,,,,,,,,,,,,,,,,,,,,,,,,,,,,,,,,,,,,,369.0738271250011,369.09760987499976,369.09760987499976,369.09760987499976,369.09760987499976,369.10498416733435,369.09760987499976,369.09760987499976,370.3914985419997,Correct! صحیح است,0,242,1,1.2905599999994593,None,370.3957153749998,370.407201,372.39106033400094,372.41328841700124,,,,,784836,001,2024-07-01_18h15.50.825,5-26,2024.1.4,None,2024-07-01 18h15.55.827796 +0900,
Images/Speaker1.jpg,Images/Speaker2.jpg,Images/Speaker3.jpg,Images/Speaker4.jpg,Audio/Speaker3_En/P3-1-En.wav,Speaker3,گوینده۳,,,,,,,,,0,1,1,70,0,41,41,40,372.41328841700124,,,,,,,,,,,,,,,,,,,,,,,,,,,,,,,,,,,,,,,,,,,,,372.39126379200025,372.41328841700124,372.41328841700124,372.41328841700124,372.41328841700124,372.4074147506674,372.41328841700124,372.41328841700124,375.41819612499967,Correct! صحیح است,0,244,3,3.0030580420007027,None,375.4221833749998,375.43367650000073,377.41666595900097,377.43819562499993,,,,,784836,001,2024-07-01_18h15.50.825,5-26,2024.1.4,None,2024-07-01 18h15.55.827796 +0900,
Images/Speaker1.jpg,Images/Speaker2.jpg,Images/Speaker3.jpg,Images/Speaker4.jpg,Audio/Speaker3_En/P3-12-En.wav,Speaker3,گوینده۳,,,,,,,,,0,1,1,70,0,42,42,51,377.43819562499993,,,,,,,,,,,,,,,,,,,,,,,,,,,,,,,,,,,,,,,,,,,,,377.41686862499955,377.43819562499993,377.43819562499993,377.43819562499993,377.43819562499993,377.4330719166667,377.43819562499993,377.43819562499993,380.2585842090011,Correct! صحیح است,0,246,3,2.816178832999867,None,380.25882162500056,380.27032766699995,382.2542623749996,382.27724695899997,,,,,784836,001,2024-07-01_18h15.50.825,5-26,2024.1.4,None,2024-07-01 18h15.55.827796 +0900,
Images/Speaker1.jpg,Images/Speaker2.jpg,Images/Speaker3.jpg,Images/Speaker4.jpg,Audio/Speaker1_En/P1-13-En.wav,Speaker1,گوینده ۱,,,,,,,,,0,1,1,70,0,43,43,12,382.27724695899997,,,,,,,,,,,,,,,,,,,,,,,,,,,,,,,,,,,,,,,,,,,,,382.2549218340009,382.27724695899997,382.27724695899997,382.27724695899997,382.27724695899997,382.2865789583343,382.27724695899997,382.27724695899997,383.91809850000027,Correct! صحیح است,0,248,1,1.6291031669989025,None,383.92205316699983,383.93134816699967,385.9155845839996,385.9376247500004,,,,,784836,001,2024-07-01_18h15.50.825,5-26,2024.1.4,None,2024-07-01 18h15.55.827796 +0900,
Images/Speaker1.jpg,Images/Speaker2.jpg,Images/Speaker3.jpg,Images/Speaker4.jpg,Audio/Speaker4_En/P4-4-En.wav,Speaker4,گوینده۴,,,,,,,,,0,1,1,70,0,44,44,63,385.9376247500004,,,,,,,,,,,,,,,,,,,,,,,,,,,,,,,,,,,,,,,,,,,,,385.9157854590012,385.9376247500004,385.9376247500004,385.9376247500004,385.9376247500004,385.9318630416676,385.9376247500004,385.9376247500004,387.67477766699994,Correct! صحیح است,0,250,4,1.7302805419985816,None,387.67864558400106,387.6879217090009,389.6794808750001,389.7048092919995,,,,,784836,001,2024-07-01_18h15.50.825,5-26,2024.1.4,None,2024-07-01 18h15.55.827796 +0900,
Images/Speaker1.jpg,Images/Speaker2.jpg,Images/Speaker3.jpg,Images/Speaker4.jpg,Audio/Speaker2_En/P2-14-En.wav,Speaker2,گوینده۲,,,,,,,,,0,1,1,70,0,45,45,33,389.7048092919995,,,,,,,,,,,,,,,,,,,,,,,,,,,,,,,,,,,,,,,,,,,,,389.68033445900073,389.7048092919995,389.7048092919995,389.7048092919995,389.7048092919995,389.7118320003342,389.7048092919995,389.7048092919995,390.9529157090001,Correct! صحیح است,0,252,2,1.2455393750005896,None,390.9570954999999,390.9683895420003,392.96065195899973,,,,,,784836,001,2024-07-01_18h15.50.825,5-26,2024.1.4,None,2024-07-01 18h15.55.827796 +0900,
Images/Speaker1.jpg,Images/Speaker2.jpg,Images/Speaker3.jpg,Images/Speaker4.jpg,Audio/Speaker2_En/P2-6-En.wav,Speaker2,گوینده۲,,,,,,,,,0,1,1,70,0,46,46,25,392.98113987500074,,,,,,,,,,,,,,,,,,,,,,,,,,,,,,,,,,,,,,,,,,,,,392.9608127089996,392.98113987500074,392.98113987500074,392.98113987500074,392.98113987500074,392.97728837566706,392.98113987500074,392.98113987500074,394.4172684590012,Correct! صحیح است,0,254,2,1.4272665829994367,None,394.4211091670004,394.43250462499964,396.4212675840008,,,,,,784836,001,2024-07-01_18h15.50.825,5-26,2024.1.4,None,2024-07-01 18h15.55.827796 +0900,
Images/Speaker1.jpg,Images/Speaker2.jpg,Images/Speaker3.jpg,Images/Speaker4.jpg,Audio/Speaker2_En/P2-15-En.wav,Speaker2,گوینده۲,,,,,,,,,0,1,1,70,0,47,47,34,396.44551595899975,,,,,,,,,,,,,,,,,,,,,,,,,,,,,,,,,,,,,,,,,,,,,396.4218446249997,396.44551595899975,396.44551595899975,396.44551595899975,396.44551595899975,396.4544535003338,396.44551595899975,396.44551595899975,397.68219166699964,Correct! صحیح است,0,256,2,1.2345769170005951,None,397.6861457089999,397.69722954200006,399.68319254200105,399.7045870840011,,,,,784836,001,2024-07-01_18h15.50.825,5-26,2024.1.4,None,2024-07-01 18h15.55.827796 +0900,
Images/Speaker1.jpg,Images/Speaker2.jpg,Images/Speaker3.jpg,Images/Speaker4.jpg,Audio/Speaker1_En/P1-18-En.wav,Speaker1,گوینده ۱,,,,,,,,,0,1,1,70,0,48,48,17,399.7045870840011,,,,,,,,,,,,,,,,,,,,,,,,,,,,,,,,,,,,,,,,,,,,,399.683393542,399.7045870840011,399.7045870840011,399.7045870840011,399.7045870840011,399.6995342916673,399.7045870840011,399.7045870840011,400.9785613340009,Correct! صحیح است,0,258,1,1.2702022079993185,None,400.982432584,400.993891084001,402.988496209,,,,,,784836,001,2024-07-01_18h15.50.825,5-26,2024.1.4,None,2024-07-01 18h15.55.827796 +0900,
Images/Speaker1.jpg,Images/Speaker2.jpg,Images/Speaker3.jpg,Images/Speaker4.jpg,Audio/Speaker3_En/P3-19-En.wav,Speaker3,گوینده۳,,,,,,,,,0,1,1,70,0,49,49,58,403.0122677920008,,,,,,,,,,,,,,,,,,,,,,,,,,,,,,,,,,,,,,,,,,,,,402.98912937500063,403.0122677920008,403.0122677920008,403.0122677920008,403.0122677920008,403.0216852503331,403.0122677920008,403.0122677920008,405.75238229200113,Correct! صحیح است,0,260,3,2.734080290998463,None,405.75622029199985,405.7681922089996,407.7608574170008,,,,,,784836,001,2024-07-01_18h15.50.825,5-26,2024.1.4,None,2024-07-01 18h15.55.827796 +0900,
Images/Speaker1.jpg,Images/Speaker2.jpg,Images/Speaker3.jpg,Images/Speaker4.jpg,Audio/Speaker4_En/P4-16-En.wav,Speaker4,گوینده۴,,,,,,,,,0,1,1,70,0,50,50,75,407.78384579200065,,,,,,,,,,,,,,,,,,,,,,,,,,,,,,,,,,,,,,,,,,,,,407.76157112500005,407.78384579200065,407.78384579200065,407.78384579200065,407.78384579200065,407.7940415003345,407.78384579200065,407.78384579200065,409.24308737499996,Correct! صحیح است,0,262,4,1.4550365000013699,None,409.24709958400126,409.25842891700086,411.2452777920007,411.26708158400106,,,,,784836,001,2024-07-01_18h15.50.825,5-26,2024.1.4,None,2024-07-01 18h15.55.827796 +0900,
Images/Speaker1.jpg,Images/Speaker2.jpg,Images/Speaker3.jpg,Images/Speaker4.jpg,Audio/Speaker3_En/P3-17-En.wav,Speaker3,گوینده۳,,,,,,,,,0,1,1,70,0,51,51,56,411.26708158400106,,,,,,,,,,,,,,,,,,,,,,,,,,,,,,,,,,,,,,,,,,,,,411.24583420900126,411.26708158400106,411.26708158400106,411.26708158400106,411.26708158400106,411.26095045866737,411.26708158400106,411.26708158400106,412.97656745899985,Correct! صحیح است,0,264,3,1.7020951670001523,None,412.9805995000006,412.9918918750009,414.98818279199986,,,,,,784836,001,2024-07-01_18h15.50.825,5-26,2024.1.4,None,2024-07-01 18h15.55.827796 +0900,
Images/Speaker1.jpg,Images/Speaker2.jpg,Images/Speaker3.jpg,Images/Speaker4.jpg,Audio/Speaker3_En/P3-14-En.wav,Speaker3,گوینده۳,,,,,,,,,0,1,1,70,0,52,52,53,415.0158261249999,,,,,,,,,,,,,,,,,,,,,,,,,,,,,,,,,,,,,,,,,,,,,414.98880775,415.0158261249999,415.0158261249999,415.0158261249999,415.0158261249999,415.02136483333425,415.0158261249999,415.0158261249999,418.40705395900113,Correct! صحیح است,0,266,3,3.3881269169996813,None,418.4112579169996,418.4220571670012,420.41343433400107,,,,,,784836,001,2024-07-01_18h15.50.825,5-26,2024.1.4,None,2024-07-01 18h15.55.827796 +0900,
Images/Speaker1.jpg,Images/Speaker2.jpg,Images/Speaker3.jpg,Images/Speaker4.jpg,Audio/Speaker4_En/P4-7-En.wav,Speaker4,گوینده۴,,,,,,,,,0,1,1,70,0,53,53,66,420.43506470899956,,,,,,,,,,,,,,,,,,,,,,,,,,,,,,,,,,,,,,,,,,,,,420.41361891700035,420.43506470899956,420.43506470899956,420.43506470899956,420.43506470899956,420.4300619586668,420.43506470899956,420.43506470899956,421.711682000001,Correct! صحیح است,0,268,4,1.275333875000797,None,421.71596175000013,421.72683504199995,423.71117100000083,423.73254350000025,,,,,784836,001,2024-07-01_18h15.50.825,5-26,2024.1.4,None,2024-07-01 18h15.55.827796 +0900,
Images/Speaker1.jpg,Images/Speaker2.jpg,Images/Speaker3.jpg,Images/Speaker4.jpg,Audio/Speaker3_En/P3-11-En.wav,Speaker3,گوینده۳,,,,,,,,,0,1,1,70,0,54,54,50,423.73254350000025,,,,,,,,,,,,,,,,,,,,,,,,,,,,,,,,,,,,,,,,,,,,,423.7113423339997,423.73254350000025,423.73254350000025,423.73254350000025,423.73254350000025,423.7275611256666,423.73254350000025,423.73254350000025,425.30985491700085,Correct! صحیح است,0,270,3,1.5668905420006922,None,425.31381341700035,425.32562433400017,427.3115366250004,427.33270937499947,,,,,784836,001,2024-07-01_18h15.50.825,5-26,2024.1.4,None,2024-07-01 18h15.55.827796 +0900,
Images/Speaker1.jpg,Images/Speaker2.jpg,Images/Speaker3.jpg,Images/Speaker4.jpg,Audio/Speaker3_En/P3-5-En.wav,Speaker3,گوینده۳,,,,,,,,,0,1,1,70,0,55,55,44,427.33270937499947,,,,,,,,,,,,,,,,,,,,,,,,,,,,,,,,,,,,,,,,,,,,,427.3117485420007,427.33270937499947,427.33270937499947,427.33270937499947,427.33270937499947,427.3279293336675,427.33270937499947,427.33270937499947,428.71587283400004,Correct! صحیح است,0,272,3,1.3784893330011982,None,428.7197197500009,428.7307542090002,430.71455541700016,430.73625275000086,,,,,784836,001,2024-07-01_18h15.50.825,5-26,2024.1.4,None,2024-07-01 18h15.55.827796 +0900,
Images/Speaker1.jpg,Images/Speaker2.jpg,Images/Speaker3.jpg,Images/Speaker4.jpg,Audio/Speaker3_En/P3-6-En.wav,Speaker3,گوینده۳,,,,,,,,,0,1,1,70,0,56,56,45,430.73625275000086,,,,,,,,,,,,,,,,,,,,,,,,,,,,,,,,,,,,,,,,,,,,,430.71474300000045,430.73625275000086,430.73625275000086,430.73625275000086,430.73625275000086,430.73099645866773,430.73625275000086,430.73625275000086,432.9074515840002,Correct! صحیح است,0,274,3,2.1618422079991433,None,432.9113500420008,432.9198579170006,434.9131839170004,,,,,,784836,001,2024-07-01_18h15.50.825,5-26,2024.1.4,None,2024-07-01 18h15.55.827796 +0900,
Images/Speaker1.jpg,Images/Speaker2.jpg,Images/Speaker3.jpg,Images/Speaker4.jpg,Audio/Speaker1_En/P1-12-En.wav,Speaker1,گوینده ۱,,,,,,,,,0,1,1,70,0,57,57,11,434.93672716699984,,,,,,,,,,,,,,,,,,,,,,,,,,,,,,,,,,,,,,,,,,,,,434.9137859170005,434.93672716699984,434.93672716699984,434.93672716699984,434.93672716699984,434.9463429583343,434.93672716699984,434.93672716699984,436.2012791670004,Correct! صحیح است,0,276,1,1.2587932499991439,None,436.2059547500012,436.21801345899985,438.20540308400086,438.22813854200103,,,,,784836,001,2024-07-01_18h15.50.825,5-26,2024.1.4,None,2024-07-01 18h15.55.827796 +0900,
Images/Speaker1.jpg,Images/Speaker2.jpg,Images/Speaker3.jpg,Images/Speaker4.jpg,Audio/Speaker1_En/P1-4-En.wav,Speaker1,گوینده ۱,,,,,,,,,0,1,1,70,0,58,58,3,438.22813854200103,,,,,,,,,,,,,,,,,,,,,,,,,,,,,,,,,,,,,,,,,,,,,438.20632916700015,438.22813854200103,438.22813854200103,438.22813854200103,438.22813854200103,438.2377235003337,438.22813854200103,438.22813854200103,439.452461750001,Correct! صحیح است,0,278,1,1.2224377080001432,None,439.4563941670003,439.4689970420004,441.4629662919997,,,,,,784836,001,2024-07-01_18h15.50.825,5-26,2024.1.4,None,2024-07-01 18h15.55.827796 +0900,
Images/Speaker1.jpg,Images/Speaker2.jpg,Images/Speaker3.jpg,Images/Speaker4.jpg,Audio/Speaker2_En/P2-13-En.wav,Speaker2,گوینده۲,,,,,,,,,0,1,1,70,0,59,59,32,441.48743679200015,,,,,,,,,,,,,,,,,,,,,,,,,,,,,,,,,,,,,,,,,,,,,441.4636181250007,441.48743679200015,441.48743679200015,441.48743679200015,441.48743679200015,441.49609691733394,441.48743679200015,441.48743679200015,442.7574665840002,Correct! صحیح است,0,280,2,1.268786208000165,None,442.7616820000003,442.7734647090001,444.7603797920001,444.7821369590001,,,,,784836,001,2024-07-01_18h15.50.825,5-26,2024.1.4,None,2024-07-01 18h15.55.827796 +0900,
Images/Speaker1.jpg,Images/Speaker2.jpg,Images/Speaker3.jpg,Images/Speaker4.jpg,Audio/Speaker2_En/P2-2-En.wav,Speaker2,گوینده۲,,,,,,,,,0,1,1,70,0,60,60,21,444.7821369590001,,,,,,,,,,,,,,,,,,,,,,,,,,,,,,,,,,,,,,,,,,,,,444.76056845899984,444.7821369590001,444.7821369590001,444.7821369590001,444.7821369590001,444.7768308756679,444.7821369590001,444.7821369590001,445.80282850000003,Correct! صحیح است,0,282,2,1.014090041999225,None,445.80771512499996,445.82070495900007,447.81423041699964,,,,,,784836,001,2024-07-01_18h15.50.825,5-26,2024.1.4,None,2024-07-01 18h15.55.827796 +0900,
Images/Speaker1.jpg,Images/Speaker2.jpg,Images/Speaker3.jpg,Images/Speaker4.jpg,Audio/Speaker4_En/P4-2-En.wav,Speaker4,گوینده۴,,,,,,,,,0,1,1,70,0,61,61,61,447.83821204200103,,,,,,,,,,,,,,,,,,,,,,,,,,,,,,,,,,,,,,,,,,,,,447.81480133399964,447.83821204200103,447.83821204200103,447.83821204200103,447.83821204200103,447.8474037083329,447.83821204200103,447.83821204200103,449.1155579589995,Correct! صحیح است,0,284,4,1.273043791999953,None,449.1198196250007,449.13046158399993,451.12111829199966,,,,,,784836,001,2024-07-01_18h15.50.825,5-26,2024.1.4,None,2024-07-01 18h15.55.827796 +0900,
Images/Speaker1.jpg,Images/Speaker2.jpg,Images/Speaker3.jpg,Images/Speaker4.jpg,Audio/Speaker3_En/P3-2-En.wav,Speaker3,گوینده۳,,,,,,,,,0,1,1,70,0,62,62,41,451.1477995839996,,,,,,,,,,,,,,,,,,,,,,,,,,,,,,,,,,,,,,,,,,,,,451.1217182090004,451.1477995839996,451.1477995839996,451.1477995839996,451.1477995839996,451.15425970833394,451.1477995839996,451.1477995839996,452.25953304200084,Correct! صحیح است,0,286,3,1.1013964590001706,None,452.2632400420007,452.274278334,454.26282520899986,454.28735395900003,,,,,784836,001,2024-07-01_18h15.50.825,5-26,2024.1.4,None,2024-07-01 18h15.55.827796 +0900,
Images/Speaker1.jpg,Images/Speaker2.jpg,Images/Speaker3.jpg,Images/Speaker4.jpg,Audio/Speaker1_En/P1-10-En.wav,Speaker1,گوینده ۱,,,,,,,,,0,1,1,70,0,63,63,9,454.28735395900003,,,,,,,,,,,,,,,,,,,,,,,,,,,,,,,,,,,,,,,,,,,,,454.2634021670001,454.28735395900003,454.28735395900003,454.28735395900003,454.28735395900003,454.29518675033296,454.28735395900003,454.28735395900003,455.7141861250002,Correct! صحیح است,0,288,1,1.4219060830000672,None,455.7182979170011,455.72977312500007,457.7134047090003,457.73482383400005,,,,,784836,001,2024-07-01_18h15.50.825,5-26,2024.1.4,None,2024-07-01 18h15.55.827796 +0900,
Images/Speaker1.jpg,Images/Speaker2.jpg,Images/Speaker3.jpg,Images/Speaker4.jpg,Audio/Speaker1_En/P1-11-En.wav,Speaker1,گوینده ۱,,,,,,,,,0,1,1,70,0,64,64,10,457.73482383400005,,,,,,,,,,,,,,,,,,,,,,,,,,,,,,,,,,,,,,,,,,,,,457.7135825000005,457.73482383400005,457.73482383400005,457.73482383400005,457.73482383400005,457.7298508756669,457.73482383400005,457.73482383400005,459.1359647090012,Correct! صحیح است,0,290,1,1.3944955000006303,None,459.1401786250008,459.1513172499999,461.13749087500037,461.16250975,,,,,784836,001,2024-07-01_18h15.50.825,5-26,2024.1.4,None,2024-07-01 18h15.55.827796 +0900,
Images/Speaker1.jpg,Images/Speaker2.jpg,Images/Speaker3.jpg,Images/Speaker4.jpg,Audio/Speaker1_En/P1-5-En.wav,Speaker1,گوینده ۱,,,,,,,,,0,1,1,70,0,65,65,4,461.16250975,,,,,,,,,,,,,,,,,,,,,,,,,,,,,,,,,,,,,,,,,,,,,461.1381359999996,461.16250975,461.16250975,461.16250975,461.16250975,461.16985695833364,461.16250975,461.16250975,462.9787436250008,Correct! صحیح است,0,292,1,1.8123817920004512,None,462.9827184170008,462.9940926670006,464.985333042001,,,,,,784836,001,2024-07-01_18h15.50.825,5-26,2024.1.4,None,2024-07-01 18h15.55.827796 +0900,
Images/Speaker1.jpg,Images/Speaker2.jpg,Images/Speaker3.jpg,Images/Speaker4.jpg,Audio/Speaker2_En/P2-3-En.wav,Speaker2,گوینده۲,,,,,,,,,0,1,1,70,0,66,66,22,465.010002084,,,,,,,,,,,,,,,,,,,,,,,,,,,,,,,,,,,,,,,,,,,,,464.9860319590007,465.010002084,465.010002084,465.010002084,465.010002084,465.0184945003334,465.010002084,465.010002084,466.35706020900034,Correct! صحیح است,0,294,2,1.3454111669998383,None,466.3608466250007,466.37215837500116,468.36187658400013,468.3866866669996,,,,,784836,001,2024-07-01_18h15.50.825,5-26,2024.1.4,None,2024-07-01 18h15.55.827796 +0900,
Images/Speaker1.jpg,Images/Speaker2.jpg,Images/Speaker3.jpg,Images/Speaker4.jpg,Audio/Speaker4_En/P4-10-En.wav,Speaker4,گوینده۴,,,,,,,,,0,1,1,70,0,67,67,69,468.3866866669996,,,,,,,,,,,,,,,,,,,,,,,,,,,,,,,,,,,,,,,,,,,,,468.36242295900047,468.3866866669996,468.3866866669996,468.3866866669996,468.3866866669996,468.39404704233357,468.3866866669996,468.3866866669996,470.00952425000105,Correct! صحیح است,0,296,4,1.6148924169992824,None,470.01363200000014,470.025071,472.01415129199995,,,,,,784836,001,2024-07-01_18h15.50.825,5-26,2024.1.4,None,2024-07-01 18h15.55.827796 +0900,
Images/Speaker1.jpg,Images/Speaker2.jpg,Images/Speaker3.jpg,Images/Speaker4.jpg,Audio/Speaker4_En/P4-3-En.wav,Speaker4,گوینده۴,,,,,,,,,0,1,1,70,0,68,68,62,472.03512562499964,,,,,,,,,,,,,,,,,,,,,,,,,,,,,,,,,,,,,,,,,,,,,472.01433083400116,472.03512562499964,472.03512562499964,472.03512562499964,472.03512562499964,472.03077983366734,472.03512562499964,472.03512562499964,473.33510150000075,Correct! صحیح است,0,298,4,1.288807667000583,None,473.3393664590003,473.34852720900017,475.33997116700084,475.3626881250002,,,,,784836,001,2024-07-01_18h15.50.825,5-26,2024.1.4,None,2024-07-01 18h15.55.827796 +0900,
Images/Speaker1.jpg,Images/Speaker2.jpg,Images/Speaker3.jpg,Images/Speaker4.jpg,Audio/Speaker4_En/P4-17-En.wav,Speaker4,گوینده۴,,,,,,,,,0,1,1,70,0,69,69,76,475.3626881250002,,,,,,,,,,,,,,,,,,,,,,,,,,,,,,,,,,,,,,,,,,,,,475.3409757090012,475.3626881250002,475.3626881250002,475.3626881250002,475.3626881250002,475.3720770423338,475.3626881250002,475.3626881250002,477.43516370900034,Correct! صحیح است,0,300,4,2.0714550409993535,None,477.4403515419999,477.45403045900093,479.4387621670012,479.4608720840006,,,,,784836,001,2024-07-01_18h15.50.825,5-26,2024.1.4,None,2024-07-01 18h15.55.827796 +0900,
Images/Speaker1.jpg,Images/Speaker2.jpg,Images/Speaker3.jpg,Images/Speaker4.jpg,Audio/Speaker3_En/P3-15-En.wav,Speaker3,گوینده۳,,,,,,,,,0,1,1,70,0,70,70,54,479.4608720840006,,,,,,,,,,,,,,,,,,,,,,,,,,,,,,,,,,,,,,,,,,,,,479.43894137499956,479.4608720840006,479.4608720840006,479.4608720840006,479.4608720840006,479.45520716666783,479.4608720840006,479.4608720840006,481.5557737500003,Correct! صحیح است,0,302,3,2.084139459000653,None,481.5596672499996,481.57127000000037,483.5641086249998,,,,,,784836,001,2024-07-01_18h15.50.825,5-26,2024.1.4,None,2024-07-01 18h15.55.827796 +0900,
Images/Speaker1.jpg,Images/Speaker2.jpg,Images/Speaker3.jpg,Images/Speaker4.jpg,Audio/Speaker2_En/P2-5-En.wav,Speaker2,گوینده۲,,,,,,,,,0,1,1,70,0,71,71,24,483.588999167001,,,,,,,,,,,,,,,,,,,,,,,,,,,,,,,,,,,,,,,,,,,,,483.56480441700114,483.588999167001,483.588999167001,483.588999167001,483.588999167001,483.5972717923328,483.588999167001,483.588999167001,484.92670499999986,Correct! صحیح است,0,304,2,1.3333985409990419,None,484.9309238750011,484.9422617500004,486.9276079169995,486.9477001670002,,,,,784836,001,2024-07-01_18h15.50.825,5-26,2024.1.4,None,2024-07-01 18h15.55.827796 +0900,
Images/Speaker1.jpg,Images/Speaker2.jpg,Images/Speaker3.jpg,Images/Speaker4.jpg,Audio/Speaker4_En/P4-20-En.wav,Speaker4,گوینده۴,,,,,,,,,0,1,1,70,0,72,72,79,486.9477001670002,,,,,,,,,,,,,,,,,,,,,,,,,,,,,,,,,,,,,,,,,,,,,486.9277746250009,486.9477001670002,486.9477001670002,486.9477001670002,486.9477001670002,486.9440441666668,486.9477001670002,486.9477001670002,489.6820310840012,Correct! صحیح است,0,306,4,2.731842332999804,None,489.6822457500002,489.693308625001,491.6769230000009,491.69835841700115,,,,,784836,001,2024-07-01_18h15.50.825,5-26,2024.1.4,None,2024-07-01 18h15.55.827796 +0900,
Images/Speaker1.jpg,Images/Speaker2.jpg,Images/Speaker3.jpg,Images/Speaker4.jpg,Audio/Speaker1_En/P1-8-En.wav,Speaker1,گوینده ۱,,,,,,,,,0,1,1,70,0,73,73,7,491.69835841700115,,,,,,,,,,,,,,,,,,,,,,,,,,,,,,,,,,,,,,,,,,,,,491.67710329200054,491.69835841700115,491.69835841700115,491.69835841700115,491.69835841700115,491.69328154166783,491.69835841700115,491.69835841700115,493.81405554199955,Correct! صحیح است,0,308,1,2.1052950839984987,None,493.81815058400025,493.82728925000083,495.81099687499955,495.8321434589998,,,,,784836,001,2024-07-01_18h15.50.825,5-26,2024.1.4,None,2024-07-01 18h15.55.827796 +0900,
Images/Speaker1.jpg,Images/Speaker2.jpg,Images/Speaker3.jpg,Images/Speaker4.jpg,Audio/Speaker3_En/P3-7-En.wav,Speaker3,گوینده۳,,,,,,,,,0,1,1,70,0,74,74,46,495.8321434589998,,,,,,,,,,,,,,,,,,,,,,,,,,,,,,,,,,,,,,,,,,,,,495.8111896669998,495.8321434589998,495.8321434589998,495.8321434589998,495.8321434589998,495.8273803336672,495.8321434589998,495.8321434589998,497.43684020900037,Correct! صحیح است,0,310,3,1.5975397500005784,None,497.441563417,497.4548366250001,499.438455417001,499.4596153750008,,,,,784836,001,2024-07-01_18h15.50.825,5-26,2024.1.4,None,2024-07-01 18h15.55.827796 +0900,
Images/Speaker1.jpg,Images/Speaker2.jpg,Images/Speaker3.jpg,Images/Speaker4.jpg,Audio/Speaker2_En/P2-7-En.wav,Speaker2,گوینده۲,,,,,,,,,0,1,1,70,0,75,75,26,499.4596153750008,,,,,,,,,,,,,,,,,,,,,,,,,,,,,,,,,,,,,,,,,,,,,499.4386647499996,499.4596153750008,499.4596153750008,499.4596153750008,499.4596153750008,499.45486108366663,499.4596153750008,499.4596153750008,500.4686890840003,Correct! صحیح است,0,312,2,1.0059628750004777,None,500.472562500001,500.4838765000004,502.47019416700095,502.4908854590012,,,,,784836,001,2024-07-01_18h15.50.825,5-26,2024.1.4,None,2024-07-01 18h15.55.827796 +0900,
