SpeakerImage1,SpeakerImage2,SpeakerImage3,SpeakerImage4,TrainingSound,EnglishCorrectAnswer,PersianCorrectAnswer,repeated_TrainingLoopGroup3.thisRepN,repeated_TrainingLoopGroup3.thisTrialN,repeated_TrainingLoopGroup3.thisN,repeated_TrainingLoopGroup3.thisIndex,TrainingLoopGroup3.thisRepN,TrainingLoopGroup3.thisTrialN,TrainingLoopGroup3.thisN,TrainingLoopGroup3.thisIndex,testPhase3Loop.thisRepN,testPhase3Loop.thisTrialN,testPhase3Loop.thisN,testPhase3Loop.thisIndex,SpeakerPhoto1,SpeakerPhoto2,SpeakerPhoto3,SpeakerPhoto4,TestingSound,EnglishCorrectResponse,PersianCorrectResponse,thisRow.t,notes,trial.started,trial.stopped,GroupSelection.started,GroupInstructions.started,key_resp.started,GroupSelection.stopped,key_resp.keys,key_resp.rt,key_resp.duration,Introduction.started,text_2.started,image.started,sound_7.started,text_4.started,text_2.stopped,sound_8.started,image.stopped,text_4.stopped,image_7.started,sound_9.started,text_5.started,sound_10.started,image_7.stopped,text_5.stopped,image_8.started,sound_11.started,text_6.started,sound_12.started,image_8.stopped,text_6.stopped,image_9.started,sound_13.started,text_7.started,sound_14.started,image_9.stopped,text_7.stopped,Introduction.stopped,Instructions.started,InstructionText.started,InstructionText.stopped,Instructions.stopped,InitializeExperiment.started,InitializeExperiment.stopped,TrainingGroup3.started,SpeakerPicture3.started,image_15.started,image_16.started,image_17.started,Sound3.started,Instruction3.started,Response3.started,TrainingGroup3.stopped,feedbackText,correct_responses_group3,total_trials_group3,Response3.keys,Response3.rt,Response3.duration,FeedbackRoutine3.started,FeedbackText3.started,FeedbackRoutine3.stopped,FeedbackText3.stopped,CheckAccuracy3.started,accuracy_group3,proceed_to_test,CheckAccuracy3.stopped,WelcomeTest.started,text_12.started,text_12.stopped,WelcomeTest.stopped,TestPhase3.started,test3_image1.started,test3_image2.started,test3_image3.started,test3_image4.started,test3_sound.started,text_10.started,test3_response_keyboard.started,participant,session,date,expName,psychopyVersion,frameRate,expStart,
,,,,,,,,,,,,,,,,,,,,,,,,,,,,0.009243082997272722,0.009639874999265885,,,,,,,,,,,,,,,,,,,,,,,,,,,,,,,,,,,,,,,,,,,,,,,,,,,,,,,,,,,,,,,,,,,,,,,,,,,,,789745,001,2024-07-02_11h26.34.870,5-31,2024.1.4,None,2024-07-02 11h26.40.798171 +0900,
,,,,,,,,,,,,,,,,,,,,,,,,,,,,,,0.009654707999288803,0.015901540999038843,0.015901540999038843,1.6896647499997925,3,1.63272670799779,None,,,,,,,,,,,,,,,,,,,,,,,,,,,,,,,,,,,,,,,,,,,,,,,,,,,,,,,,,,,,,,,,,,,,,,789745,001,2024-07-02_11h26.34.870,5-31,2024.1.4,None,2024-07-02 11h26.40.798171 +0900,
,,,,,,,,,,,,,,,,,,,,,,,,,,,,,,,,,,,,,1.6897010409993527,1.7494837079975696,6.690924749997066,6.699586832666925,6.690924749997066,6.746483374998206,11.688788207666464,16.679607499998383,16.679607499998383,16.679607499998383,16.69107887466477,16.679607499998383,21.697842624664432,26.67844949999926,26.67844949999926,26.682875749997038,26.695116166665926,26.682875749997038,31.695655124666033,36.68047824999667,36.68047824999667,36.68537799999831,36.69714491666333,36.68537799999831,41.69577099966433,46.68662662499992,46.68662662499992,46.682057499998336,,,,,,,,,,,,,,,,,,,,,,,,,,,,,,,,,,,,,,,,,,789745,001,2024-07-02_11h26.34.870,5-31,2024.1.4,None,2024-07-02 11h26.40.798171 +0900,
,,,,,,,,,,,,,,,,,,,,,,,,,,,,,,,,,,,,,,,,,,,,,,,,,,,,,,,,,,,,,,,,,46.6820774159969,46.68662662499992,47.75111249999827,47.67071470799783,,,,,,,,,,,,,,,,,,,,,,,,,,,,,,,,,,,,,,789745,001,2024-07-02_11h26.34.870,5-31,2024.1.4,None,2024-07-02 11h26.40.798171 +0900,
,,,,,,,,,,,,,,,,,,,,,,,,,,,,,,,,,,,,,,,,,,,,,,,,,,,,,,,,,,,,,,,,,,,,,47.67072704099701,47.670851082999434,,,,,,,,,,,,,,,,,,,,,,,,,,,,,,,,,,,,789745,001,2024-07-02_11h26.34.870,5-31,2024.1.4,None,2024-07-02 11h26.40.798171 +0900,
Images/Speaker1.jpg,Images/Speaker2.jpg,Images/Speaker3.jpg,Images/Speaker4.jpg,Audio/Speaker2_En/P2-4-En.wav,Speaker2,گوینده۲,0,0,0,15,0,0,0,23,,,,,,,,,,,,47.75111249999827,,,,,,,,,,,,,,,,,,,,,,,,,,,,,,,,,,,,,,,,,,,,,47.722823957999935,47.75111249999827,47.75111249999827,47.75111249999827,47.75111249999827,47.75387179133153,47.75111249999827,47.75111249999827,50.29911233299936,Incorrect! The correct answer is Speaker2. نادرست! پاسخ صحیح گوینده۲ است,0,1,1,2.5389620419991843,None,50.30365654100024,50.31676816599793,52.305362457998854,,,,,,,,,,,,,,,,,,789745,001,2024-07-02_11h26.34.870,5-31,2024.1.4,None,2024-07-02 11h26.40.798171 +0900,
Images/Speaker1.jpg,Images/Speaker2.jpg,Images/Speaker3.jpg,Images/Speaker4.jpg,Audio/Speaker2_En/P2-7-En.wav,Speaker2,گوینده۲,0,0,0,15,0,1,1,26,,,,,,,,,,,,52.32859470799667,,,,,,,,,,,,,,,,,,,,,,,,,,,,,,,,,,,,,,,,,,,,,52.30554133300029,52.32859470799667,52.32859470799667,52.32859470799667,52.32859470799667,52.33865787433072,52.32859470799667,52.32859470799667,52.32915120799953,Incorrect! The correct answer is Speaker2. نادرست! پاسخ صحیح گوینده۲ است,0,1,1,4.511778500000219,None,52.32957287499812,52.33951666599751,54.323883499997464,54.34701833299914,,,,,,,,,,,,,,,,,789745,001,2024-07-02_11h26.34.870,5-31,2024.1.4,None,2024-07-02 11h26.40.798171 +0900,
Images/Speaker1.jpg,Images/Speaker2.jpg,Images/Speaker3.jpg,Images/Speaker4.jpg,Audio/Speaker3_En/P3-18-En.wav,Speaker3,گوینده۳,0,0,0,15,0,2,2,57,,,,,,,,,,,,54.34701833299914,,,,,,,,,,,,,,,,,,,,,,,,,,,,,,,,,,,,,,,,,,,,,54.324060582999664,54.34701833299914,54.34701833299914,54.34701833299914,54.34701833299914,54.356880041330925,54.34701833299914,54.34701833299914,54.3580967079979,Incorrect! The correct answer is Speaker3. نادرست! پاسخ صحیح گوینده۳ است,0,1,1,0.006944292003026931,None,54.362088290999964,54.37453354099853,56.36268808299792,,,,,,,,,,,,,,,,,,789745,001,2024-07-02_11h26.34.870,5-31,2024.1.4,None,2024-07-02 11h26.40.798171 +0900,
Images/Speaker1.jpg,Images/Speaker2.jpg,Images/Speaker3.jpg,Images/Speaker4.jpg,Audio/Speaker3_En/P3-3-En.wav,Speaker3,گوینده۳,0,0,0,15,0,3,3,42,,,,,,,,,,,,56.38590362499963,,,,,,,,,,,,,,,,,,,,,,,,,,,,,,,,,,,,,,,,,,,,,56.362851040998066,56.38590362499963,56.38590362499963,56.38590362499963,56.38590362499963,56.37931724966644,56.38590362499963,56.38590362499963,56.63391045800017,Incorrect! The correct answer is Speaker3. نادرست! پاسخ صحیح گوینده۳ است,0,1,1,0.24574016599945026,None,56.63776549999966,56.650338832998386,58.63945991599758,,,,,,,,,,,,,,,,,,789745,001,2024-07-02_11h26.34.870,5-31,2024.1.4,None,2024-07-02 11h26.40.798171 +0900,
Images/Speaker1.jpg,Images/Speaker2.jpg,Images/Speaker3.jpg,Images/Speaker4.jpg,Audio/Speaker3_En/P3-2-En.wav,Speaker3,گوینده۳,0,0,0,15,0,4,4,41,,,,,,,,,,,,58.66783291599859,,,,,,,,,,,,,,,,,,,,,,,,,,,,,,,,,,,,,,,,,,,,,58.64008162499886,58.66783291599859,58.66783291599859,58.66783291599859,58.66783291599859,58.672636083331355,58.66783291599859,58.66783291599859,58.827107790999435,Incorrect! The correct answer is Speaker3. نادرست! پاسخ صحیح گوینده۳ است,0,1,1,0.14814841599945794,None,58.83088495799893,58.84472045799703,60.83162412499951,,,,,,,,,,,,,,,,,,789745,001,2024-07-02_11h26.34.870,5-31,2024.1.4,None,2024-07-02 11h26.40.798171 +0900,
Images/Speaker1.jpg,Images/Speaker2.jpg,Images/Speaker3.jpg,Images/Speaker4.jpg,Audio/Speaker3_En/P3-11-En.wav,Speaker3,گوینده۳,0,0,0,15,0,5,5,50,,,,,,,,,,,,60.8544629579992,,,,,,,,,,,,,,,,,,,,,,,,,,,,,,,,,,,,,,,,,,,,,60.83178279099957,60.8544629579992,60.8544629579992,60.8544629579992,60.8544629579992,60.8482610416652,60.8544629579992,60.8544629579992,60.93751045799945,Incorrect! The correct answer is Speaker3. نادرست! پاسخ صحیح گوینده۳ است,0,1,1,0.07815220799966482,None,60.9412000409975,60.9534073750001,62.93779345799703,62.96411212499879,,,,,,,,,,,,,,,,,789745,001,2024-07-02_11h26.34.870,5-31,2024.1.4,None,2024-07-02 11h26.40.798171 +0900,
Images/Speaker1.jpg,Images/Speaker2.jpg,Images/Speaker3.jpg,Images/Speaker4.jpg,Audio/Speaker3_En/P3-5-En.wav,Speaker3,گوینده۳,0,0,0,15,0,6,6,44,,,,,,,,,,,,62.96411212499879,,,,,,,,,,,,,,,,,,,,,,,,,,,,,,,,,,,,,,,,,,,,,62.93870983299712,62.96411212499879,62.96411212499879,62.96411212499879,62.96411212499879,62.970290249330475,62.96411212499879,62.96411212499879,63.125082708000264,Incorrect! The correct answer is Speaker3. نادرست! پاسخ صحیح گوینده۳ است,0,1,1,0.1598058339986892,None,63.130006332998164,63.14342258299803,65.12750599999708,65.15111716599858,,,,,,,,,,,,,,,,,789745,001,2024-07-02_11h26.34.870,5-31,2024.1.4,None,2024-07-02 11h26.40.798171 +0900,
Images/Speaker1.jpg,Images/Speaker2.jpg,Images/Speaker3.jpg,Images/Speaker4.jpg,Audio/Speaker4_En/P4-19-En.wav,Speaker4,گوینده۴,0,0,0,15,0,7,7,78,,,,,,,,,,,,65.15111716599858,,,,,,,,,,,,,,,,,,,,,,,,,,,,,,,,,,,,,,,,,,,,,65.12798437499805,65.15111716599858,65.15111716599858,65.15111716599858,65.15111716599858,65.16002020833233,65.15111716599858,65.15111716599858,65.45077887499792,Incorrect! The correct answer is Speaker4. نادرست! پاسخ صحیح گوینده۴ است,0,1,1,0.29482999999891035,None,65.45466404099716,65.4669524159981,67.4497823749989,67.47194091599886,,,,,,,,,,,,,,,,,789745,001,2024-07-02_11h26.34.870,5-31,2024.1.4,None,2024-07-02 11h26.40.798171 +0900,
Images/Speaker1.jpg,Images/Speaker2.jpg,Images/Speaker3.jpg,Images/Speaker4.jpg,Audio/Speaker3_En/P3-19-En.wav,Speaker3,گوینده۳,0,0,0,15,0,8,8,58,,,,,,,,,,,,67.47194091599886,,,,,,,,,,,,,,,,,,,,,,,,,,,,,,,,,,,,,,,,,,,,,67.44996266599992,67.47194091599886,67.47194091599886,67.47194091599886,67.47194091599886,67.46620808266404,67.47194091599886,67.47194091599886,67.65387958299834,Incorrect! The correct answer is Speaker3. نادرست! پاسخ صحیح گوینده۳ است,0,1,1,0.1801413749999483,None,67.65913733299749,67.67238137499953,69.65775458299686,69.68335929099703,,,,,,,,,,,,,,,,,789745,001,2024-07-02_11h26.34.870,5-31,2024.1.4,None,2024-07-02 11h26.40.798171 +0900,
Images/Speaker1.jpg,Images/Speaker2.jpg,Images/Speaker3.jpg,Images/Speaker4.jpg,Audio/Speaker2_En/P2-8-En.wav,Speaker2,گوینده۲,0,0,0,15,0,9,9,27,,,,,,,,,,,,69.68335929099703,,,,,,,,,,,,,,,,,,,,,,,,,,,,,,,,,,,,,,,,,,,,,69.65793729099823,69.68335929099703,69.68335929099703,69.68335929099703,69.68335929099703,69.69073520833311,69.68335929099703,69.68335929099703,69.68397924999954,Incorrect! The correct answer is Speaker2. نادرست! پاسخ صحیح گوینده۲ است,0,1,1,2.1979911669986905,None,69.68436045799899,69.69451829099853,71.67870458299876,71.70107945799828,,,,,,,,,,,,,,,,,789745,001,2024-07-02_11h26.34.870,5-31,2024.1.4,None,2024-07-02 11h26.40.798171 +0900,
Images/Speaker1.jpg,Images/Speaker2.jpg,Images/Speaker3.jpg,Images/Speaker4.jpg,Audio/Speaker1_En/P1-3-En.wav,Speaker1,گوینده ۱,0,0,0,15,0,10,10,2,,,,,,,,,,,,71.70107945799828,,,,,,,,,,,,,,,,,,,,,,,,,,,,,,,,,,,,,,,,,,,,,71.67887170799804,71.70107945799828,71.70107945799828,71.70107945799828,71.70107945799828,71.69515962466564,71.70107945799828,71.70107945799828,71.9752250829988,Correct! صحیح است,1,1,1,0.2709073339974566,None,71.9803992499983,71.99415795799723,73.97927666599935,74.0028239159983,,,,,,,,,,,,,,,,,789745,001,2024-07-02_11h26.34.870,5-31,2024.1.4,None,2024-07-02 11h26.40.798171 +0900,
Images/Speaker1.jpg,Images/Speaker2.jpg,Images/Speaker3.jpg,Images/Speaker4.jpg,Audio/Speaker2_En/P2-2-En.wav,Speaker2,گوینده۲,0,0,0,15,0,11,11,21,,,,,,,,,,,,74.0028239159983,,,,,,,,,,,,,,,,,,,,,,,,,,,,,,,,,,,,,,,,,,,,,73.9794448749999,74.0028239159983,74.0028239159983,74.0028239159983,74.0028239159983,74.01239795833001,74.0028239159983,74.0028239159983,74.20474962499793,Incorrect! The correct answer is Speaker2. نادرست! پاسخ صحیح گوینده۲ است,0,1,1,0.20081787500021164,None,74.20847679099825,74.22130149999794,76.2072184159988,76.22855195800003,,,,,,,,,,,,,,,,,789745,001,2024-07-02_11h26.34.870,5-31,2024.1.4,None,2024-07-02 11h26.40.798171 +0900,
Images/Speaker1.jpg,Images/Speaker2.jpg,Images/Speaker3.jpg,Images/Speaker4.jpg,Audio/Speaker1_En/P1-19-En.wav,Speaker1,گوینده ۱,0,0,0,15,0,12,12,18,,,,,,,,,,,,76.22855195800003,,,,,,,,,,,,,,,,,,,,,,,,,,,,,,,,,,,,,,,,,,,,,76.2074164159967,76.22855195800003,76.22855195800003,76.22855195800003,76.22855195800003,76.22355249966519,76.22855195800003,76.22855195800003,76.2291433749997,Correct! صحیح است,1,1,1,2.18683695800064,None,76.23280754099687,76.24058529099784,78.22528733299987,78.2484943749987,,,,,,,,,,,,,,,,,789745,001,2024-07-02_11h26.34.870,5-31,2024.1.4,None,2024-07-02 11h26.40.798171 +0900,
Images/Speaker1.jpg,Images/Speaker2.jpg,Images/Speaker3.jpg,Images/Speaker4.jpg,Audio/Speaker3_En/P3-6-En.wav,Speaker3,گوینده۳,0,0,0,15,0,13,13,45,,,,,,,,,,,,78.2484943749987,,,,,,,,,,,,,,,,,,,,,,,,,,,,,,,,,,,,,,,,,,,,,78.22545633299887,78.2484943749987,78.2484943749987,78.2484943749987,78.2484943749987,78.25834358333353,78.2484943749987,78.2484943749987,78.24914708299912,Incorrect! The correct answer is Speaker3. نادرست! پاسخ صحیح گوینده۳ است,0,1,1,1.9525149170003715,None,78.24936216599963,78.25894941599836,80.24575849999746,80.26806320799733,,,,,,,,,,,,,,,,,789745,001,2024-07-02_11h26.34.870,5-31,2024.1.4,None,2024-07-02 11h26.40.798171 +0900,
Images/Speaker1.jpg,Images/Speaker2.jpg,Images/Speaker3.jpg,Images/Speaker4.jpg,Audio/Speaker2_En/P2-13-En.wav,Speaker2,گوینده۲,0,0,0,15,0,14,14,32,,,,,,,,,,,,80.26806320799733,,,,,,,,,,,,,,,,,,,,,,,,,,,,,,,,,,,,,,,,,,,,,80.24592408299941,80.26806320799733,80.26806320799733,80.26806320799733,80.26806320799733,80.26223529166624,80.26806320799733,80.26806320799733,80.43442804099686,Incorrect! The correct answer is Speaker2. نادرست! پاسخ صحیح گوینده۲ است,0,1,1,0.16402062499764725,None,80.43817958299769,80.45089091599948,82.43896916599988,82.46442095800012,,,,,,,,,,,,,,,,,789745,001,2024-07-02_11h26.34.870,5-31,2024.1.4,None,2024-07-02 11h26.40.798171 +0900,
Images/Speaker1.jpg,Images/Speaker2.jpg,Images/Speaker3.jpg,Images/Speaker4.jpg,Audio/Speaker3_En/P3-20-En.wav,Speaker3,گوینده۳,0,0,0,15,0,15,15,59,,,,,,,,,,,,82.46442095800012,,,,,,,,,,,,,,,,,,,,,,,,,,,,,,,,,,,,,,,,,,,,,82.43956570799855,82.46442095800012,82.46442095800012,82.46442095800012,82.46442095800012,82.47139441633092,82.46442095800012,82.46442095800012,82.76977974999681,Incorrect! The correct answer is Speaker3. نادرست! پاسخ صحیح گوینده۳ است,0,1,1,0.3042730000015581,None,82.77353808299813,82.78623724999852,84.78078458299933,,,,,,,,,,,,,,,,,,789745,001,2024-07-02_11h26.34.870,5-31,2024.1.4,None,2024-07-02 11h26.40.798171 +0900,
Images/Speaker1.jpg,Images/Speaker2.jpg,Images/Speaker3.jpg,Images/Speaker4.jpg,Audio/Speaker3_En/P3-15-En.wav,Speaker3,گوینده۳,0,0,0,15,0,16,16,54,,,,,,,,,,,,84.80761245800022,,,,,,,,,,,,,,,,,,,,,,,,,,,,,,,,,,,,,,,,,,,,,84.78139737499805,84.80761245800022,84.80761245800022,84.80761245800022,84.80761245800022,84.81392037433082,84.80761245800022,84.80761245800022,84.80817979099811,Incorrect! The correct answer is Speaker3. نادرست! پاسخ صحیح گوینده۳ است,0,1,1,2.1876713749988994,None,84.80848704099844,84.81860208299986,86.81300645800002,,,,,,,,,,,,,,,,,,789745,001,2024-07-02_11h26.34.870,5-31,2024.1.4,None,2024-07-02 11h26.40.798171 +0900,
Images/Speaker1.jpg,Images/Speaker2.jpg,Images/Speaker3.jpg,Images/Speaker4.jpg,Audio/Speaker1_En/P1-4-En.wav,Speaker1,گوینده ۱,0,0,0,15,0,17,17,13,,,,,,,,,,,,86.8380609579981,,,,,,,,,,,,,,,,,,,,,,,,,,,,,,,,,,,,,,,,,,,,,86.81372841600023,86.8380609579981,86.8380609579981,86.8380609579981,86.8380609579981,86.84617016633322,86.8380609579981,86.8380609579981,87.10726495799827,Correct! صحیح است,1,1,1,0.26557708399923285,None,87.11109404099989,87.12209195799733,89.10630391599989,89.13412920799965,,,,,,,,,,,,,,,,,789745,001,2024-07-02_11h26.34.870,5-31,2024.1.4,None,2024-07-02 11h26.40.798171 +0900,
Images/Speaker1.jpg,Images/Speaker2.jpg,Images/Speaker3.jpg,Images/Speaker4.jpg,Audio/Speaker3_En/P3-10-En.wav,Speaker3,گوینده۳,0,0,0,15,0,18,18,49,,,,,,,,,,,,89.13412920799965,,,,,,,,,,,,,,,,,,,,,,,,,,,,,,,,,,,,,,,,,,,,,89.10687604099803,89.13412920799965,89.13412920799965,89.13412920799965,89.13412920799965,89.13876574933286,89.13412920799965,89.13412920799965,89.3628349999999,Incorrect! The correct answer is Speaker3. نادرست! پاسخ صحیح گوینده۳ است,0,1,1,0.2268181250001362,None,89.36665187499966,89.37871387499763,91.37385712499963,,,,,,,,,,,,,,,,,,789745,001,2024-07-02_11h26.34.870,5-31,2024.1.4,None,2024-07-02 11h26.40.798171 +0900,
Images/Speaker1.jpg,Images/Speaker2.jpg,Images/Speaker3.jpg,Images/Speaker4.jpg,Audio/Speaker2_En/P2-20-En.wav,Speaker2,گوینده۲,0,0,0,15,0,19,19,39,,,,,,,,,,,,91.40035404099763,,,,,,,,,,,,,,,,,,,,,,,,,,,,,,,,,,,,,,,,,,,,,91.37442233299953,91.40035404099763,91.40035404099763,91.40035404099763,91.40035404099763,91.40702558333263,91.40035404099763,91.40035404099763,91.7049906659995,Incorrect! The correct answer is Speaker2. نادرست! پاسخ صحیح گوینده۲ است,0,1,1,0.29864883400296094,None,91.70886229099779,91.72096087499813,93.71270166599788,,,,,,,,,,,,,,,,,,789745,001,2024-07-02_11h26.34.870,5-31,2024.1.4,None,2024-07-02 11h26.40.798171 +0900,
Images/Speaker1.jpg,Images/Speaker2.jpg,Images/Speaker3.jpg,Images/Speaker4.jpg,Audio/Speaker2_En/P2-14-En.wav,Speaker2,گوینده۲,0,0,0,15,0,20,20,33,,,,,,,,,,,,93.73755816599805,,,,,,,,,,,,,,,,,,,,,,,,,,,,,,,,,,,,,,,,,,,,,93.71335562499735,93.73755816599805,93.73755816599805,93.73755816599805,93.73755816599805,93.74587145833041,93.73755816599805,93.73755816599805,93.8200739999993,Incorrect! The correct answer is Speaker2. نادرست! پاسخ صحیح گوینده۲ است,0,1,1,0.08038350000060746,None,93.82404583300013,93.83672895799828,95.82286954099982,95.84518629099693,,,,,,,,,,,,,,,,,789745,001,2024-07-02_11h26.34.870,5-31,2024.1.4,None,2024-07-02 11h26.40.798171 +0900,
Images/Speaker1.jpg,Images/Speaker2.jpg,Images/Speaker3.jpg,Images/Speaker4.jpg,Audio/Speaker4_En/P4-6-En.wav,Speaker4,گوینده۴,0,0,0,15,0,21,21,65,,,,,,,,,,,,95.84518629099693,,,,,,,,,,,,,,,,,,,,,,,,,,,,,,,,,,,,,,,,,,,,,95.82304020799711,95.84518629099693,95.84518629099693,95.84518629099693,95.84518629099693,95.83930216666364,95.84518629099693,95.84518629099693,95.8457404159999,Incorrect! The correct answer is Speaker4. نادرست! پاسخ صحیح گوینده۴ است,0,1,1,2.051095874998282,None,95.84977429099672,95.85906004099888,97.84528933299953,97.8690586249977,,,,,,,,,,,,,,,,,789745,001,2024-07-02_11h26.34.870,5-31,2024.1.4,None,2024-07-02 11h26.40.798171 +0900,
Images/Speaker1.jpg,Images/Speaker2.jpg,Images/Speaker3.jpg,Images/Speaker4.jpg,Audio/Speaker3_En/P3-9-En.wav,Speaker3,گوینده۳,0,0,0,15,0,22,22,48,,,,,,,,,,,,97.8690586249977,,,,,,,,,,,,,,,,,,,,,,,,,,,,,,,,,,,,,,,,,,,,,97.84545933299887,97.8690586249977,97.8690586249977,97.8690586249977,97.8690586249977,97.87840720833313,97.8690586249977,97.8690586249977,98.01268295799673,Incorrect! The correct answer is Speaker3. نادرست! پاسخ صحیح گوینده۳ است,0,1,1,0.13687099999879138,None,98.01655645799838,98.02905933299917,100.01309808299993,100.03694766599801,,,,,,,,,,,,,,,,,789745,001,2024-07-02_11h26.34.870,5-31,2024.1.4,None,2024-07-02 11h26.40.798171 +0900,
Images/Speaker1.jpg,Images/Speaker2.jpg,Images/Speaker3.jpg,Images/Speaker4.jpg,Audio/Speaker4_En/P4-4-En.wav,Speaker4,گوینده۴,0,0,0,15,0,23,23,63,,,,,,,,,,,,100.03694766599801,,,,,,,,,,,,,,,,,,,,,,,,,,,,,,,,,,,,,,,,,,,,,100.01328512499822,100.03694766599801,100.03694766599801,100.03694766599801,100.03694766599801,100.04619124933063,100.03694766599801,100.03694766599801,100.09876841599907,Incorrect! The correct answer is Speaker4. نادرست! پاسخ صحیح گوینده۴ است,0,1,1,0.05334466699787299,None,100.10295283300002,100.11550158299724,102.09901595799965,102.12687399999777,,,,,,,,,,,,,,,,,789745,001,2024-07-02_11h26.34.870,5-31,2024.1.4,None,2024-07-02 11h26.40.798171 +0900,
Images/Speaker1.jpg,Images/Speaker2.jpg,Images/Speaker3.jpg,Images/Speaker4.jpg,Audio/Speaker2_En/P2-19-En.wav,Speaker2,گوینده۲,0,0,0,15,0,24,24,38,,,,,,,,,,,,102.12687399999777,,,,,,,,,,,,,,,,,,,,,,,,,,,,,,,,,,,,,,,,,,,,,102.09997037499852,102.12687399999777,102.12687399999777,102.12687399999777,102.12687399999777,102.13151270833308,102.12687399999777,102.12687399999777,102.18119079099779,Incorrect! The correct answer is Speaker2. نادرست! پاسخ صحیح گوینده۲ است,0,1,1,0.05254741700264276,None,102.18517079099911,102.19761024999752,104.19045354099944,,,,,,,,,,,,,,,,,,789745,001,2024-07-02_11h26.34.870,5-31,2024.1.4,None,2024-07-02 11h26.40.798171 +0900,
Images/Speaker1.jpg,Images/Speaker2.jpg,Images/Speaker3.jpg,Images/Speaker4.jpg,Audio/Speaker3_En/P3-4-En.wav,Speaker3,گوینده۳,0,0,0,15,0,25,25,43,,,,,,,,,,,,104.21560445799696,,,,,,,,,,,,,,,,,,,,,,,,,,,,,,,,,,,,,,,,,,,,,104.1911378329969,104.21560445799696,104.21560445799696,104.21560445799696,104.21560445799696,104.22361904133189,104.21560445799696,104.21560445799696,104.21616108299713,Incorrect! The correct answer is Speaker3. نادرست! پاسخ صحیح گوینده۳ است,0,1,1,1.9521912920026807,None,104.21637274999739,104.22691895800017,106.21960312499868,,,,,,,,,,,,,,,,,,789745,001,2024-07-02_11h26.34.870,5-31,2024.1.4,None,2024-07-02 11h26.40.798171 +0900,
Images/Speaker1.jpg,Images/Speaker2.jpg,Images/Speaker3.jpg,Images/Speaker4.jpg,Audio/Speaker4_En/P4-5-En.wav,Speaker4,گوینده۴,0,0,0,15,0,26,26,64,,,,,,,,,,,,106.24445158299932,,,,,,,,,,,,,,,,,,,,,,,,,,,,,,,,,,,,,,,,,,,,,106.21978016599678,106.24445158299932,106.24445158299932,106.24445158299932,106.24445158299932,106.25290037433345,106.24445158299932,106.24445158299932,106.53536112499933,Incorrect! The correct answer is Speaker4. نادرست! پاسخ صحیح گوینده۴ است,0,1,1,0.2846258329991542,None,106.5395586659979,106.55239341599736,108.54069770799833,,,,,,,,,,,,,,,,,,789745,001,2024-07-02_11h26.34.870,5-31,2024.1.4,None,2024-07-02 11h26.40.798171 +0900,
Images/Speaker1.jpg,Images/Speaker2.jpg,Images/Speaker3.jpg,Images/Speaker4.jpg,Audio/Speaker4_En/P4-20-En.wav,Speaker4,گوینده۴,0,0,0,15,0,27,27,79,,,,,,,,,,,,108.56645574999857,,,,,,,,,,,,,,,,,,,,,,,,,,,,,,,,,,,,,,,,,,,,,108.54086699999971,108.56645574999857,108.56645574999857,108.56645574999857,108.56645574999857,108.55733387466559,108.56645574999857,108.56645574999857,108.5671378329971,Incorrect! The correct answer is Speaker4. نادرست! پاسخ صحیح گوینده۴ است,0,1,1,2.296184833001462,None,108.57141616599984,108.58206233300007,110.56716183299795,110.59007295799893,,,,,,,,,,,,,,,,,789745,001,2024-07-02_11h26.34.870,5-31,2024.1.4,None,2024-07-02 11h26.40.798171 +0900,
Images/Speaker1.jpg,Images/Speaker2.jpg,Images/Speaker3.jpg,Images/Speaker4.jpg,Audio/Speaker4_En/P4-12-En.wav,Speaker4,گوینده۴,0,0,0,15,0,28,28,71,,,,,,,,,,,,110.59007295799893,,,,,,,,,,,,,,,,,,,,,,,,,,,,,,,,,,,,,,,,,,,,,110.56732949999787,110.59007295799893,110.59007295799893,110.59007295799893,110.59007295799893,110.58357083266334,110.59007295799893,110.59007295799893,110.64893029099767,Incorrect! The correct answer is Speaker4. نادرست! پاسخ صحیح گوینده۴ است,0,1,1,0.054771791998064145,None,110.65270083299765,110.66496108299907,112.65334325000003,,,,,,,,,,,,,,,,,,789745,001,2024-07-02_11h26.34.870,5-31,2024.1.4,None,2024-07-02 11h26.40.798171 +0900,
Images/Speaker1.jpg,Images/Speaker2.jpg,Images/Speaker3.jpg,Images/Speaker4.jpg,Audio/Speaker4_En/P4-2-En.wav,Speaker4,گوینده۴,0,0,0,15,0,29,29,61,,,,,,,,,,,,112.68130845799897,,,,,,,,,,,,,,,,,,,,,,,,,,,,,,,,,,,,,,,,,,,,,112.65351058299711,112.68130845799897,112.68130845799897,112.68130845799897,112.68130845799897,112.68663879133285,112.68130845799897,112.68130845799897,112.68193204099953,Incorrect! The correct answer is Speaker4. نادرست! پاسخ صحیح گوینده۴ است,0,1,1,2.0699538749977364,None,112.68235641599676,112.69240183299917,114.67833687500024,114.70113441599824,,,,,,,,,,,,,,,,,789745,001,2024-07-02_11h26.34.870,5-31,2024.1.4,None,2024-07-02 11h26.40.798171 +0900,
Images/Speaker1.jpg,Images/Speaker2.jpg,Images/Speaker3.jpg,Images/Speaker4.jpg,Audio/Speaker1_En/P1-8-En.wav,Speaker1,گوینده ۱,0,0,0,15,0,30,30,7,,,,,,,,,,,,114.70113441599824,,,,,,,,,,,,,,,,,,,,,,,,,,,,,,,,,,,,,,,,,,,,,114.67853449999893,114.70113441599824,114.70113441599824,114.70113441599824,114.70113441599824,114.6947471666647,114.70113441599824,114.70113441599824,114.70173579099719,Correct! صحیح است,1,1,1,1.9862864170027024,None,114.7020370829996,114.71035800000027,116.69771541599766,116.71995566599799,,,,,,,,,,,,,,,,,789745,001,2024-07-02_11h26.34.870,5-31,2024.1.4,None,2024-07-02 11h26.40.798171 +0900,
Images/Speaker1.jpg,Images/Speaker2.jpg,Images/Speaker3.jpg,Images/Speaker4.jpg,Audio/Speaker2_En/P2-16-En.wav,Speaker2,گوینده۲,0,0,0,15,0,31,31,35,,,,,,,,,,,,116.71995566599799,,,,,,,,,,,,,,,,,,,,,,,,,,,,,,,,,,,,,,,,,,,,,116.69791149999946,116.71995566599799,116.71995566599799,116.71995566599799,116.71995566599799,116.71412824966343,116.71995566599799,116.71995566599799,116.81999133299905,Incorrect! The correct answer is Speaker2. نادرست! پاسخ صحیح گوینده۲ است,0,1,1,0.0970227910001995,None,116.8239824159973,116.8367385829988,118.82082491599795,118.84727420799754,,,,,,,,,,,,,,,,,789745,001,2024-07-02_11h26.34.870,5-31,2024.1.4,None,2024-07-02 11h26.40.798171 +0900,
Images/Speaker1.jpg,Images/Speaker2.jpg,Images/Speaker3.jpg,Images/Speaker4.jpg,Audio/Speaker3_En/P3-1-En.wav,Speaker3,گوینده۳,0,0,0,15,0,32,32,40,,,,,,,,,,,,118.84727420799754,,,,,,,,,,,,,,,,,,,,,,,,,,,,,,,,,,,,,,,,,,,,,118.82098358299845,118.84727420799754,118.84727420799754,118.84727420799754,118.84727420799754,118.85393499933028,118.84727420799754,118.84727420799754,118.84789870799796,Incorrect! The correct answer is Speaker3. نادرست! پاسخ صحیح گوینده۳ است,0,1,1,2.11332258299808,None,118.84836487499706,118.85812545799854,120.850038665998,,,,,,,,,,,,,,,,,,789745,001,2024-07-02_11h26.34.870,5-31,2024.1.4,None,2024-07-02 11h26.40.798171 +0900,
Images/Speaker1.jpg,Images/Speaker2.jpg,Images/Speaker3.jpg,Images/Speaker4.jpg,Audio/Speaker1_En/P1-4-En.wav,Speaker1,گوینده ۱,0,0,0,15,0,33,33,3,,,,,,,,,,,,120.87447708299806,,,,,,,,,,,,,,,,,,,,,,,,,,,,,,,,,,,,,,,,,,,,,120.85068595799748,120.87447708299806,120.87447708299806,120.87447708299806,120.87447708299806,120.88321879133267,120.87447708299806,120.87447708299806,120.94592341599855,Correct! صحیح است,1,1,1,0.06341849999807891,None,120.94994049999877,120.96087954099858,122.94438274999993,122.96844458299893,,,,,,,,,,,,,,,,,789745,001,2024-07-02_11h26.34.870,5-31,2024.1.4,None,2024-07-02 11h26.40.798171 +0900,
Images/Speaker1.jpg,Images/Speaker2.jpg,Images/Speaker3.jpg,Images/Speaker4.jpg,Audio/Speaker4_En/P4-3-En.wav,Speaker4,گوینده۴,0,0,0,15,0,34,34,62,,,,,,,,,,,,122.96844458299893,,,,,,,,,,,,,,,,,,,,,,,,,,,,,,,,,,,,,,,,,,,,,122.94515174999833,122.96844458299893,122.96844458299893,122.96844458299893,122.96844458299893,122.97687883333177,122.96844458299893,122.96844458299893,122.96899691599901,Incorrect! The correct answer is Speaker4. نادرست! پاسخ صحیح گوینده۴ است,0,1,1,1.9648957919998793,None,122.96926887500013,122.97924795799918,124.97304854100003,,,,,,,,,,,,,,,,,,789745,001,2024-07-02_11h26.34.870,5-31,2024.1.4,None,2024-07-02 11h26.40.798171 +0900,
Images/Speaker1.jpg,Images/Speaker2.jpg,Images/Speaker3.jpg,Images/Speaker4.jpg,Audio/Speaker3_En/P3-8-En.wav,Speaker3,گوینده۳,0,0,0,15,0,35,35,47,,,,,,,,,,,,125.00028845799898,,,,,,,,,,,,,,,,,,,,,,,,,,,,,,,,,,,,,,,,,,,,,124.97364883299815,125.00028845799898,125.00028845799898,125.00028845799898,125.00028845799898,125.00621529133107,125.00028845799898,125.00028845799898,125.1052582079974,Incorrect! The correct answer is Speaker3. نادرست! پاسخ صحیح گوینده۳ است,0,1,1,0.09372487499786075,None,125.10931495799741,125.12143470799856,127.10772345799705,127.1305614999983,,,,,,,,,,,,,,,,,789745,001,2024-07-02_11h26.34.870,5-31,2024.1.4,None,2024-07-02 11h26.40.798171 +0900,
Images/Speaker1.jpg,Images/Speaker2.jpg,Images/Speaker3.jpg,Images/Speaker4.jpg,Audio/Speaker1_En/P1-11-En.wav,Speaker1,گوینده ۱,0,0,0,15,0,36,36,10,,,,,,,,,,,,127.1305614999983,,,,,,,,,,,,,,,,,,,,,,,,,,,,,,,,,,,,,,,,,,,,,127.10790649999763,127.1305614999983,127.1305614999983,127.1305614999983,127.1305614999983,127.14079345833355,127.1305614999983,127.1305614999983,127.13109029099724,Correct! صحیح است,1,1,1,2.095790749997832,None,127.1314742909999,127.13865583299776,129.12341104099687,129.14628570799687,,,,,,,,,,,,,,,,,789745,001,2024-07-02_11h26.34.870,5-31,2024.1.4,None,2024-07-02 11h26.40.798171 +0900,
Images/Speaker1.jpg,Images/Speaker2.jpg,Images/Speaker3.jpg,Images/Speaker4.jpg,Audio/Speaker1_En/P1-5-En.wav,Speaker1,گوینده ۱,0,0,0,15,0,37,37,4,,,,,,,,,,,,129.14628570799687,,,,,,,,,,,,,,,,,,,,,,,,,,,,,,,,,,,,,,,,,,,,,129.12361724999937,129.14628570799687,129.14628570799687,129.14628570799687,129.14628570799687,129.13986237466477,129.14628570799687,129.14628570799687,129.14694604099714,Correct! صحیح است,1,1,1,1.933935459001077,None,129.1508925829985,129.15882637499817,131.14998420799748,131.17618629099888,,,,,,,,,,,,,,,,,789745,001,2024-07-02_11h26.34.870,5-31,2024.1.4,None,2024-07-02 11h26.40.798171 +0900,
Images/Speaker1.jpg,Images/Speaker2.jpg,Images/Speaker3.jpg,Images/Speaker4.jpg,Audio/Speaker2_En/P2-5-En.wav,Speaker2,گوینده۲,0,0,0,15,0,38,38,24,,,,,,,,,,,,131.17618629099888,,,,,,,,,,,,,,,,,,,,,,,,,,,,,,,,,,,,,,,,,,,,,131.15095649999785,131.17618629099888,131.17618629099888,131.17618629099888,131.17618629099888,131.18191345833162,131.17618629099888,131.17618629099888,131.17687129099795,Incorrect! The correct answer is Speaker2. نادرست! پاسخ صحیح گوینده۲ است,0,1,1,1.9065407090020017,None,131.17714524999974,131.18671495799936,133.17884583299747,,,,,,,,,,,,,,,,,,789745,001,2024-07-02_11h26.34.870,5-31,2024.1.4,None,2024-07-02 11h26.40.798171 +0900,
Images/Speaker1.jpg,Images/Speaker2.jpg,Images/Speaker3.jpg,Images/Speaker4.jpg,Audio/Speaker1_En/P1-10-En.wav,Speaker1,گوینده ۱,0,0,0,15,0,39,39,9,,,,,,,,,,,,133.20385899999746,,,,,,,,,,,,,,,,,,,,,,,,,,,,,,,,,,,,,,,,,,,,,133.17950512499738,133.20385899999746,133.20385899999746,133.20385899999746,133.20385899999746,133.2121456663304,133.20385899999746,133.20385899999746,133.2044490829976,Correct! صحیح است,1,1,1,1.9261490419994516,None,133.20501149999836,133.21350208299918,135.19749391599908,135.22025220799696,,,,,,,,,,,,,,,,,789745,001,2024-07-02_11h26.34.870,5-31,2024.1.4,None,2024-07-02 11h26.40.798171 +0900,
Images/Speaker1.jpg,Images/Speaker2.jpg,Images/Speaker3.jpg,Images/Speaker4.jpg,Audio/Speaker3_En/P3-12-En.wav,Speaker3,گوینده۳,0,0,0,15,0,40,40,51,,,,,,,,,,,,135.22025220799696,,,,,,,,,,,,,,,,,,,,,,,,,,,,,,,,,,,,,,,,,,,,,135.19769591599834,135.22025220799696,135.22025220799696,135.22025220799696,135.22025220799696,135.2138802496668,135.22025220799696,135.22025220799696,135.2211409579977,Incorrect! The correct answer is Speaker3. نادرست! پاسخ صحیح گوینده۳ است,0,1,1,1.981211374997656,None,135.2216027079994,135.2311682499967,137.22360024999944,,,,,,,,,,,,,,,,,,789745,001,2024-07-02_11h26.34.870,5-31,2024.1.4,None,2024-07-02 11h26.40.798171 +0900,
Images/Speaker1.jpg,Images/Speaker2.jpg,Images/Speaker3.jpg,Images/Speaker4.jpg,Audio/Speaker3_En/P3-17-En.wav,Speaker3,گوینده۳,0,0,0,15,0,41,41,56,,,,,,,,,,,,137.24597449999783,,,,,,,,,,,,,,,,,,,,,,,,,,,,,,,,,,,,,,,,,,,,,137.22377066599802,137.24597449999783,137.24597449999783,137.24597449999783,137.24597449999783,137.24022941666433,137.24597449999783,137.24597449999783,137.53441462499904,Incorrect! The correct answer is Speaker3. نادرست! پاسخ صحیح گوینده۳ است,0,1,1,0.28614404200197896,None,137.53846020799756,137.55127083299885,139.54357916599838,,,,,,,,,,,,,,,,,,789745,001,2024-07-02_11h26.34.870,5-31,2024.1.4,None,2024-07-02 11h26.40.798171 +0900,
Images/Speaker1.jpg,Images/Speaker2.jpg,Images/Speaker3.jpg,Images/Speaker4.jpg,Audio/Speaker4_En/P4-18-En.wav,Speaker4,گوینده۴,0,0,0,15,0,42,42,77,,,,,,,,,,,,139.56792599999972,,,,,,,,,,,,,,,,,,,,,,,,,,,,,,,,,,,,,,,,,,,,,139.5437522909997,139.56792599999972,139.56792599999972,139.56792599999972,139.56792599999972,139.57686812433218,139.56792599999972,139.56792599999972,139.6006313329999,Incorrect! The correct answer is Speaker4. نادرست! پاسخ صحیح گوینده۴ است,0,1,1,0.030134458000247832,None,139.60463191599774,139.61773266599994,141.60072195799876,141.6234397499975,,,,,,,,,,,,,,,,,789745,001,2024-07-02_11h26.34.870,5-31,2024.1.4,None,2024-07-02 11h26.40.798171 +0900,
Images/Speaker1.jpg,Images/Speaker2.jpg,Images/Speaker3.jpg,Images/Speaker4.jpg,Audio/Speaker1_En/P1-7-En.wav,Speaker1,گوینده ۱,0,0,0,15,0,43,43,6,,,,,,,,,,,,141.6234397499975,,,,,,,,,,,,,,,,,,,,,,,,,,,,,,,,,,,,,,,,,,,,,141.60089337499812,141.6234397499975,141.6234397499975,141.6234397499975,141.6234397499975,141.63377279133107,141.6234397499975,141.6234397499975,141.62400083299872,Correct! صحیح است,1,1,1,1.953234207998321,None,141.6243552909982,141.63253037499817,143.6272360410003,,,,,,,,,,,,,,,,,,789745,001,2024-07-02_11h26.34.870,5-31,2024.1.4,None,2024-07-02 11h26.40.798171 +0900,
Images/Speaker1.jpg,Images/Speaker2.jpg,Images/Speaker3.jpg,Images/Speaker4.jpg,Audio/Speaker2_En/P2-12-En.wav,Speaker2,گوینده۲,0,0,0,15,0,44,44,31,,,,,,,,,,,,143.65257283299798,,,,,,,,,,,,,,,,,,,,,,,,,,,,,,,,,,,,,,,,,,,,,143.62778933299705,143.65257283299798,143.65257283299798,143.65257283299798,143.65257283299798,143.6604030833301,143.65257283299798,143.65257283299798,143.6847817079979,Incorrect! The correct answer is Speaker2. نادرست! پاسخ صحیح گوینده۲ است,0,1,1,0.02831870800218894,None,143.68846800000028,143.70059329099968,145.69232962499882,,,,,,,,,,,,,,,,,,789745,001,2024-07-02_11h26.34.870,5-31,2024.1.4,None,2024-07-02 11h26.40.798171 +0900,
Images/Speaker1.jpg,Images/Speaker2.jpg,Images/Speaker3.jpg,Images/Speaker4.jpg,Audio/Speaker1_En/P1-18-En.wav,Speaker1,گوینده ۱,0,0,0,15,0,45,45,17,,,,,,,,,,,,145.71468387499772,,,,,,,,,,,,,,,,,,,,,,,,,,,,,,,,,,,,,,,,,,,,,145.6924995829977,145.71468387499772,145.71468387499772,145.71468387499772,145.71468387499772,145.7089599996655,145.71468387499772,145.71468387499772,145.74175279100018,Correct! صحیح است,1,1,1,0.02228224999998929,None,145.74569416599843,145.7567746249988,147.74290654099968,147.76629049999974,,,,,,,,,,,,,,,,,789745,001,2024-07-02_11h26.34.870,5-31,2024.1.4,None,2024-07-02 11h26.40.798171 +0900,
Images/Speaker1.jpg,Images/Speaker2.jpg,Images/Speaker3.jpg,Images/Speaker4.jpg,Audio/Speaker1_En/P1-15-En.wav,Speaker1,گوینده ۱,0,0,0,15,0,46,46,14,,,,,,,,,,,,147.76629049999974,,,,,,,,,,,,,,,,,,,,,,,,,,,,,,,,,,,,,,,,,,,,,147.74307599999884,147.76629049999974,147.76629049999974,147.76629049999974,147.76629049999974,147.77596924933147,147.76629049999974,147.76629049999974,147.86714658299752,Correct! صحیح است,1,1,1,0.08779762500125798,None,147.87118599999667,147.87954499999978,149.86467195799924,149.88735066599838,,,,,,,,,,,,,,,,,789745,001,2024-07-02_11h26.34.870,5-31,2024.1.4,None,2024-07-02 11h26.40.798171 +0900,
Images/Speaker1.jpg,Images/Speaker2.jpg,Images/Speaker3.jpg,Images/Speaker4.jpg,Audio/Speaker1_En/P1-12-En.wav,Speaker1,گوینده ۱,0,0,0,15,0,47,47,11,,,,,,,,,,,,149.88735066599838,,,,,,,,,,,,,,,,,,,,,,,,,,,,,,,,,,,,,,,,,,,,,149.8648547499979,149.88735066599838,149.88735066599838,149.88735066599838,149.88735066599838,149.8810824996656,149.88735066599838,149.88735066599838,149.88793979099864,Correct! صحیح است,1,1,1,2.0799093749992608,None,149.8916045829974,149.8998940829988,151.88597479099917,151.9082921659974,,,,,,,,,,,,,,,,,789745,001,2024-07-02_11h26.34.870,5-31,2024.1.4,None,2024-07-02 11h26.40.798171 +0900,
Images/Speaker1.jpg,Images/Speaker2.jpg,Images/Speaker3.jpg,Images/Speaker4.jpg,Audio/Speaker4_En/P4-1-En.wav,Speaker4,گوینده۴,0,0,0,15,0,48,48,60,,,,,,,,,,,,151.9082921659974,,,,,,,,,,,,,,,,,,,,,,,,,,,,,,,,,,,,,,,,,,,,,151.88616358299987,151.9082921659974,151.9082921659974,151.9082921659974,151.9082921659974,151.90233112466402,151.9082921659974,151.9082921659974,151.95815749999747,Incorrect! The correct answer is Speaker4. نادرست! پاسخ صحیح گوینده۴ است,0,1,1,0.048610375000862405,None,151.96191662499768,151.97430558299675,153.9615359999989,153.9838296659982,,,,,,,,,,,,,,,,,789745,001,2024-07-02_11h26.34.870,5-31,2024.1.4,None,2024-07-02 11h26.40.798171 +0900,
Images/Speaker1.jpg,Images/Speaker2.jpg,Images/Speaker3.jpg,Images/Speaker4.jpg,Audio/Speaker2_En/P2-11-En.wav,Speaker2,گوینده۲,0,0,0,15,0,49,49,30,,,,,,,,,,,,153.9838296659982,,,,,,,,,,,,,,,,,,,,,,,,,,,,,,,,,,,,,,,,,,,,,153.96171362499808,153.9838296659982,153.9838296659982,153.9838296659982,153.9838296659982,153.97789387466426,153.9838296659982,153.9838296659982,154.13508729099703,Incorrect! The correct answer is Speaker2. نادرست! پاسخ صحیح گوینده۲ است,0,1,1,0.14114383299965994,None,154.13883704099862,154.1510766249994,156.14189037499818,,,,,,,,,,,,,,,,,,789745,001,2024-07-02_11h26.34.870,5-31,2024.1.4,None,2024-07-02 11h26.40.798171 +0900,
Images/Speaker1.jpg,Images/Speaker2.jpg,Images/Speaker3.jpg,Images/Speaker4.jpg,Audio/Speaker2_En/P2-3-En.wav,Speaker2,گوینده۲,0,0,0,15,0,50,50,22,,,,,,,,,,,,156.16604608299895,,,,,,,,,,,,,,,,,,,,,,,,,,,,,,,,,,,,,,,,,,,,,156.14253883299898,156.16604608299895,156.16604608299895,156.16604608299895,156.16604608299895,156.17506779133015,156.16604608299895,156.16604608299895,156.1774176250001,Incorrect! The correct answer is Speaker2. نادرست! پاسخ صحیح گوینده۲ است,0,1,1,0.007044582998787519,None,156.18134441599977,156.19360491599946,158.1832837080001,,,,,,,,,,,,,,,,,,789745,001,2024-07-02_11h26.34.870,5-31,2024.1.4,None,2024-07-02 11h26.40.798171 +0900,
Images/Speaker1.jpg,Images/Speaker2.jpg,Images/Speaker3.jpg,Images/Speaker4.jpg,Audio/Speaker4_En/P4-13-En.wav,Speaker4,گوینده۴,0,0,0,15,0,51,51,72,,,,,,,,,,,,158.20611491599993,,,,,,,,,,,,,,,,,,,,,,,,,,,,,,,,,,,,,,,,,,,,,158.1834527079991,158.20611491599993,158.20611491599993,158.20611491599993,158.20611491599993,158.1999108746643,158.20611491599993,158.20611491599993,158.2067083749971,Incorrect! The correct answer is Speaker4. نادرست! پاسخ صحیح گوینده۴ است,0,1,1,1.9749006669990194,None,158.2107162909997,158.22096133299783,160.20621395799753,160.23250154099878,,,,,,,,,,,,,,,,,789745,001,2024-07-02_11h26.34.870,5-31,2024.1.4,None,2024-07-02 11h26.40.798171 +0900,
Images/Speaker1.jpg,Images/Speaker2.jpg,Images/Speaker3.jpg,Images/Speaker4.jpg,Audio/Speaker1_En/P1-13-En.wav,Speaker1,گوینده ۱,0,0,0,15,0,52,52,12,,,,,,,,,,,,160.23250154099878,,,,,,,,,,,,,,,,,,,,,,,,,,,,,,,,,,,,,,,,,,,,,160.20714808299817,160.23250154099878,160.23250154099878,160.23250154099878,160.23250154099878,160.23849858333102,160.23250154099878,160.23250154099878,160.23311333299716,Correct! صحیح است,1,1,1,1.9207528339975397,None,160.2335515829982,160.24226912499944,162.23127604099864,162.25545283300016,,,,,,,,,,,,,,,,,789745,001,2024-07-02_11h26.34.870,5-31,2024.1.4,None,2024-07-02 11h26.40.798171 +0900,
Images/Speaker1.jpg,Images/Speaker2.jpg,Images/Speaker3.jpg,Images/Speaker4.jpg,Audio/Speaker3_En/P3-14-En.wav,Speaker3,گوینده۳,0,0,0,15,0,53,53,53,,,,,,,,,,,,162.25545283300016,,,,,,,,,,,,,,,,,,,,,,,,,,,,,,,,,,,,,,,,,,,,,162.23146399999678,162.25545283300016,162.25545283300016,162.25545283300016,162.25545283300016,162.26433024933118,162.25545283300016,162.25545283300016,162.25605804099905,Incorrect! The correct answer is Speaker3. نادرست! پاسخ صحیح گوینده۳ است,0,1,1,1.9789917919988511,None,162.2563475829993,162.26591891599674,164.26089195799796,,,,,,,,,,,,,,,,,,789745,001,2024-07-02_11h26.34.870,5-31,2024.1.4,None,2024-07-02 11h26.40.798171 +0900,
Images/Speaker1.jpg,Images/Speaker2.jpg,Images/Speaker3.jpg,Images/Speaker4.jpg,Audio/Speaker3_En/P3-13-En.wav,Speaker3,گوینده۳,0,0,0,15,0,54,54,52,,,,,,,,,,,,164.2852881660001,,,,,,,,,,,,,,,,,,,,,,,,,,,,,,,,,,,,,,,,,,,,,164.2610443329977,164.2852881660001,164.2852881660001,164.2852881660001,164.2852881660001,164.29418991633116,164.2852881660001,164.2852881660001,164.4351348329983,Incorrect! The correct answer is Speaker3. نادرست! پاسخ صحیح گوینده۳ است,0,1,1,None,None,164.43931279099706,164.4499286249993,166.4417677909987,,,,,,,,,,,,,,,,,,789745,001,2024-07-02_11h26.34.870,5-31,2024.1.4,None,2024-07-02 11h26.40.798171 +0900,
Images/Speaker1.jpg,Images/Speaker2.jpg,Images/Speaker3.jpg,Images/Speaker4.jpg,Audio/Speaker2_En/P2-10-En.wav,Speaker2,گوینده۲,0,0,0,15,0,55,55,29,,,,,,,,,,,,166.46863245799977,,,,,,,,,,,,,,,,,,,,,,,,,,,,,,,,,,,,,,,,,,,,,166.44247541599907,166.46863245799977,166.46863245799977,166.46863245799977,166.46863245799977,166.4749257083318,166.46863245799977,166.46863245799977,166.75523837499713,Incorrect! The correct answer is Speaker2. نادرست! پاسخ صحیح گوینده۲ است,0,1,1,0.28387970800031326,None,166.7592147079995,166.77154062499903,168.760805832997,,,,,,,,,,,,,,,,,,789745,001,2024-07-02_11h26.34.870,5-31,2024.1.4,None,2024-07-02 11h26.40.798171 +0900,
Images/Speaker1.jpg,Images/Speaker2.jpg,Images/Speaker3.jpg,Images/Speaker4.jpg,Audio/Speaker2_En/P2-1-En.wav,Speaker2,گوینده۲,0,0,0,15,0,56,56,20,,,,,,,,,,,,168.78339862499706,,,,,,,,,,,,,,,,,,,,,,,,,,,,,,,,,,,,,,,,,,,,,168.76097695799763,168.78339862499706,168.78339862499706,168.78339862499706,168.78339862499706,168.7774430826651,168.78339862499706,168.78339862499706,168.78398183299942,Incorrect! The correct answer is Speaker2. نادرست! پاسخ صحیح گوینده۲ است,0,1,1,2.19358879200081,None,168.78791762499895,168.79830437499913,170.7837854999998,170.80606670799898,,,,,,,,,,,,,,,,,789745,001,2024-07-02_11h26.34.870,5-31,2024.1.4,None,2024-07-02 11h26.40.798171 +0900,
Images/Speaker1.jpg,Images/Speaker2.jpg,Images/Speaker3.jpg,Images/Speaker4.jpg,Audio/Speaker2_En/P2-17-En.wav,Speaker2,گوینده۲,0,0,0,15,0,57,57,36,,,,,,,,,,,,170.80606670799898,,,,,,,,,,,,,,,,,,,,,,,,,,,,,,,,,,,,,,,,,,,,,170.78394583299814,170.80606670799898,170.80606670799898,170.80606670799898,170.80606670799898,170.8001772496648,170.80606670799898,170.80606670799898,170.80662933299755,Incorrect! The correct answer is Speaker2. نادرست! پاسخ صحیح گوینده۲ است,0,1,1,1.8278881660007755,None,170.8107609159997,170.82122099999833,172.8088963329974,172.83725437499743,,,,,,,,,,,,,,,,,789745,001,2024-07-02_11h26.34.870,5-31,2024.1.4,None,2024-07-02 11h26.40.798171 +0900,
Images/Speaker1.jpg,Images/Speaker2.jpg,Images/Speaker3.jpg,Images/Speaker4.jpg,Audio/Speaker4_En/P4-7-En.wav,Speaker4,گوینده۴,0,0,0,15,0,58,58,66,,,,,,,,,,,,172.83725437499743,,,,,,,,,,,,,,,,,,,,,,,,,,,,,,,,,,,,,,,,,,,,,172.8099504999991,172.83725437499743,172.83725437499743,172.83725437499743,172.83725437499743,172.8413564583321,172.83725437499743,172.83725437499743,172.8379942499996,Incorrect! The correct answer is Speaker4. نادرست! پاسخ صحیح گوینده۴ است,0,1,1,2.020580249998602,None,172.842071957999,172.85226170799797,174.83864508299666,174.86066595800003,,,,,,,,,,,,,,,,,789745,001,2024-07-02_11h26.34.870,5-31,2024.1.4,None,2024-07-02 11h26.40.798171 +0900,
Images/Speaker1.jpg,Images/Speaker2.jpg,Images/Speaker3.jpg,Images/Speaker4.jpg,Audio/Speaker1_En/P1-16-En.wav,Speaker1,گوینده ۱,0,0,0,15,0,59,59,15,,,,,,,,,,,,174.86066595800003,,,,,,,,,,,,,,,,,,,,,,,,,,,,,,,,,,,,,,,,,,,,,174.8388368329979,174.86066595800003,174.86066595800003,174.86066595800003,174.86066595800003,174.85497441666692,174.86066595800003,174.86066595800003,174.91938933299753,Correct! صحیح است,1,1,1,0.05396012499841163,None,174.92361233299744,174.93483670799833,176.9195277910003,176.9446105829993,,,,,,,,,,,,,,,,,789745,001,2024-07-02_11h26.34.870,5-31,2024.1.4,None,2024-07-02 11h26.40.798171 +0900,
Images/Speaker1.jpg,Images/Speaker2.jpg,Images/Speaker3.jpg,Images/Speaker4.jpg,Audio/Speaker1_En/P1-1-En.wav,Speaker1,گوینده ۱,0,0,0,15,0,60,60,0,,,,,,,,,,,,176.9446105829993,,,,,,,,,,,,,,,,,,,,,,,,,,,,,,,,,,,,,,,,,,,,,176.91991549999875,176.9446105829993,176.9446105829993,176.9446105829993,176.9446105829993,176.9524332493316,176.9446105829993,176.9446105829993,177.0227087079984,Correct! صحیح است,1,1,1,0.07049320800069836,None,177.02675520799676,177.03787899999952,179.02441879099933,179.05019683299906,,,,,,,,,,,,,,,,,789745,001,2024-07-02_11h26.34.870,5-31,2024.1.4,None,2024-07-02 11h26.40.798171 +0900,
Images/Speaker1.jpg,Images/Speaker2.jpg,Images/Speaker3.jpg,Images/Speaker4.jpg,Audio/Speaker2_En/P2-6-En.wav,Speaker2,گوینده۲,0,0,0,15,0,61,61,25,,,,,,,,,,,,179.05019683299906,,,,,,,,,,,,,,,,,,,,,,,,,,,,,,,,,,,,,,,,,,,,,179.02459420800005,179.05019683299906,179.05019683299906,179.05019683299906,179.05019683299906,179.05752199933028,179.05019683299906,179.05019683299906,179.08928012499746,Incorrect! The correct answer is Speaker2. نادرست! پاسخ صحیح گوینده۲ است,0,1,1,0.03114258399727987,None,179.0930177079972,179.1056012079971,181.09288233299958,181.120929040997,,,,,,,,,,,,,,,,,789745,001,2024-07-02_11h26.34.870,5-31,2024.1.4,None,2024-07-02 11h26.40.798171 +0900,
Images/Speaker1.jpg,Images/Speaker2.jpg,Images/Speaker3.jpg,Images/Speaker4.jpg,Audio/Speaker4_En/P4-14-En.wav,Speaker4,گوینده۴,0,0,0,15,0,62,62,73,,,,,,,,,,,,181.120929040997,,,,,,,,,,,,,,,,,,,,,,,,,,,,,,,,,,,,,,,,,,,,,181.09392320799816,181.120929040997,181.120929040997,181.120929040997,181.120929040997,181.12514229133063,181.120929040997,181.120929040997,181.12153687499813,Incorrect! The correct answer is Speaker4. نادرست! پاسخ صحیح گوینده۴ است,0,1,1,1.9740285419975407,None,181.12175008299891,181.13133533299697,183.11417595799867,183.13617962499848,,,,,,,,,,,,,,,,,789745,001,2024-07-02_11h26.34.870,5-31,2024.1.4,None,2024-07-02 11h26.40.798171 +0900,
Images/Speaker1.jpg,Images/Speaker2.jpg,Images/Speaker3.jpg,Images/Speaker4.jpg,Audio/Speaker4_En/P4-8-En.wav,Speaker4,گوینده۴,0,0,0,15,0,63,63,67,,,,,,,,,,,,183.13617962499848,,,,,,,,,,,,,,,,,,,,,,,,,,,,,,,,,,,,,,,,,,,,,183.11433870799738,183.13617962499848,183.13617962499848,183.13617962499848,183.13617962499848,183.13053399966546,183.13617962499848,183.13617962499848,183.2526228329989,Incorrect! The correct answer is Speaker4. نادرست! پاسخ صحیح گوینده۴ است,0,1,1,0.11519237500033341,None,183.25688091600023,183.2694954159997,185.2523215000001,185.27407262499764,,,,,,,,,,,,,,,,,789745,001,2024-07-02_11h26.34.870,5-31,2024.1.4,None,2024-07-02 11h26.40.798171 +0900,
Images/Speaker1.jpg,Images/Speaker2.jpg,Images/Speaker3.jpg,Images/Speaker4.jpg,Audio/Speaker2_En/P2-18-En.wav,Speaker2,گوینده۲,0,0,0,15,0,64,64,37,,,,,,,,,,,,185.27407262499764,,,,,,,,,,,,,,,,,,,,,,,,,,,,,,,,,,,,,,,,,,,,,185.25249399999666,185.27407262499764,185.27407262499764,185.27407262499764,185.27407262499764,185.26878070766568,185.27407262499764,185.27407262499764,185.32806437499676,Incorrect! The correct answer is Speaker2. نادرست! پاسخ صحیح گوینده۲ است,0,1,1,0.04975662499782629,None,185.33185295799922,185.3440977499995,187.3376334579989,,,,,,,,,,,,,,,,,,789745,001,2024-07-02_11h26.34.870,5-31,2024.1.4,None,2024-07-02 11h26.40.798171 +0900,
Images/Speaker1.jpg,Images/Speaker2.jpg,Images/Speaker3.jpg,Images/Speaker4.jpg,Audio/Speaker2_En/P2-15-En.wav,Speaker2,گوینده۲,0,0,0,15,0,65,65,34,,,,,,,,,,,,187.36252912499913,,,,,,,,,,,,,,,,,,,,,,,,,,,,,,,,,,,,,,,,,,,,,187.33831816599923,187.36252912499913,187.36252912499913,187.36252912499913,187.36252912499913,187.37081470833124,187.36252912499913,187.36252912499913,187.43451370799812,Incorrect! The correct answer is Speaker2. نادرست! پاسخ صحیح گوینده۲ است,0,1,1,0.06976770800247323,None,187.4386782909969,187.45121141599884,189.43722404099753,189.46133995799755,,,,,,,,,,,,,,,,,789745,001,2024-07-02_11h26.34.870,5-31,2024.1.4,None,2024-07-02 11h26.40.798171 +0900,
Images/Speaker1.jpg,Images/Speaker2.jpg,Images/Speaker3.jpg,Images/Speaker4.jpg,Audio/Speaker4_En/P4-15-En.wav,Speaker4,گوینده۴,0,0,0,15,0,66,66,74,,,,,,,,,,,,189.46133995799755,,,,,,,,,,,,,,,,,,,,,,,,,,,,,,,,,,,,,,,,,,,,,189.4374047909987,189.46133995799755,189.46133995799755,189.46133995799755,189.46133995799755,189.47027354133076,189.46133995799755,189.46133995799755,189.53543287499997,Incorrect! The correct answer is Speaker4. نادرست! پاسخ صحیح گوینده۴ است,0,1,1,0.06720825000229524,None,189.5396199579991,189.55253162499866,191.5391212909999,191.564737040997,,,,,,,,,,,,,,,,,789745,001,2024-07-02_11h26.34.870,5-31,2024.1.4,None,2024-07-02 11h26.40.798171 +0900,
Images/Speaker1.jpg,Images/Speaker2.jpg,Images/Speaker3.jpg,Images/Speaker4.jpg,Audio/Speaker1_En/P1-6-En.wav,Speaker1,گوینده ۱,0,0,0,15,0,67,67,5,,,,,,,,,,,,191.564737040997,,,,,,,,,,,,,,,,,,,,,,,,,,,,,,,,,,,,,,,,,,,,,191.5397149579985,191.564737040997,191.564737040997,191.564737040997,191.564737040997,191.5714972083302,191.564737040997,191.564737040997,191.6128224999993,Correct! صحیح است,1,1,1,0.03913466599988169,None,191.61683537499994,191.6279539999996,193.61382341599892,193.63695195800028,,,,,,,,,,,,,,,,,789745,001,2024-07-02_11h26.34.870,5-31,2024.1.4,None,2024-07-02 11h26.40.798171 +0900,
Images/Speaker1.jpg,Images/Speaker2.jpg,Images/Speaker3.jpg,Images/Speaker4.jpg,Audio/Speaker1_En/P1-9-En.wav,Speaker1,گوینده ۱,0,0,0,15,0,68,68,8,,,,,,,,,,,,193.63695195800028,,,,,,,,,,,,,,,,,,,,,,,,,,,,,,,,,,,,,,,,,,,,,193.61400149999827,193.63695195800028,193.63695195800028,193.63695195800028,193.63695195800028,193.64682270833197,193.63695195800028,193.63695195800028,193.71960949999993,Correct! صحیح است,1,1,1,0.07848012499744073,None,193.72372441599873,193.73366108299888,195.723238999999,195.7474478749973,,,,,,,,,,,,,,,,,789745,001,2024-07-02_11h26.34.870,5-31,2024.1.4,None,2024-07-02 11h26.40.798171 +0900,
Images/Speaker1.jpg,Images/Speaker2.jpg,Images/Speaker3.jpg,Images/Speaker4.jpg,Audio/Speaker4_En/P4-9-En.wav,Speaker4,گوینده۴,0,0,0,15,0,69,69,68,,,,,,,,,,,,195.7474478749973,,,,,,,,,,,,,,,,,,,,,,,,,,,,,,,,,,,,,,,,,,,,,195.72341070799666,195.7474478749973,195.7474478749973,195.7474478749973,195.7474478749973,195.73966199966551,195.7474478749973,195.7474478749973,195.74804374999803,Incorrect! The correct answer is Speaker4. نادرست! پاسخ صحیح گوینده۴ است,0,1,1,2.098576332999073,None,195.7518352909974,195.7610073750002,197.74880104099793,197.77210004099834,,,,,,,,,,,,,,,,,789745,001,2024-07-02_11h26.34.870,5-31,2024.1.4,None,2024-07-02 11h26.40.798171 +0900,
Images/Speaker1.jpg,Images/Speaker2.jpg,Images/Speaker3.jpg,Images/Speaker4.jpg,Audio/Speaker3_En/P3-16-En.wav,Speaker3,گوینده۳,0,0,0,15,0,70,70,55,,,,,,,,,,,,197.77210004099834,,,,,,,,,,,,,,,,,,,,,,,,,,,,,,,,,,,,,,,,,,,,,197.74899370799903,197.77210004099834,197.77210004099834,197.77210004099834,197.77210004099834,197.78190629133366,197.77210004099834,197.77210004099834,197.87118833299974,Incorrect! The correct answer is Speaker3. نادرست! پاسخ صحیح گوینده۳ است,0,1,1,0.09807116699812468,None,197.87499433299672,197.88766862499688,199.87038649999886,199.89277916599895,,,,,,,,,,,,,,,,,789745,001,2024-07-02_11h26.34.870,5-31,2024.1.4,None,2024-07-02 11h26.40.798171 +0900,
Images/Speaker1.jpg,Images/Speaker2.jpg,Images/Speaker3.jpg,Images/Speaker4.jpg,Audio/Speaker4_En/P4-17-En.wav,Speaker4,گوینده۴,0,0,0,15,0,71,71,76,,,,,,,,,,,,199.89277916599895,,,,,,,,,,,,,,,,,,,,,,,,,,,,,,,,,,,,,,,,,,,,,199.87057558299784,199.89277916599895,199.89277916599895,199.89277916599895,199.89277916599895,199.88683379166494,199.89277916599895,199.89277916599895,199.9015624579988,Incorrect! The correct answer is Speaker4. نادرست! پاسخ صحیح گوینده۴ است,0,1,1,0.000981582998065278,None,199.905294082997,199.91463904099874,201.9103849159983,,,,,,,,,,,,,,,,,,789745,001,2024-07-02_11h26.34.870,5-31,2024.1.4,None,2024-07-02 11h26.40.798171 +0900,
Images/Speaker1.jpg,Images/Speaker2.jpg,Images/Speaker3.jpg,Images/Speaker4.jpg,Audio/Speaker4_En/P4-10-En.wav,Speaker4,گوینده۴,0,0,0,15,0,72,72,69,,,,,,,,,,,,201.93225445799908,,,,,,,,,,,,,,,,,,,,,,,,,,,,,,,,,,,,,,,,,,,,,201.9105541659992,201.93225445799908,201.93225445799908,201.93225445799908,201.93225445799908,201.92701679166592,201.93225445799908,201.93225445799908,201.9330337499996,Incorrect! The correct answer is Speaker4. نادرست! پاسخ صحیح گوینده۴ است,0,1,1,1.9786589159994037,None,201.93718220799929,201.94674183299867,203.93061274999855,203.9533899579983,,,,,,,,,,,,,,,,,789745,001,2024-07-02_11h26.34.870,5-31,2024.1.4,None,2024-07-02 11h26.40.798171 +0900,
Images/Speaker1.jpg,Images/Speaker2.jpg,Images/Speaker3.jpg,Images/Speaker4.jpg,Audio/Speaker3_En/P3-7-En.wav,Speaker3,گوینده۳,0,0,0,15,0,73,73,46,,,,,,,,,,,,203.9533899579983,,,,,,,,,,,,,,,,,,,,,,,,,,,,,,,,,,,,,,,,,,,,,203.93081229099698,203.9533899579983,203.9533899579983,203.9533899579983,203.9533899579983,203.94705383266435,203.9533899579983,203.9533899579983,203.9971580829988,Incorrect! The correct answer is Speaker3. نادرست! پاسخ صحیح گوینده۳ است,0,1,1,0.04125000000203727,None,204.00094254099895,204.01355449999755,205.9991251249994,206.02238787500028,,,,,,,,,,,,,,,,,789745,001,2024-07-02_11h26.34.870,5-31,2024.1.4,None,2024-07-02 11h26.40.798171 +0900,
Images/Speaker1.jpg,Images/Speaker2.jpg,Images/Speaker3.jpg,Images/Speaker4.jpg,Audio/Speaker4_En/P4-11-En.wav,Speaker4,گوینده۴,0,0,0,15,0,74,74,70,,,,,,,,,,,,206.02238787500028,,,,,,,,,,,,,,,,,,,,,,,,,,,,,,,,,,,,,,,,,,,,,205.99931541600017,206.02238787500028,206.02238787500028,206.02238787500028,206.02238787500028,206.03219420833244,206.02238787500028,206.02238787500028,206.0761716249981,Incorrect! The correct answer is Speaker4. نادرست! پاسخ صحیح گوینده۴ است,0,1,1,0.05065516700051376,None,206.08001391599828,206.09243583299758,208.08529949999865,,,,,,,,,,,,,,,,,,789745,001,2024-07-02_11h26.34.870,5-31,2024.1.4,None,2024-07-02 11h26.40.798171 +0900,
Images/Speaker1.jpg,Images/Speaker2.jpg,Images/Speaker3.jpg,Images/Speaker4.jpg,Audio/Speaker1_En/P1-17-En.wav,Speaker1,گوینده ۱,0,0,0,15,0,75,75,16,,,,,,,,,,,,208.10836170799666,,,,,,,,,,,,,,,,,,,,,,,,,,,,,,,,,,,,,,,,,,,,,208.08546329099772,208.10836170799666,208.10836170799666,208.10836170799666,208.10836170799666,208.1186019993334,208.10836170799666,208.10836170799666,208.10896679099824,Correct! صحیح است,1,1,1,2.032687041999452,None,208.10938774999886,208.11762866599747,210.1008562499992,210.12335241599794,,,,,,,,,,,,,,,,,789745,001,2024-07-02_11h26.34.870,5-31,2024.1.4,None,2024-07-02 11h26.40.798171 +0900,
Images/Speaker1.jpg,Images/Speaker2.jpg,Images/Speaker3.jpg,Images/Speaker4.jpg,Audio/Speaker2_En/P2-9-En.wav,Speaker2,گوینده۲,0,0,0,15,0,76,76,28,,,,,,,,,,,,210.12335241599794,,,,,,,,,,,,,,,,,,,,,,,,,,,,,,,,,,,,,,,,,,,,,210.1010479999968,210.12335241599794,210.12335241599794,210.12335241599794,210.12335241599794,210.11720441666355,210.12335241599794,210.12335241599794,210.2859765409994,Incorrect! The correct answer is Speaker2. نادرست! پاسخ صحیح گوینده۲ است,0,1,1,0.15639287500016508,None,210.29005658299866,210.302405790997,212.29142329099705,,,,,,,,,,,,,,,,,,789745,001,2024-07-02_11h26.34.870,5-31,2024.1.4,None,2024-07-02 11h26.40.798171 +0900,
Images/Speaker1.jpg,Images/Speaker2.jpg,Images/Speaker3.jpg,Images/Speaker4.jpg,Audio/Speaker1_En/P1-2-En.wav,Speaker1,گوینده ۱,0,0,0,15,0,77,77,1,,,,,,,,,,,,212.3172250409989,,,,,,,,,,,,,,,,,,,,,,,,,,,,,,,,,,,,,,,,,,,,,212.29206258299746,212.3172250409989,212.3172250409989,212.3172250409989,212.3172250409989,212.32459533333218,212.3172250409989,212.3172250409989,212.45475183300005,Correct! صحیح است,1,1,1,0.13489195900183404,None,212.45848408299935,212.46974066599796,214.45353141599844,214.47674516599727,,,,,,,,,,,,,,,,,789745,001,2024-07-02_11h26.34.870,5-31,2024.1.4,None,2024-07-02 11h26.40.798171 +0900,
Images/Speaker1.jpg,Images/Speaker2.jpg,Images/Speaker3.jpg,Images/Speaker4.jpg,Audio/Speaker4_En/P4-16-En.wav,Speaker4,گوینده۴,0,0,0,15,0,78,78,75,,,,,,,,,,,,214.47674516599727,,,,,,,,,,,,,,,,,,,,,,,,,,,,,,,,,,,,,,,,,,,,,214.4544148749992,214.47674516599727,214.47674516599727,214.47674516599727,214.47674516599727,214.48592995833002,214.47674516599727,214.47674516599727,214.63429025000005,Incorrect! The correct answer is Speaker4. نادرست! پاسخ صحیح گوینده۴ است,0,1,1,0.1564885419975326,None,214.63819758299724,214.6505722499969,216.641416208,,,,,,,,,,,,,,,,,,789745,001,2024-07-02_11h26.34.870,5-31,2024.1.4,None,2024-07-02 11h26.40.798171 +0900,
Images/Speaker1.jpg,Images/Speaker2.jpg,Images/Speaker3.jpg,Images/Speaker4.jpg,Audio/Speaker1_En/P1-20-En.wav,Speaker1,گوینده ۱,0,0,0,15,0,79,79,19,,,,,,,,,,,,216.6628502909989,,,,,,,,,,,,,,,,,,,,,,,,,,,,,,,,,,,,,,,,,,,,,216.64158258299722,216.6628502909989,216.6628502909989,216.6628502909989,216.6628502909989,216.65805120766552,216.6628502909989,216.6628502909989,216.81947837499683,Correct! صحیح است,1,1,1,0.15502254199964227,None,216.82349591599996,216.83419712499744,218.82618649999858,,,,,,,,,,,,,,,,,,789745,001,2024-07-02_11h26.34.870,5-31,2024.1.4,None,2024-07-02 11h26.40.798171 +0900,
Images/Speaker1.jpg,Images/Speaker2.jpg,Images/Speaker3.jpg,Images/Speaker4.jpg,Audio/Speaker1_En/P1-16-En.wav,Speaker1,گوینده ۱,0,0,0,15,,,,,,,,,,,,,,,,,,,,,,,,,,,,,,,,,,,,,,,,,,,,,,,,,,,,,,,,,,,,,,,,,,,,,,,,,,,,,,,,218.82631441599733,1.0,True,218.82658529099717,,,,,,,,,,,,,789745,001,2024-07-02_11h26.34.870,5-31,2024.1.4,None,2024-07-02 11h26.40.798171 +0900,
,,,,,,,,,,,,,,,,,,,,,,,,,,,,,,,,,,,,,,,,,,,,,,,,,,,,,,,,,,,,,,,,,,,,,,,,,,,,,,,,,,,,,,,,,,,,,,218.82661841599838,218.8308089159982,223.8718367909969,223.82654216599985,,,,,,,,,789745,001,2024-07-02_11h26.34.870,5-31,2024.1.4,None,2024-07-02 11h26.40.798171 +0900,
,,,,,,,,,,,,,,,,,,,,,,,,,,223.8718367909969,,,,,,,,,,,,,,,,,,,,,,,,,,,,,,,,,,,,,,,,,,,,,,,,,,,,,,,,,,,,,,,,,,,,,,,,223.84788908299743,223.8718367909969,223.8718367909969,223.8718367909969,223.8718367909969,223.8755893329988,223.8718367909969,223.8718367909969,,,,,,,,
