SpeakerImage1,SpeakerImage2,SpeakerImage3,SpeakerImage4,TrainingSound,EnglishCorrectAnswer,PersianCorrectAnswer,repeated_TrainingLoopGroup2.thisRepN,repeated_TrainingLoopGroup2.thisTrialN,repeated_TrainingLoopGroup2.thisN,repeated_TrainingLoopGroup2.thisIndex,TrainingLoopGroup2.thisRepN,TrainingLoopGroup2.thisTrialN,TrainingLoopGroup2.thisN,TrainingLoopGroup2.thisIndex,thisRow.t,notes,trial.started,trial.stopped,GroupSelection.started,GroupInstructions.started,key_resp.started,GroupSelection.stopped,key_resp.keys,key_resp.rt,key_resp.duration,Introduction.started,text_2.started,image.started,sound_7.started,text_4.started,text_2.stopped,sound_8.started,image.stopped,text_4.stopped,image_7.started,sound_9.started,text_5.started,sound_10.started,image_7.stopped,text_5.stopped,image_8.started,sound_11.started,text_6.started,sound_12.started,image_8.stopped,text_6.stopped,image_9.started,sound_13.started,text_7.started,sound_14.started,image_9.stopped,text_7.stopped,Introduction.stopped,Instructions.started,InstructionText.started,InstructionText.stopped,Instructions.stopped,InitializeExperiment.started,InitializeExperiment.stopped,TrainingGroup2.started,image_11.started,SpeakerPicture2.started,image_5.started,image_6.started,Sound2.started,Instruction2.started,Response2.started,TrainingGroup2.stopped,feedbackText,correct_responses_group2,total_trials_group2,Response2.keys,Response2.rt,Response2.duration,FeedbackRoutine2.started,FeedbackText2.started,FeedbackRoutine2.stopped,FeedbackText2.stopped,CheckAccuracy2.started,participant,session,date,expName,psychopyVersion,frameRate,expStart,
,,,,,,,,,,,,,,,,,0.010084916000778321,0.01041879099648213,,,,,,,,,,,,,,,,,,,,,,,,,,,,,,,,,,,,,,,,,,,,,,,,,,,,,,,,,,,,,,791687,001,2024-07-02_19h40.51.035,5-35,2024.1.4,None,2024-07-02 19h40.56.792568 +0900,
,,,,,,,,,,,,,,,,,,,0.010433707997435704,0.016281165997497737,0.016281165997497737,1.7144248330005212,2,1.654803165998601,None,,,,,,,,,,,,,,,,,,,,,,,,,,,,,,,,,,,,,,,,,,,,,,,,,,,,,,,791687,001,2024-07-02_19h40.51.035,5-35,2024.1.4,None,2024-07-02 19h40.56.792568 +0900,
,,,,,,,,,,,,,,,,,,,,,,,,,,1.7144452499996987,1.7863666249977541,6.713116375001846,6.718247124667202,6.713116375001846,6.776933624998492,11.719282041664217,16.715247832995374,16.715247832995374,16.715247832995374,16.724510332667947,16.715247832995374,21.71638983266554,26.709237165996456,26.709237165996456,26.709237165996456,26.72206837466753,26.709237165996456,31.72188412466882,36.70856683299644,36.70856683299644,36.71468383300089,36.725233499663105,36.71468383300089,41.725122791667914,46.70461483299732,46.70461483299732,46.698205916000006,,,,,,,,,,,,,,,,,,,,,,,,,,,791687,001,2024-07-02_19h40.51.035,5-35,2024.1.4,None,2024-07-02 19h40.56.792568 +0900,
,,,,,,,,,,,,,,,,,,,,,,,,,,,,,,,,,,,,,,,,,,,,,,,,,,,,,,46.698273750000226,46.70461483299732,47.77014187500026,47.68877279099979,,,,,,,,,,,,,,,,,,,,,,,791687,001,2024-07-02_19h40.51.035,5-35,2024.1.4,None,2024-07-02 19h40.56.792568 +0900,
,,,,,,,,,,,,,,,,,,,,,,,,,,,,,,,,,,,,,,,,,,,,,,,,,,,,,,,,,,47.688785375001316,47.68893895799556,,,,,,,,,,,,,,,,,,,,,791687,001,2024-07-02_19h40.51.035,5-35,2024.1.4,None,2024-07-02 19h40.56.792568 +0900,
Images/Speaker1.jpg,Images/Speaker2.jpg,Images/Speaker3.jpg,Images/Speaker4.jpg,Audio/Speaker1_Per/P1-15-Per.wav,Speaker1,گوینده ۱,0,0,0,13,0,0,0,14,47.77014187500026,,,,,,,,,,,,,,,,,,,,,,,,,,,,,,,,,,,,,,,,,,,,,47.74277095800062,47.77014187500026,47.77014187500026,47.77014187500026,47.77014187500026,47.77186466633187,47.77014187500026,47.77014187500026,50.962845000001835,Correct! صحیح است,1,1,1,3.190987791000225,None,50.9673511660003,50.97949649999646,52.97352495799714,,,791687,001,2024-07-02_19h40.51.035,5-35,2024.1.4,None,2024-07-02 19h40.56.792568 +0900,
Images/Speaker1.jpg,Images/Speaker2.jpg,Images/Speaker3.jpg,Images/Speaker4.jpg,Audio/Speaker4_Per/P4-4-Per.wav,Speaker4,گوینده۴,0,0,0,13,0,1,1,63,53.00064670800202,,,,,,,,,,,,,,,,,,,,,,,,,,,,,,,,,,,,,,,,,,,,,52.97426149999956,53.00064670800202,53.00064670800202,53.00064670800202,53.00064670800202,53.00667604133244,53.00064670800202,53.00064670800202,56.42133695799566,Correct! صحیح است,1,1,4,3.411694583002827,None,56.42157458300062,56.43309883299662,58.424656666000374,,,791687,001,2024-07-02_19h40.51.035,5-35,2024.1.4,None,2024-07-02 19h40.56.792568 +0900,
Images/Speaker1.jpg,Images/Speaker2.jpg,Images/Speaker3.jpg,Images/Speaker4.jpg,Audio/Speaker2_Per/P2-19-Per.wav,Speaker2,گوینده۲,0,0,0,13,0,2,2,38,58.447675915995205,,,,,,,,,,,,,,,,,,,,,,,,,,,,,,,,,,,,,,,,,,,,,58.424824290996185,58.447675915995205,58.447675915995205,58.447675915995205,58.447675915995205,58.44128858266437,58.447675915995205,58.447675915995205,61.06031970799813,Correct! صحیح است,1,1,2,2.6092412079960923,None,61.064124790995265,61.07535191599891,63.05923545800033,63.08434116599528,,791687,001,2024-07-02_19h40.51.035,5-35,2024.1.4,None,2024-07-02 19h40.56.792568 +0900,
Images/Speaker1.jpg,Images/Speaker2.jpg,Images/Speaker3.jpg,Images/Speaker4.jpg,Audio/Speaker2_Per/P2-16-Per.wav,Speaker2,گوینده۲,0,0,0,13,0,3,3,35,63.08434116599528,,,,,,,,,,,,,,,,,,,,,,,,,,,,,,,,,,,,,,,,,,,,,63.06004374999611,63.08434116599528,63.08434116599528,63.08434116599528,63.08434116599528,63.09171099933204,63.08434116599528,63.08434116599528,65.04707820800104,Incorrect! The correct answer is Speaker2. نادرست! پاسخ صحیح گوینده۲ است,0,1,3,1.9612123330007307,None,65.05121233299724,65.0645406659969,67.05609645799996,,,791687,001,2024-07-02_19h40.51.035,5-35,2024.1.4,None,2024-07-02 19h40.56.792568 +0900,
Images/Speaker1.jpg,Images/Speaker2.jpg,Images/Speaker3.jpg,Images/Speaker4.jpg,Audio/Speaker3_Per/P3-3-Per.wav,Speaker3,گوینده۳,0,0,0,13,0,4,4,42,67.07884254099918,,,,,,,,,,,,,,,,,,,,,,,,,,,,,,,,,,,,,,,,,,,,,67.05626187499729,67.07884254099918,67.07884254099918,67.07884254099918,67.07884254099918,67.07272974966715,67.07884254099918,67.07884254099918,69.46909670800233,Correct! صحیح است,1,1,3,2.3891961670015007,None,69.47291374999622,69.48953370800155,71.48165483299817,,,791687,001,2024-07-02_19h40.51.035,5-35,2024.1.4,None,2024-07-02 19h40.56.792568 +0900,
Images/Speaker1.jpg,Images/Speaker2.jpg,Images/Speaker3.jpg,Images/Speaker4.jpg,Audio/Speaker2_Per/P2-8-Per.wav,Speaker2,گوینده۲,0,0,0,13,0,5,5,27,71.50728791599977,,,,,,,,,,,,,,,,,,,,,,,,,,,,,,,,,,,,,,,,,,,,,71.48231887500151,71.50728791599977,71.50728791599977,71.50728791599977,71.50728791599977,71.51478174933484,71.50728791599977,71.50728791599977,73.05092537499877,Correct! صحیح است,1,1,2,1.5351240000018151,None,73.05516083299881,73.0664467079987,75.05228433299635,75.07697774999542,,791687,001,2024-07-02_19h40.51.035,5-35,2024.1.4,None,2024-07-02 19h40.56.792568 +0900,
Images/Speaker1.jpg,Images/Speaker2.jpg,Images/Speaker3.jpg,Images/Speaker4.jpg,Audio/Speaker3_Per/P3-10-Per.wav,Speaker3,گوینده۳,0,0,0,13,0,6,6,49,75.07697774999542,,,,,,,,,,,,,,,,,,,,,,,,,,,,,,,,,,,,,,,,,,,,,75.05250299999898,75.07697774999542,75.07697774999542,75.07697774999542,75.07697774999542,75.08541291633495,75.07697774999542,75.07697774999542,76.63807670799724,Correct! صحیح است,1,1,3,1.5576957079974818,None,76.64229029099806,76.65296866599965,78.64120700000058,78.66324824999901,,791687,001,2024-07-02_19h40.51.035,5-35,2024.1.4,None,2024-07-02 19h40.56.792568 +0900,
Images/Speaker1.jpg,Images/Speaker2.jpg,Images/Speaker3.jpg,Images/Speaker4.jpg,Audio/Speaker2_Per/P2-20-Per.wav,Speaker2,گوینده۲,0,0,0,13,0,7,7,39,78.66324824999901,,,,,,,,,,,,,,,,,,,,,,,,,,,,,,,,,,,,,,,,,,,,,78.64137274999666,78.66324824999901,78.66324824999901,78.66324824999901,78.66324824999901,78.65763708266265,78.66324824999901,78.66324824999901,80.18267950000154,Correct! صحیح است,1,1,2,1.5082749170032912,None,80.18638312500116,80.19786533300066,82.18213599999581,82.20489549999911,,791687,001,2024-07-02_19h40.51.035,5-35,2024.1.4,None,2024-07-02 19h40.56.792568 +0900,
Images/Speaker1.jpg,Images/Speaker2.jpg,Images/Speaker3.jpg,Images/Speaker4.jpg,Audio/Speaker3_Per/P3-7-Per.wav,Speaker3,گوینده۳,0,0,0,13,0,8,8,46,82.20489549999911,,,,,,,,,,,,,,,,,,,,,,,,,,,,,,,,,,,,,,,,,,,,,82.18231050000031,82.20489549999911,82.20489549999911,82.20489549999911,82.20489549999911,82.19858158266676,82.20489549999911,82.20489549999911,84.03061737499957,Correct! صحیح است,1,1,3,1.8169917080012965,None,84.0348578330013,84.04671120800049,86.03440195800067,86.06083245799528,,791687,001,2024-07-02_19h40.51.035,5-35,2024.1.4,None,2024-07-02 19h40.56.792568 +0900,
Images/Speaker1.jpg,Images/Speaker2.jpg,Images/Speaker3.jpg,Images/Speaker4.jpg,Audio/Speaker4_Per/P4-6-Per.wav,Speaker4,گوینده۴,0,0,0,13,0,9,9,65,86.06083245799528,,,,,,,,,,,,,,,,,,,,,,,,,,,,,,,,,,,,,,,,,,,,,86.03540091600007,86.06083245799528,86.06083245799528,86.06083245799528,86.06083245799528,86.06689608332866,86.06083245799528,86.06083245799528,87.65090670799691,Correct! صحیح است,1,1,4,1.5813414590011234,None,87.65523050000047,87.66687979099515,89.65517858300154,89.67874479099555,,791687,001,2024-07-02_19h40.51.035,5-35,2024.1.4,None,2024-07-02 19h40.56.792568 +0900,
Images/Speaker1.jpg,Images/Speaker2.jpg,Images/Speaker3.jpg,Images/Speaker4.jpg,Audio/Speaker1_Per/P1-13-Per.wav,Speaker1,گوینده ۱,0,0,0,13,0,10,10,12,89.67874479099555,,,,,,,,,,,,,,,,,,,,,,,,,,,,,,,,,,,,,,,,,,,,,89.6553769999955,89.67874479099555,89.67874479099555,89.67874479099555,89.67874479099555,89.68826733333165,89.67874479099555,89.67874479099555,91.11065874999622,Correct! صحیح است,1,1,1,1.4297152919971268,None,91.11486720800167,91.12575816599565,93.1101328329969,93.13213908299804,,791687,001,2024-07-02_19h40.51.035,5-35,2024.1.4,None,2024-07-02 19h40.56.792568 +0900,
Images/Speaker1.jpg,Images/Speaker2.jpg,Images/Speaker3.jpg,Images/Speaker4.jpg,Audio/Speaker4_Per/P4-12-Per.wav,Speaker4,گوینده۴,0,0,0,13,0,11,11,71,93.13213908299804,,,,,,,,,,,,,,,,,,,,,,,,,,,,,,,,,,,,,,,,,,,,,93.11030404100165,93.13213908299804,93.13213908299804,93.13213908299804,93.13213908299804,93.12657637466715,93.13213908299804,93.13213908299804,94.87105816599797,Correct! صحیح است,1,1,4,1.7377818750028382,None,94.8752260830006,94.8863536659992,96.88041900000098,,,791687,001,2024-07-02_19h40.51.035,5-35,2024.1.4,None,2024-07-02 19h40.56.792568 +0900,
Images/Speaker1.jpg,Images/Speaker2.jpg,Images/Speaker3.jpg,Images/Speaker4.jpg,Audio/Speaker1_Per/P1-19-Per.wav,Speaker1,گوینده ۱,0,0,0,13,0,12,12,18,96.90434066599846,,,,,,,,,,,,,,,,,,,,,,,,,,,,,,,,,,,,,,,,,,,,,96.88061637499777,96.90434066599846,96.90434066599846,96.90434066599846,96.90434066599846,96.91371891633074,96.90434066599846,96.90434066599846,98.17997470800037,Correct! صحیح است,1,1,1,1.2700532500020927,None,98.18397637499584,98.19528924999759,100.18700862499827,,,791687,001,2024-07-02_19h40.51.035,5-35,2024.1.4,None,2024-07-02 19h40.56.792568 +0900,
Images/Speaker1.jpg,Images/Speaker2.jpg,Images/Speaker3.jpg,Images/Speaker4.jpg,Audio/Speaker2_Per/P2-17-Per.wav,Speaker2,گوینده۲,0,0,0,13,0,13,13,36,100.21003770799871,,,,,,,,,,,,,,,,,,,,,,,,,,,,,,,,,,,,,,,,,,,,,100.18718174999958,100.21003770799871,100.21003770799871,100.21003770799871,100.21003770799871,100.20364004166574,100.21003770799871,100.21003770799871,101.36408008299622,Correct! صحیح است,1,1,2,1.1416704170042067,None,101.36808362499869,101.37686629100062,103.36571508299676,103.39213145800022,,791687,001,2024-07-02_19h40.51.035,5-35,2024.1.4,None,2024-07-02 19h40.56.792568 +0900,
Images/Speaker1.jpg,Images/Speaker2.jpg,Images/Speaker3.jpg,Images/Speaker4.jpg,Audio/Speaker2_Per/P2-15-Per.wav,Speaker2,گوینده۲,0,0,0,13,0,14,14,34,103.39213145800022,,,,,,,,,,,,,,,,,,,,,,,,,,,,,,,,,,,,,,,,,,,,,103.36629237500165,103.39213145800022,103.39213145800022,103.39213145800022,103.39213145800022,103.3981491243326,103.39213145800022,103.39213145800022,104.73341916599747,Correct! صحیح است,1,1,2,1.3381424999970477,None,104.73745541599783,104.74888291599927,106.73991337500047,,,791687,001,2024-07-02_19h40.51.035,5-35,2024.1.4,None,2024-07-02 19h40.56.792568 +0900,
Images/Speaker1.jpg,Images/Speaker2.jpg,Images/Speaker3.jpg,Images/Speaker4.jpg,Audio/Speaker4_Per/P4-17-Per.wav,Speaker4,گوینده۴,0,0,0,13,0,15,15,76,106.765289707997,,,,,,,,,,,,,,,,,,,,,,,,,,,,,,,,,,,,,,,,,,,,,106.74064512499899,106.765289707997,106.765289707997,106.765289707997,106.765289707997,106.77307016633179,106.765289707997,106.765289707997,108.12762083300186,Correct! صحیح است,1,1,4,1.3612584580041585,None,108.13153291599883,108.14282833299512,110.12709308299964,110.15126233299816,,791687,001,2024-07-02_19h40.51.035,5-35,2024.1.4,None,2024-07-02 19h40.56.792568 +0900,
Images/Speaker1.jpg,Images/Speaker2.jpg,Images/Speaker3.jpg,Images/Speaker4.jpg,Audio/Speaker2_Per/P2-2-Per.wav,Speaker2,گوینده۲,0,0,0,13,0,16,16,21,110.15126233299816,,,,,,,,,,,,,,,,,,,,,,,,,,,,,,,,,,,,,,,,,,,,,110.12727212499885,110.15126233299816,110.15126233299816,110.15126233299816,110.15126233299816,110.16010745833094,110.15126233299816,110.15126233299816,111.43222745799721,Correct! صحیح است,1,1,2,1.2693174579981132,None,111.43623899999511,111.4474250409985,113.43849037499604,,,791687,001,2024-07-02_19h40.51.035,5-35,2024.1.4,None,2024-07-02 19h40.56.792568 +0900,
Images/Speaker1.jpg,Images/Speaker2.jpg,Images/Speaker3.jpg,Images/Speaker4.jpg,Audio/Speaker3_Per/P3-8-Per.wav,Speaker3,گوینده۳,0,0,0,13,0,17,17,47,113.46329512500233,,,,,,,,,,,,,,,,,,,,,,,,,,,,,,,,,,,,,,,,,,,,,113.43865458299842,113.46329512500233,113.46329512500233,113.46329512500233,113.46329512500233,113.47178287433101,113.46329512500233,113.46329512500233,114.8694369579971,Correct! صحیح است,1,1,3,1.4049859999940963,None,114.87344358299742,114.88459387500188,116.87075445799564,116.89439675000176,,791687,001,2024-07-02_19h40.51.035,5-35,2024.1.4,None,2024-07-02 19h40.56.792568 +0900,
Images/Speaker1.jpg,Images/Speaker2.jpg,Images/Speaker3.jpg,Images/Speaker4.jpg,Audio/Speaker4_Per/P4-13-Per.wav,Speaker4,گوینده۴,0,0,0,13,0,18,18,72,116.89439675000176,,,,,,,,,,,,,,,,,,,,,,,,,,,,,,,,,,,,,,,,,,,,,116.87091716600116,116.89439675000176,116.89439675000176,116.89439675000176,116.89439675000176,116.9038319993347,116.89439675000176,116.89439675000176,118.33943920800084,Correct! صحیح است,1,1,4,1.4382459170010407,None,118.34346091599582,118.35481358299876,120.33873804099858,120.36302345799777,,791687,001,2024-07-02_19h40.51.035,5-35,2024.1.4,None,2024-07-02 19h40.56.792568 +0900,
Images/Speaker1.jpg,Images/Speaker2.jpg,Images/Speaker3.jpg,Images/Speaker4.jpg,Audio/Speaker1_Per/P1-2-Per.wav,Speaker1,گوینده ۱,0,0,0,13,0,19,19,1,120.36302345799777,,,,,,,,,,,,,,,,,,,,,,,,,,,,,,,,,,,,,,,,,,,,,120.33891225000116,120.36302345799777,120.36302345799777,120.36302345799777,120.36302345799777,120.3717594993291,120.36302345799777,120.36302345799777,121.93017433299974,Correct! صحیح است,1,1,1,1.5594166660011979,None,121.93441995800094,121.94324958299694,123.93465345799632,,,791687,001,2024-07-02_19h40.51.035,5-35,2024.1.4,None,2024-07-02 19h40.56.792568 +0900,
Images/Speaker1.jpg,Images/Speaker2.jpg,Images/Speaker3.jpg,Images/Speaker4.jpg,Audio/Speaker4_Per/P4-16-Per.wav,Speaker4,گوینده۴,0,0,0,13,0,20,20,75,123.95977162499912,,,,,,,,,,,,,,,,,,,,,,,,,,,,,,,,,,,,,,,,,,,,,123.93529070799559,123.95977162499912,123.95977162499912,123.95977162499912,123.95977162499912,123.96782229132853,123.95977162499912,123.95977162499912,125.34527774999879,Correct! صحیح است,1,1,4,1.383900166998501,None,125.34911295799975,125.36010683299537,127.34301029099879,127.36694983299822,,791687,001,2024-07-02_19h40.51.035,5-35,2024.1.4,None,2024-07-02 19h40.56.792568 +0900,
Images/Speaker1.jpg,Images/Speaker2.jpg,Images/Speaker3.jpg,Images/Speaker4.jpg,Audio/Speaker3_Per/P3-12-Per.wav,Speaker3,گوینده۳,0,0,0,13,0,21,21,51,127.36694983299822,,,,,,,,,,,,,,,,,,,,,,,,,,,,,,,,,,,,,,,,,,,,,127.3431963749972,127.36694983299822,127.36694983299822,127.36694983299822,127.36694983299822,127.37611879133377,127.36694983299822,127.36694983299822,128.7830752910013,Correct! صحیح است,1,1,3,1.4061012919992208,None,128.78727579100087,128.7965827500011,130.78551524999784,130.81215866599814,,791687,001,2024-07-02_19h40.51.035,5-35,2024.1.4,None,2024-07-02 19h40.56.792568 +0900,
Images/Speaker1.jpg,Images/Speaker2.jpg,Images/Speaker3.jpg,Images/Speaker4.jpg,Audio/Speaker4_Per/P4-8-Per.wav,Speaker4,گوینده۴,0,0,0,13,0,22,22,67,130.81215866599814,,,,,,,,,,,,,,,,,,,,,,,,,,,,,,,,,,,,,,,,,,,,,130.78658808299951,130.81215866599814,130.81215866599814,130.81215866599814,130.81215866599814,130.81793508333118,130.81215866599814,130.81215866599814,132.25542624999798,Correct! صحیح است,1,1,4,1.4422295000040322,None,132.25912404099654,132.27051787499659,134.2563674999983,134.2803249159988,,791687,001,2024-07-02_19h40.51.035,5-35,2024.1.4,None,2024-07-02 19h40.56.792568 +0900,
Images/Speaker1.jpg,Images/Speaker2.jpg,Images/Speaker3.jpg,Images/Speaker4.jpg,Audio/Speaker4_Per/P4-2-Per.wav,Speaker4,گوینده۴,0,0,0,13,0,23,23,61,134.2803249159988,,,,,,,,,,,,,,,,,,,,,,,,,,,,,,,,,,,,,,,,,,,,,134.25653816599515,134.2803249159988,134.2803249159988,134.2803249159988,134.2803249159988,134.28947629133523,134.2803249159988,134.2803249159988,135.61058833300194,Correct! صحیح است,1,1,4,1.3252317090009456,None,135.6147865410021,135.62652658300067,137.61508725000022,137.63974320799753,,791687,001,2024-07-02_19h40.51.035,5-35,2024.1.4,None,2024-07-02 19h40.56.792568 +0900,
Images/Speaker1.jpg,Images/Speaker2.jpg,Images/Speaker3.jpg,Images/Speaker4.jpg,Audio/Speaker2_Per/P2-4-Per.wav,Speaker2,گوینده۲,0,0,0,13,0,24,24,23,137.63974320799753,,,,,,,,,,,,,,,,,,,,,,,,,,,,,,,,,,,,,,,,,,,,,137.6156933329985,137.63974320799753,137.63974320799753,137.63974320799753,137.63974320799753,137.64757374933157,137.63974320799753,137.63974320799753,138.9475092499997,Correct! صحیح است,1,1,2,1.2995609170029638,None,138.95138320799742,138.96267049999733,140.95833937499992,,,791687,001,2024-07-02_19h40.51.035,5-35,2024.1.4,None,2024-07-02 19h40.56.792568 +0900,
Images/Speaker1.jpg,Images/Speaker2.jpg,Images/Speaker3.jpg,Images/Speaker4.jpg,Audio/Speaker4_Per/P4-9-Per.wav,Speaker4,گوینده۴,0,0,0,13,0,25,25,68,140.98505270799797,,,,,,,,,,,,,,,,,,,,,,,,,,,,,,,,,,,,,,,,,,,,,140.95899087499856,140.98505270799797,140.98505270799797,140.98505270799797,140.98505270799797,140.99150837433314,140.98505270799797,140.98505270799797,142.2775857910019,Correct! صحیح است,1,1,4,1.2906309160025558,None,142.28138724999735,142.2927219580015,144.28337245799776,,,791687,001,2024-07-02_19h40.51.035,5-35,2024.1.4,None,2024-07-02 19h40.56.792568 +0900,
Images/Speaker1.jpg,Images/Speaker2.jpg,Images/Speaker3.jpg,Images/Speaker4.jpg,Audio/Speaker3_Per/P3-18-Per.wav,Speaker3,گوینده۳,0,0,0,13,0,26,26,57,144.3095078749975,,,,,,,,,,,,,,,,,,,,,,,,,,,,,,,,,,,,,,,,,,,,,144.28398424999614,144.3095078749975,144.3095078749975,144.3095078749975,144.3095078749975,144.31656274932953,144.3095078749975,144.3095078749975,145.9228116250015,Correct! صحیح است,1,1,3,1.6009011249989271,None,145.92675683299603,145.93542754100054,147.927430249998,,,791687,001,2024-07-02_19h40.51.035,5-35,2024.1.4,None,2024-07-02 19h40.56.792568 +0900,
Images/Speaker1.jpg,Images/Speaker2.jpg,Images/Speaker3.jpg,Images/Speaker4.jpg,Audio/Speaker1_Per/P1-9-Per.wav,Speaker1,گوینده ۱,0,0,0,13,0,27,27,8,147.95301074999588,,,,,,,,,,,,,,,,,,,,,,,,,,,,,,,,,,,,,,,,,,,,,147.92804845800129,147.95301074999588,147.95301074999588,147.95301074999588,147.95301074999588,147.9606197083345,147.95301074999588,147.95301074999588,149.33393958299712,Correct! صحیح است,1,1,1,1.3722832919957,None,149.3380047909959,149.3494617499964,151.33387145800225,151.3572305830021,,791687,001,2024-07-02_19h40.51.035,5-35,2024.1.4,None,2024-07-02 19h40.56.792568 +0900,
Images/Speaker1.jpg,Images/Speaker2.jpg,Images/Speaker3.jpg,Images/Speaker4.jpg,Audio/Speaker4_Per/P4-15-Per.wav,Speaker4,گوینده۴,0,0,0,13,0,28,28,74,151.3572305830021,,,,,,,,,,,,,,,,,,,,,,,,,,,,,,,,,,,,,,,,,,,,,151.3340706250019,151.3572305830021,151.3572305830021,151.3572305830021,151.3572305830021,151.36701824933021,151.3572305830021,151.3572305830021,152.7411011660006,Correct! صحیح است,1,1,4,1.3740209999959916,None,152.74578437500168,152.7585075829993,154.74142179099726,154.76354545800132,,791687,001,2024-07-02_19h40.51.035,5-35,2024.1.4,None,2024-07-02 19h40.56.792568 +0900,
Images/Speaker1.jpg,Images/Speaker2.jpg,Images/Speaker3.jpg,Images/Speaker4.jpg,Audio/Speaker2_Per/P2-18-Per.wav,Speaker2,گوینده۲,0,0,0,13,0,29,29,37,154.76354545800132,,,,,,,,,,,,,,,,,,,,,,,,,,,,,,,,,,,,,,,,,,,,,154.74159170799976,154.76354545800132,154.76354545800132,154.76354545800132,154.76354545800132,154.75785583266796,154.76354545800132,154.76354545800132,157.30348183299793,Correct! صحیح است,1,1,2,2.5366036659979727,None,157.3036809999976,157.3148306660005,159.30715883299854,,,791687,001,2024-07-02_19h40.51.035,5-35,2024.1.4,None,2024-07-02 19h40.56.792568 +0900,
Images/Speaker1.jpg,Images/Speaker2.jpg,Images/Speaker3.jpg,Images/Speaker4.jpg,Audio/Speaker1_Per/P1-4-Per.wav,Speaker1,گوینده ۱,0,0,0,13,0,30,30,3,159.330568915997,,,,,,,,,,,,,,,,,,,,,,,,,,,,,,,,,,,,,,,,,,,,,159.30736099999922,159.330568915997,159.330568915997,159.330568915997,159.330568915997,159.3404376243348,159.330568915997,159.330568915997,160.57701308299875,Correct! صحیح است,1,1,1,1.2425521670011221,None,160.58115695799643,160.5920814159981,162.5838503749983,,,791687,001,2024-07-02_19h40.51.035,5-35,2024.1.4,None,2024-07-02 19h40.56.792568 +0900,
Images/Speaker1.jpg,Images/Speaker2.jpg,Images/Speaker3.jpg,Images/Speaker4.jpg,Audio/Speaker3_Per/P3-2-Per.wav,Speaker3,گوینده۳,0,0,0,13,0,31,31,41,162.6082718329999,,,,,,,,,,,,,,,,,,,,,,,,,,,,,,,,,,,,,,,,,,,,,162.58403037500102,162.6082718329999,162.6082718329999,162.6082718329999,162.6082718329999,162.61714133332913,162.6082718329999,162.6082718329999,164.8891028329963,Correct! صحیح است,1,1,3,2.2783322089962894,None,164.89338908300124,164.90455062499677,166.8941229580014,166.91822395799682,,791687,001,2024-07-02_19h40.51.035,5-35,2024.1.4,None,2024-07-02 19h40.56.792568 +0900,
Images/Speaker1.jpg,Images/Speaker2.jpg,Images/Speaker3.jpg,Images/Speaker4.jpg,Audio/Speaker2_Per/P2-11-Per.wav,Speaker2,گوینده۲,0,0,0,13,0,32,32,30,166.91822395799682,,,,,,,,,,,,,,,,,,,,,,,,,,,,,,,,,,,,,,,,,,,,,166.89516170800198,166.91822395799682,166.91822395799682,166.91822395799682,166.91822395799682,166.92648004132985,166.91822395799682,166.91822395799682,168.6303853329955,Correct! صحیح است,1,1,2,1.700204291002592,None,168.63437316600175,168.6434538329995,170.62614487500105,170.65007633299683,,791687,001,2024-07-02_19h40.51.035,5-35,2024.1.4,None,2024-07-02 19h40.56.792568 +0900,
Images/Speaker1.jpg,Images/Speaker2.jpg,Images/Speaker3.jpg,Images/Speaker4.jpg,Audio/Speaker1_Per/P1-11-Per.wav,Speaker1,گوینده ۱,0,0,0,13,0,33,33,10,170.65007633299683,,,,,,,,,,,,,,,,,,,,,,,,,,,,,,,,,,,,,,,,,,,,,170.62634516599792,170.65007633299683,170.65007633299683,170.65007633299683,170.65007633299683,170.6592577493289,170.65007633299683,170.65007633299683,171.7445657499993,Correct! صحیح است,1,1,1,1.093459999996412,None,171.74873591600044,171.76029266599653,173.7579694160013,,,791687,001,2024-07-02_19h40.51.035,5-35,2024.1.4,None,2024-07-02 19h40.56.792568 +0900,
Images/Speaker1.jpg,Images/Speaker2.jpg,Images/Speaker3.jpg,Images/Speaker4.jpg,Audio/Speaker4_Per/P4-14-Per.wav,Speaker4,گوینده۴,0,0,0,13,0,34,34,73,173.7855927499986,,,,,,,,,,,,,,,,,,,,,,,,,,,,,,,,,,,,,,,,,,,,,173.75863279099576,173.7855927499986,173.7855927499986,173.7855927499986,173.7855927499986,173.79114483333302,173.7855927499986,173.7855927499986,175.37336929099547,Correct! صحیح است,1,1,4,1.5861707920048502,None,175.37718112499715,175.3900456659976,177.38229258299543,,,791687,001,2024-07-02_19h40.51.035,5-35,2024.1.4,None,2024-07-02 19h40.56.792568 +0900,
Images/Speaker1.jpg,Images/Speaker2.jpg,Images/Speaker3.jpg,Images/Speaker4.jpg,Audio/Speaker3_Per/P3-20-Per.wav,Speaker3,گوینده۳,0,0,0,13,0,35,35,59,177.407347458,,,,,,,,,,,,,,,,,,,,,,,,,,,,,,,,,,,,,,,,,,,,,177.38288770800136,177.407347458,177.407347458,177.407347458,177.407347458,177.41543766632873,177.407347458,177.407347458,178.88626129100157,Correct! صحیح است,1,1,3,1.4778244589979295,None,178.8899940830015,178.90121075000206,180.88446295799804,180.90718387500237,,791687,001,2024-07-02_19h40.51.035,5-35,2024.1.4,None,2024-07-02 19h40.56.792568 +0900,
Images/Speaker1.jpg,Images/Speaker2.jpg,Images/Speaker3.jpg,Images/Speaker4.jpg,Audio/Speaker2_Per/P2-7-Per.wav,Speaker2,گوینده۲,0,0,0,13,0,36,36,26,180.90718387500237,,,,,,,,,,,,,,,,,,,,,,,,,,,,,,,,,,,,,,,,,,,,,180.88462699999945,180.90718387500237,180.90718387500237,180.90718387500237,180.90718387500237,180.9175794993285,180.90718387500237,180.90718387500237,181.9940571249972,Correct! صحیح است,1,1,2,1.084531041997252,None,181.9978394159989,182.00914554100018,183.99250374999974,184.01373583299574,,791687,001,2024-07-02_19h40.51.035,5-35,2024.1.4,None,2024-07-02 19h40.56.792568 +0900,
Images/Speaker1.jpg,Images/Speaker2.jpg,Images/Speaker3.jpg,Images/Speaker4.jpg,Audio/Speaker2_Per/P2-6-Per.wav,Speaker2,گوینده۲,0,0,0,13,0,37,37,25,184.01373583299574,,,,,,,,,,,,,,,,,,,,,,,,,,,,,,,,,,,,,,,,,,,,,183.9927153749959,184.01373583299574,184.01373583299574,184.01373583299574,184.01373583299574,184.008958791663,184.01373583299574,184.01373583299574,185.5643859999982,Correct! صحیح است,1,1,2,1.5464192910003476,None,185.5680979999961,185.5793379579991,187.56675824999547,187.58886062500096,,791687,001,2024-07-02_19h40.51.035,5-35,2024.1.4,None,2024-07-02 19h40.56.792568 +0900,
Images/Speaker1.jpg,Images/Speaker2.jpg,Images/Speaker3.jpg,Images/Speaker4.jpg,Audio/Speaker3_Per/P3-17-Per.wav,Speaker3,گوینده۳,0,0,0,13,0,38,38,56,187.58886062500096,,,,,,,,,,,,,,,,,,,,,,,,,,,,,,,,,,,,,,,,,,,,,187.56693670799723,187.58886062500096,187.58886062500096,187.58886062500096,187.58886062500096,187.58318524966697,187.58886062500096,187.58886062500096,189.18928783299634,Correct! صحیح است,1,1,3,1.5991460000004736,None,189.19427308299782,189.2074811249986,191.1976236249975,,,791687,001,2024-07-02_19h40.51.035,5-35,2024.1.4,None,2024-07-02 19h40.56.792568 +0900,
Images/Speaker1.jpg,Images/Speaker2.jpg,Images/Speaker3.jpg,Images/Speaker4.jpg,Audio/Speaker1_Per/P1-17-Per.wav,Speaker1,گوینده ۱,0,0,0,13,0,39,39,16,191.2202133749961,,,,,,,,,,,,,,,,,,,,,,,,,,,,,,,,,,,,,,,,,,,,,191.197799415997,191.2202133749961,191.2202133749961,191.2202133749961,191.2202133749961,191.2142575826622,191.2202133749961,191.2202133749961,192.54523112499737,Correct! صحیح است,1,1,1,1.3181082500013872,None,192.54999887500162,192.56186712499766,194.54843450000044,194.57532558299863,,791687,001,2024-07-02_19h40.51.035,5-35,2024.1.4,None,2024-07-02 19h40.56.792568 +0900,
Images/Speaker1.jpg,Images/Speaker2.jpg,Images/Speaker3.jpg,Images/Speaker4.jpg,Audio/Speaker3_Per/P3-1-Per.wav,Speaker3,گوینده۳,0,0,0,13,0,40,40,40,194.57532558299863,,,,,,,,,,,,,,,,,,,,,,,,,,,,,,,,,,,,,,,,,,,,,194.5490471660014,194.57532558299863,194.57532558299863,194.57532558299863,194.57532558299863,194.58091154132904,194.57532558299863,194.57532558299863,195.9008275410015,Correct! صحیح است,1,1,3,1.311990333997528,None,195.90507145800075,195.91606175000197,197.90550295799767,,,791687,001,2024-07-02_19h40.51.035,5-35,2024.1.4,None,2024-07-02 19h40.56.792568 +0900,
Images/Speaker1.jpg,Images/Speaker2.jpg,Images/Speaker3.jpg,Images/Speaker4.jpg,Audio/Speaker4_Per/P4-11-Per.wav,Speaker4,گوینده۴,0,0,0,13,0,41,41,70,197.9305591250013,,,,,,,,,,,,,,,,,,,,,,,,,,,,,,,,,,,,,,,,,,,,,197.90567787500186,197.9305591250013,197.9305591250013,197.9305591250013,197.9305591250013,197.9387998743337,197.9305591250013,197.9305591250013,199.46356466599536,Correct! صحیح است,1,1,4,1.5281252499989932,None,199.4684895409955,199.48068349999812,201.46991554099804,,,791687,001,2024-07-02_19h40.51.035,5-35,2024.1.4,None,2024-07-02 19h40.56.792568 +0900,
Images/Speaker1.jpg,Images/Speaker2.jpg,Images/Speaker3.jpg,Images/Speaker4.jpg,Audio/Speaker2_Per/P2-9-Per.wav,Speaker2,گوینده۲,0,0,0,13,0,42,42,28,201.4929375829961,,,,,,,,,,,,,,,,,,,,,,,,,,,,,,,,,,,,,,,,,,,,,201.4700891659959,201.4929375829961,201.4929375829961,201.4929375829961,201.4929375829961,201.48654937466588,201.4929375829961,201.4929375829961,204.30272545800108,Correct! صحیح است,1,1,2,2.808580124998116,None,204.30295691599895,204.3137072499958,206.2973435410022,206.32029166600114,,791687,001,2024-07-02_19h40.51.035,5-35,2024.1.4,None,2024-07-02 19h40.56.792568 +0900,
Images/Speaker1.jpg,Images/Speaker2.jpg,Images/Speaker3.jpg,Images/Speaker4.jpg,Audio/Speaker1_Per/P1-7-Per.wav,Speaker1,گوینده ۱,0,0,0,13,0,43,43,6,206.32029166600114,,,,,,,,,,,,,,,,,,,,,,,,,,,,,,,,,,,,,,,,,,,,,206.2975361659992,206.32029166600114,206.32029166600114,206.32029166600114,206.32029166600114,206.3137441666661,206.32029166600114,206.32029166600114,403.29399641599593,Correct! صحیح است,1,1,1,196.97207224999875,None,403.2942344580006,403.30582283299736,405.3007421660004,,,791687,001,2024-07-02_19h40.51.035,5-35,2024.1.4,None,2024-07-02 19h40.56.792568 +0900,
Images/Speaker1.jpg,Images/Speaker2.jpg,Images/Speaker3.jpg,Images/Speaker4.jpg,Audio/Speaker2_Per/P2-13-Per.wav,Speaker2,گوینده۲,0,0,0,13,0,44,44,32,405.3288182079996,,,,,,,,,,,,,,,,,,,,,,,,,,,,,,,,,,,,,,,,,,,,,405.30139570799656,405.3288182079996,405.3288182079996,405.3288182079996,405.3288182079996,405.3338995833333,405.3288182079996,405.3288182079996,408.11725858299906,Correct! صحیح است,1,1,2,2.7803005419991678,None,408.1213212500006,408.1301412499961,410.12122412499593,410.144835375002,,791687,001,2024-07-02_19h40.51.035,5-35,2024.1.4,None,2024-07-02 19h40.56.792568 +0900,
Images/Speaker1.jpg,Images/Speaker2.jpg,Images/Speaker3.jpg,Images/Speaker4.jpg,Audio/Speaker1_Per/P1-16-Per.wav,Speaker1,گوینده ۱,0,0,0,13,0,45,45,15,410.144835375002,,,,,,,,,,,,,,,,,,,,,,,,,,,,,,,,,,,,,,,,,,,,,410.1219184579968,410.144835375002,410.144835375002,410.144835375002,410.144835375002,410.1537749163331,410.144835375002,410.144835375002,411.490673332999,Correct! صحیح است,1,1,1,1.3374546249979176,None,411.4954164160008,411.5078456659976,413.4922962080018,413.5169321249996,,791687,001,2024-07-02_19h40.51.035,5-35,2024.1.4,None,2024-07-02 19h40.56.792568 +0900,
Images/Speaker1.jpg,Images/Speaker2.jpg,Images/Speaker3.jpg,Images/Speaker4.jpg,Audio/Speaker4_Per/P4-5-Per.wav,Speaker4,گوینده۴,0,0,0,13,0,46,46,64,413.5169321249996,,,,,,,,,,,,,,,,,,,,,,,,,,,,,,,,,,,,,,,,,,,,,413.4932603749985,413.5169321249996,413.5169321249996,413.5169321249996,413.5169321249996,413.5247687913293,413.5169321249996,413.5169321249996,415.7777652079967,Correct! صحیح است,1,1,4,2.259669833998487,None,415.78209074999904,415.7933969579972,417.79063316599786,,,791687,001,2024-07-02_19h40.51.035,5-35,2024.1.4,None,2024-07-02 19h40.56.792568 +0900,
Images/Speaker1.jpg,Images/Speaker2.jpg,Images/Speaker3.jpg,Images/Speaker4.jpg,Audio/Speaker1_Per/P1-10-Per.wav,Speaker1,گوینده ۱,0,0,0,13,0,47,47,9,417.8164010409964,,,,,,,,,,,,,,,,,,,,,,,,,,,,,,,,,,,,,,,,,,,,,417.7913307909985,417.8164010409964,417.8164010409964,417.8164010409964,417.8164010409964,417.823736916333,417.8164010409964,417.8164010409964,418.97139220799727,Correct! صحیح است,1,1,1,1.1507512089956435,None,418.9752137499963,418.9864632079989,420.97019641599763,420.99488404099975,,791687,001,2024-07-02_19h40.51.035,5-35,2024.1.4,None,2024-07-02 19h40.56.792568 +0900,
Images/Speaker1.jpg,Images/Speaker2.jpg,Images/Speaker3.jpg,Images/Speaker4.jpg,Audio/Speaker1_Per/P1-4-Per.wav,Speaker1,گوینده ۱,0,0,0,13,0,48,48,13,420.99488404099975,,,,,,,,,,,,,,,,,,,,,,,,,,,,,,,,,,,,,,,,,,,,,420.9711618329966,420.99488404099975,420.99488404099975,420.99488404099975,420.99488404099975,421.0024749583322,420.99488404099975,420.99488404099975,422.2555775829969,Correct! صحیح است,1,1,1,1.2511851669987664,None,422.26013554100064,422.2726814580019,424.26412620799965,,,791687,001,2024-07-02_19h40.51.035,5-35,2024.1.4,None,2024-07-02 19h40.56.792568 +0900,
Images/Speaker1.jpg,Images/Speaker2.jpg,Images/Speaker3.jpg,Images/Speaker4.jpg,Audio/Speaker2_Per/P2-1-Per.wav,Speaker2,گوینده۲,0,0,0,13,0,49,49,20,424.28670774999773,,,,,,,,,,,,,,,,,,,,,,,,,,,,,,,,,,,,,,,,,,,,,424.2642966659987,424.28670774999773,424.28670774999773,424.28670774999773,424.28670774999773,424.2807419166677,424.28670774999773,424.28670774999773,425.71454179099965,Correct! صحیح است,1,1,2,1.4242622500023572,None,425.7183856249976,425.72937162499875,427.7178756249996,427.74237795799854,,791687,001,2024-07-02_19h40.51.035,5-35,2024.1.4,None,2024-07-02 19h40.56.792568 +0900,
Images/Speaker1.jpg,Images/Speaker2.jpg,Images/Speaker3.jpg,Images/Speaker4.jpg,Audio/Speaker3_Per/P3-11-Per.wav,Speaker3,گوینده۳,0,0,0,13,0,50,50,50,427.74237795799854,,,,,,,,,,,,,,,,,,,,,,,,,,,,,,,,,,,,,,,,,,,,,427.7180632910022,427.74237795799854,427.74237795799854,427.74237795799854,427.74237795799854,427.7508569163333,427.74237795799854,427.74237795799854,429.85669391600095,Correct! صحیح است,1,1,3,2.104517375002615,None,429.86093612499826,429.87291070799984,431.86414974999934,,,791687,001,2024-07-02_19h40.51.035,5-35,2024.1.4,None,2024-07-02 19h40.56.792568 +0900,
Images/Speaker1.jpg,Images/Speaker2.jpg,Images/Speaker3.jpg,Images/Speaker4.jpg,Audio/Speaker2_Per/P2-14-Per.wav,Speaker2,گوینده۲,0,0,0,13,0,51,51,33,431.89163704100065,,,,,,,,,,,,,,,,,,,,,,,,,,,,,,,,,,,,,,,,,,,,,431.8647944999975,431.89163704100065,431.89163704100065,431.89163704100065,431.89163704100065,431.8973322083334,431.89163704100065,431.89163704100065,433.10621920799895,Correct! صحیح است,1,1,2,1.2128841659941827,None,433.1100073330017,433.12148595799954,435.1074536660017,435.13179112500075,,791687,001,2024-07-02_19h40.51.035,5-35,2024.1.4,None,2024-07-02 19h40.56.792568 +0900,
Images/Speaker1.jpg,Images/Speaker2.jpg,Images/Speaker3.jpg,Images/Speaker4.jpg,Audio/Speaker1_Per/P1-18-Per.wav,Speaker1,گوینده ۱,0,0,0,13,0,52,52,17,435.13179112500075,,,,,,,,,,,,,,,,,,,,,,,,,,,,,,,,,,,,,,,,,,,,,435.10787254099705,435.13179112500075,435.13179112500075,435.13179112500075,435.13179112500075,435.1404747493293,435.13179112500075,435.13179112500075,436.26441625000007,Correct! صحیح است,1,1,1,1.1208489589989767,None,436.2684694999989,436.2771264999974,438.2606922909981,438.28296899999987,,791687,001,2024-07-02_19h40.51.035,5-35,2024.1.4,None,2024-07-02 19h40.56.792568 +0900,
Images/Speaker1.jpg,Images/Speaker2.jpg,Images/Speaker3.jpg,Images/Speaker4.jpg,Audio/Speaker1_Per/P1-1-Per.wav,Speaker1,گوینده ۱,0,0,0,13,0,53,53,0,438.28296899999987,,,,,,,,,,,,,,,,,,,,,,,,,,,,,,,,,,,,,,,,,,,,,438.2608712079964,438.28296899999987,438.28296899999987,438.28296899999987,438.28296899999987,438.2771149166622,438.28296899999987,438.28296899999987,439.6266483750005,Correct! صحیح است,1,1,1,1.3309948329988401,None,439.6309924160014,439.64441324999643,441.6386999999959,,,791687,001,2024-07-02_19h40.51.035,5-35,2024.1.4,None,2024-07-02 19h40.56.792568 +0900,
Images/Speaker1.jpg,Images/Speaker2.jpg,Images/Speaker3.jpg,Images/Speaker4.jpg,Audio/Speaker4_Per/P4-7-Per.wav,Speaker4,گوینده۴,0,0,0,13,0,54,54,66,441.6621640000012,,,,,,,,,,,,,,,,,,,,,,,,,,,,,,,,,,,,,,,,,,,,,441.63888512500125,441.6621640000012,441.6621640000012,441.6621640000012,441.6621640000012,441.6719992913354,441.6621640000012,441.6621640000012,444.0983913749951,Correct! صحیح است,1,1,4,2.425890957994852,None,444.10225658299896,444.11360412499926,446.10229245799565,446.1270519999962,,791687,001,2024-07-02_19h40.51.035,5-35,2024.1.4,None,2024-07-02 19h40.56.792568 +0900,
Images/Speaker1.jpg,Images/Speaker2.jpg,Images/Speaker3.jpg,Images/Speaker4.jpg,Audio/Speaker3_Per/P3-5-Per.wav,Speaker3,گوینده۳,0,0,0,13,0,55,55,44,446.1270519999962,,,,,,,,,,,,,,,,,,,,,,,,,,,,,,,,,,,,,,,,,,,,,446.10326187499595,446.1270519999962,446.1270519999962,446.1270519999962,446.1270519999962,446.1346214583323,446.1270519999962,446.1270519999962,447.94805612500204,Correct! صحیح است,1,1,3,1.818220500004827,None,447.9519709160013,447.9633391249954,449.9558659579998,,,791687,001,2024-07-02_19h40.51.035,5-35,2024.1.4,None,2024-07-02 19h40.56.792568 +0900,
Images/Speaker1.jpg,Images/Speaker2.jpg,Images/Speaker3.jpg,Images/Speaker4.jpg,Audio/Speaker4_Per/P4-10-Per.wav,Speaker4,گوینده۴,0,0,0,13,0,56,56,69,449.98338749999675,,,,,,,,,,,,,,,,,,,,,,,,,,,,,,,,,,,,,,,,,,,,,449.9564814580008,449.98338749999675,449.98338749999675,449.98338749999675,449.98338749999675,449.9890391663289,449.98338749999675,449.98338749999675,452.8799727910009,Correct! صحیح است,1,1,4,2.8953632499978994,None,452.88382837500103,452.8949349999966,454.88365099999646,454.9061878749999,,791687,001,2024-07-02_19h40.51.035,5-35,2024.1.4,None,2024-07-02 19h40.56.792568 +0900,
Images/Speaker1.jpg,Images/Speaker2.jpg,Images/Speaker3.jpg,Images/Speaker4.jpg,Audio/Speaker3_Per/P3-9-Per.wav,Speaker3,گوینده۳,0,0,0,13,0,57,57,48,454.9061878749999,,,,,,,,,,,,,,,,,,,,,,,,,,,,,,,,,,,,,,,,,,,,,454.8838191659961,454.9061878749999,454.9061878749999,454.9061878749999,454.9061878749999,454.900099791663,454.9061878749999,454.9061878749999,458.10773016599705,Correct! صحیح است,1,1,3,3.1983041249986854,None,458.10792987499735,458.11890445800236,460.11322700000164,,,791687,001,2024-07-02_19h40.51.035,5-35,2024.1.4,None,2024-07-02 19h40.56.792568 +0900,
Images/Speaker1.jpg,Images/Speaker2.jpg,Images/Speaker3.jpg,Images/Speaker4.jpg,Audio/Speaker1_Per/P1-5-Per.wav,Speaker1,گوینده ۱,0,0,0,13,0,58,58,4,460.136035083,,,,,,,,,,,,,,,,,,,,,,,,,,,,,,,,,,,,,,,,,,,,,460.11340345799545,460.136035083,460.136035083,460.136035083,460.136035083,460.12985595766463,460.136035083,460.136035083,463.1559554159976,Correct! صحیح است,1,1,1,3.0116105830020388,None,463.1601709999959,463.172044166,465.15842683299707,465.1843327079987,,791687,001,2024-07-02_19h40.51.035,5-35,2024.1.4,None,2024-07-02 19h40.56.792568 +0900,
Images/Speaker1.jpg,Images/Speaker2.jpg,Images/Speaker3.jpg,Images/Speaker4.jpg,Audio/Speaker4_Per/P4-18-Per.wav,Speaker4,گوینده۴,0,0,0,13,0,59,59,77,465.1843327079987,,,,,,,,,,,,,,,,,,,,,,,,,,,,,,,,,,,,,,,,,,,,,465.15923133299657,465.1843327079987,465.1843327079987,465.1843327079987,465.1843327079987,465.1908762083335,465.1843327079987,465.1843327079987,496.7088799580015,Correct! صحیح است,1,1,4,31.5150281669994,None,496.7099226249993,496.7216610830001,498.705310749996,498.73034741599986,,791687,001,2024-07-02_19h40.51.035,5-35,2024.1.4,None,2024-07-02 19h40.56.792568 +0900,
Images/Speaker1.jpg,Images/Speaker2.jpg,Images/Speaker3.jpg,Images/Speaker4.jpg,Audio/Speaker2_Per/P2-10-Per.wav,Speaker2,گوینده۲,0,0,0,13,0,60,60,29,498.73034741599986,,,,,,,,,,,,,,,,,,,,,,,,,,,,,,,,,,,,,,,,,,,,,498.70575879100215,498.73034741599986,498.73034741599986,498.73034741599986,498.73034741599986,498.73797274933213,498.73034741599986,498.73034741599986,502.65497075000167,Correct! صحیح است,1,1,2,3.9173155409953324,None,502.6552480409955,502.666620582997,504.6506198329953,504.6734111249971,,791687,001,2024-07-02_19h40.51.035,5-35,2024.1.4,None,2024-07-02 19h40.56.792568 +0900,
Images/Speaker1.jpg,Images/Speaker2.jpg,Images/Speaker3.jpg,Images/Speaker4.jpg,Audio/Speaker1_Per/P1-3-Per.wav,Speaker1,گوینده ۱,0,0,0,13,0,61,61,2,504.6734111249971,,,,,,,,,,,,,,,,,,,,,,,,,,,,,,,,,,,,,,,,,,,,,504.6508168329965,504.6734111249971,504.6734111249971,504.6734111249971,504.6734111249971,504.6670892496661,504.6734111249971,504.6734111249971,510.1083050410016,Correct! صحیح است,1,1,1,5.428017917001853,None,510.10850691599626,510.11998270799813,512.1142475000015,,,791687,001,2024-07-02_19h40.51.035,5-35,2024.1.4,None,2024-07-02 19h40.56.792568 +0900,
Images/Speaker1.jpg,Images/Speaker2.jpg,Images/Speaker3.jpg,Images/Speaker4.jpg,Audio/Speaker3_Per/P3-19-Per.wav,Speaker3,گوینده۳,0,0,0,13,0,62,62,58,512.1372215829979,,,,,,,,,,,,,,,,,,,,,,,,,,,,,,,,,,,,,,,,,,,,,512.1144285409973,512.1372215829979,512.1372215829979,512.1372215829979,512.1372215829979,512.1308607916619,512.1372215829979,512.1372215829979,516.8566959999953,Correct! صحیح است,1,1,3,4.715207666995411,None,516.856917582998,516.8683344579986,518.855425791,518.8790302080015,,791687,001,2024-07-02_19h40.51.035,5-35,2024.1.4,None,2024-07-02 19h40.56.792568 +0900,
Images/Speaker1.jpg,Images/Speaker2.jpg,Images/Speaker3.jpg,Images/Speaker4.jpg,Audio/Speaker3_Per/P3-13-Per.wav,Speaker3,گوینده۳,0,0,0,13,0,63,63,52,518.8790302080015,,,,,,,,,,,,,,,,,,,,,,,,,,,,,,,,,,,,,,,,,,,,,518.8556091659993,518.8790302080015,518.8790302080015,518.8790302080015,518.8790302080015,518.8884960833316,518.8790302080015,518.8790302080015,520.4359015000009,Correct! صحیح است,1,1,3,1.5549922499994864,None,520.4401244159963,520.451870500001,522.4345276250024,522.4580325409988,,791687,001,2024-07-02_19h40.51.035,5-35,2024.1.4,None,2024-07-02 19h40.56.792568 +0900,
Images/Speaker1.jpg,Images/Speaker2.jpg,Images/Speaker3.jpg,Images/Speaker4.jpg,Audio/Speaker2_Per/P2-12-Per.wav,Speaker2,گوینده۲,0,0,0,13,0,64,64,31,522.4580325409988,,,,,,,,,,,,,,,,,,,,,,,,,,,,,,,,,,,,,,,,,,,,,522.4347010829952,522.4580325409988,522.4580325409988,522.4580325409988,522.4580325409988,522.4676257913311,522.4580325409988,522.4580325409988,524.4891528329972,Correct! صحیح است,1,1,2,2.0260339169981307,None,524.4932738329953,524.506018125001,526.489000249996,526.5130633329973,,791687,001,2024-07-02_19h40.51.035,5-35,2024.1.4,None,2024-07-02 19h40.56.792568 +0900,
Images/Speaker1.jpg,Images/Speaker2.jpg,Images/Speaker3.jpg,Images/Speaker4.jpg,Audio/Speaker1_Per/P1-8-Per.wav,Speaker1,گوینده ۱,0,0,0,13,0,65,65,7,526.5130633329973,,,,,,,,,,,,,,,,,,,,,,,,,,,,,,,,,,,,,,,,,,,,,526.4891802499988,526.5130633329973,526.5130633329973,526.5130633329973,526.5130633329973,526.5220284993343,526.5130633329973,526.5130633329973,527.6060271249953,Correct! صحیح است,1,1,1,1.0909726669997326,None,527.6101899579953,527.6214664159997,529.6063518329975,529.6310174999962,,791687,001,2024-07-02_19h40.51.035,5-35,2024.1.4,None,2024-07-02 19h40.56.792568 +0900,
Images/Speaker1.jpg,Images/Speaker2.jpg,Images/Speaker3.jpg,Images/Speaker4.jpg,Audio/Speaker2_Per/P2-3-Per.wav,Speaker2,گوینده۲,0,0,0,13,0,66,66,22,529.6310174999962,,,,,,,,,,,,,,,,,,,,,,,,,,,,,,,,,,,,,,,,,,,,,529.6071530409972,529.6310174999962,529.6310174999962,529.6310174999962,529.6310174999962,529.6389047083289,529.6310174999962,529.6310174999962,530.822811207996,Correct! صحیح است,1,1,2,1.189993667001545,None,530.8267364999992,530.837732041,532.8322543749964,,,791687,001,2024-07-02_19h40.51.035,5-35,2024.1.4,None,2024-07-02 19h40.56.792568 +0900,
Images/Speaker1.jpg,Images/Speaker2.jpg,Images/Speaker3.jpg,Images/Speaker4.jpg,Audio/Speaker3_Per/P3-4-Per.wav,Speaker3,گوینده۳,0,0,0,13,0,67,67,43,532.857792625,,,,,,,,,,,,,,,,,,,,,,,,,,,,,,,,,,,,,,,,,,,,,532.8329153750019,532.857792625,532.857792625,532.857792625,532.857792625,532.8654149993313,532.857792625,532.857792625,535.2161005829985,Correct! صحیح است,1,1,3,2.3477999169990653,None,535.2202342079981,535.2311682910004,537.2168274579963,537.2438956659971,,791687,001,2024-07-02_19h40.51.035,5-35,2024.1.4,None,2024-07-02 19h40.56.792568 +0900,
Images/Speaker1.jpg,Images/Speaker2.jpg,Images/Speaker3.jpg,Images/Speaker4.jpg,Audio/Speaker4_Per/P4-19-Per.wav,Speaker4,گوینده۴,0,0,0,13,0,68,68,78,537.2438956659971,,,,,,,,,,,,,,,,,,,,,,,,,,,,,,,,,,,,,,,,,,,,,537.2176901659986,537.2438956659971,537.2438956659971,537.2438956659971,537.2438956659971,537.2492357493325,537.2438956659971,537.2438956659971,538.6495109160023,Correct! صحیح است,1,1,4,1.3977103750003153,None,538.6536824579962,538.6629729159977,540.6583361660014,,,791687,001,2024-07-02_19h40.51.035,5-35,2024.1.4,None,2024-07-02 19h40.56.792568 +0900,
Images/Speaker1.jpg,Images/Speaker2.jpg,Images/Speaker3.jpg,Images/Speaker4.jpg,Audio/Speaker4_Per/P4-3-Per.wav,Speaker4,گوینده۴,0,0,0,13,0,69,69,62,540.6802055000007,,,,,,,,,,,,,,,,,,,,,,,,,,,,,,,,,,,,,,,,,,,,,540.6585172909981,540.6802055000007,540.6802055000007,540.6802055000007,540.6802055000007,540.6749654576672,540.6802055000007,540.6802055000007,544.4301751250023,Correct! صحیح است,1,1,4,3.7394302079992485,None,544.4304146659997,544.4418512909979,546.4326434579998,,,791687,001,2024-07-02_19h40.51.035,5-35,2024.1.4,None,2024-07-02 19h40.56.792568 +0900,
Images/Speaker1.jpg,Images/Speaker2.jpg,Images/Speaker3.jpg,Images/Speaker4.jpg,Audio/Speaker2_Per/P2-5-Per.wav,Speaker2,گوینده۲,0,0,0,13,0,70,70,24,546.455384957997,,,,,,,,,,,,,,,,,,,,,,,,,,,,,,,,,,,,,,,,,,,,,546.4328346659968,546.455384957997,546.455384957997,546.455384957997,546.455384957997,546.4492611666685,546.455384957997,546.455384957997,547.8724206659972,Correct! صحیح است,1,1,2,1.4144371660004253,None,547.8770620409996,547.8888749999969,549.8728890829952,549.8973601659964,,791687,001,2024-07-02_19h40.51.035,5-35,2024.1.4,None,2024-07-02 19h40.56.792568 +0900,
Images/Speaker1.jpg,Images/Speaker2.jpg,Images/Speaker3.jpg,Images/Speaker4.jpg,Audio/Speaker1_Per/P1-12-Per.wav,Speaker1,گوینده ۱,0,0,0,13,0,71,71,11,549.8973601659964,,,,,,,,,,,,,,,,,,,,,,,,,,,,,,,,,,,,,,,,,,,,,549.8730539159951,549.8973601659964,549.8973601659964,549.8973601659964,549.8973601659964,549.9060189583329,549.8973601659964,549.8973601659964,551.2363523329986,Correct! صحیح است,1,1,1,1.3362572909973096,None,551.2405968749954,551.2529074159975,553.2397655829991,553.263149749997,,791687,001,2024-07-02_19h40.51.035,5-35,2024.1.4,None,2024-07-02 19h40.56.792568 +0900,
Images/Speaker1.jpg,Images/Speaker2.jpg,Images/Speaker3.jpg,Images/Speaker4.jpg,Audio/Speaker1_Per/P1-6-Per.wav,Speaker1,گوینده ۱,0,0,0,13,0,72,72,5,553.263149749997,,,,,,,,,,,,,,,,,,,,,,,,,,,,,,,,,,,,,,,,,,,,,553.2399322499987,553.263149749997,553.263149749997,553.263149749997,553.263149749997,553.2728562493289,553.263149749997,553.263149749997,554.4358734159978,Correct! صحیح است,1,1,1,1.168281250000291,None,554.439672374996,554.4510211250017,556.4339423749989,556.4571145000009,,791687,001,2024-07-02_19h40.51.035,5-35,2024.1.4,None,2024-07-02 19h40.56.792568 +0900,
Images/Speaker1.jpg,Images/Speaker2.jpg,Images/Speaker3.jpg,Images/Speaker4.jpg,Audio/Speaker4_Per/P4-1-Per.wav,Speaker4,گوینده۴,0,0,0,13,0,73,73,60,556.4571145000009,,,,,,,,,,,,,,,,,,,,,,,,,,,,,,,,,,,,,,,,,,,,,556.4341428330008,556.4571145000009,556.4571145000009,556.4571145000009,556.4571145000009,556.4669278333317,556.4571145000009,556.4571145000009,558.165109290996,Correct! صحیح است,1,1,4,1.7069861659983872,None,558.1690891659964,558.182147665997,560.1681054159999,560.1954431249978,,791687,001,2024-07-02_19h40.51.035,5-35,2024.1.4,None,2024-07-02 19h40.56.792568 +0900,
Images/Speaker1.jpg,Images/Speaker2.jpg,Images/Speaker3.jpg,Images/Speaker4.jpg,Audio/Speaker3_Per/P3-14-Per.wav,Speaker3,گوینده۳,0,0,0,13,0,74,74,53,560.1954431249978,,,,,,,,,,,,,,,,,,,,,,,,,,,,,,,,,,,,,,,,,,,,,560.1690825409969,560.1954431249978,560.1954431249978,560.1954431249978,560.1954431249978,560.20048087433,560.1954431249978,560.1954431249978,562.0312141659961,Correct! صحیح است,1,1,3,1.8347161670026253,None,562.036296708,562.049306957997,564.0399354580004,,,791687,001,2024-07-02_19h40.51.035,5-35,2024.1.4,None,2024-07-02 19h40.56.792568 +0900,
Images/Speaker1.jpg,Images/Speaker2.jpg,Images/Speaker3.jpg,Images/Speaker4.jpg,Audio/Speaker4_Per/P4-20-Per.wav,Speaker4,گوینده۴,0,0,0,13,0,75,75,79,564.0620191249982,,,,,,,,,,,,,,,,,,,,,,,,,,,,,,,,,,,,,,,,,,,,,564.0401136250002,564.0620191249982,564.0620191249982,564.0620191249982,564.0620191249982,564.0565657496666,564.0620191249982,564.0620191249982,565.950778749997,Correct! صحیح است,1,1,4,1.8753192500007572,None,565.9554432910008,565.9688993329983,567.9573611660016,,,791687,001,2024-07-02_19h40.51.035,5-35,2024.1.4,None,2024-07-02 19h40.56.792568 +0900,
Images/Speaker1.jpg,Images/Speaker2.jpg,Images/Speaker3.jpg,Images/Speaker4.jpg,Audio/Speaker3_Per/P3-6-Per.wav,Speaker3,گوینده۳,0,0,0,13,0,76,76,45,567.9823837500007,,,,,,,,,,,,,,,,,,,,,,,,,,,,,,,,,,,,,,,,,,,,,567.9575791659954,567.9823837500007,567.9823837500007,567.9823837500007,567.9823837500007,567.9906489583304,567.9823837500007,567.9823837500007,571.1723796660008,Correct! صحیح است,1,1,3,3.186952249998285,None,571.1762865830024,571.1874041659976,573.1721866250009,573.1949346659967,,791687,001,2024-07-02_19h40.51.035,5-35,2024.1.4,None,2024-07-02 19h40.56.792568 +0900,
Images/Speaker1.jpg,Images/Speaker2.jpg,Images/Speaker3.jpg,Images/Speaker4.jpg,Audio/Speaker3_Per/P3-15-Per.wav,Speaker3,گوینده۳,0,0,0,13,0,77,77,54,573.1949346659967,,,,,,,,,,,,,,,,,,,,,,,,,,,,,,,,,,,,,,,,,,,,,573.1723524999979,573.1949346659967,573.1949346659967,573.1949346659967,573.1949346659967,573.1885747916642,573.1949346659967,573.1949346659967,574.5404167910019,Correct! صحیح است,1,1,3,1.3389767499975278,None,574.5441379999975,574.5547625409963,576.5405126249971,576.5643598749957,,791687,001,2024-07-02_19h40.51.035,5-35,2024.1.4,None,2024-07-02 19h40.56.792568 +0900,
Images/Speaker1.jpg,Images/Speaker2.jpg,Images/Speaker3.jpg,Images/Speaker4.jpg,Audio/Speaker1_Per/P1-20-Per.wav,Speaker1,گوینده ۱,0,0,0,13,0,78,78,19,576.5643598749957,,,,,,,,,,,,,,,,,,,,,,,,,,,,,,,,,,,,,,,,,,,,,576.5410288330022,576.5643598749957,576.5643598749957,576.5643598749957,576.5643598749957,576.5729306663347,576.5643598749957,576.5643598749957,577.8086718749983,Correct! صحیح است,1,1,1,1.236061042000074,None,577.8129392080009,577.8250082500017,579.8086522079975,579.8350200409986,,791687,001,2024-07-02_19h40.51.035,5-35,2024.1.4,None,2024-07-02 19h40.56.792568 +0900,
Images/Speaker1.jpg,Images/Speaker2.jpg,Images/Speaker3.jpg,Images/Speaker4.jpg,Audio/Speaker3_Per/P3-16-Per.wav,Speaker3,گوینده۳,0,0,0,13,0,79,79,55,579.8350200409986,,,,,,,,,,,,,,,,,,,,,,,,,,,,,,,,,,,,,,,,,,,,,579.8094600830009,579.8350200409986,579.8350200409986,579.8350200409986,579.8350200409986,579.8411086663332,579.8350200409986,579.8350200409986,582.4309765829967,Correct! صحیح است,1,1,3,2.5915930830014986,None,582.4347981659957,582.4461878329967,584.4338422910005,,,791687,001,2024-07-02_19h40.51.035,5-35,2024.1.4,None,2024-07-02 19h40.56.792568 +0900,
,,,,,,,,,,,,,,,,,,,,,,,,,,,,,,,,,,,,,,,,,,,,,,,,,,,,,,,,,,,,,,,,,,,,,,,,,,,,,,,584.4339365830019,,,,,,,,
