SpeakerImage1,SpeakerImage2,SpeakerImage3,SpeakerImage4,TrainingSound,EnglishCorrectAnswer,PersianCorrectAnswer,SpeakerPhoto1,SpeakerPhoto2,SpeakerPhoto3,SpeakerPhoto4,TestingSound,EnglishCorrectResponse,PersianCorrectResponse,repeated_TrainingLoopGroup1.thisRepN,repeated_TrainingLoopGroup1.thisTrialN,repeated_TrainingLoopGroup1.thisN,repeated_TrainingLoopGroup1.thisIndex,TrainingLoopGroup1.thisRepN,TrainingLoopGroup1.thisTrialN,TrainingLoopGroup1.thisN,TrainingLoopGroup1.thisIndex,testPhase1Loop.thisRepN,testPhase1Loop.thisTrialN,testPhase1Loop.thisN,testPhase1Loop.thisIndex,thisRow.t,notes,trial.started,trial.stopped,GroupSelection.started,GroupInstructions.started,key_resp.started,GroupSelection.stopped,key_resp.keys,key_resp.rt,key_resp.duration,HeadphoneCheck.started,text_13.started,mouse.started,checkbox.started,HeadphoneCheck.stopped,mouse.x,mouse.y,mouse.leftButton,mouse.midButton,mouse.rightButton,mouse.time,mouse.clicked_name,Headphone_Used,Introduction.started,text_2.started,text_2.stopped,image.started,sound_8.started,text_4.started,image.stopped,text_4.stopped,image_7.started,sound_10.started,text_5.started,image_7.stopped,text_5.stopped,image_8.started,sound_12.started,text_6.started,image_8.stopped,text_6.stopped,image_9.started,sound_14.started,text_7.started,image_9.stopped,text_7.stopped,Introduction.stopped,Instructions.started,InstructionText.started,InstructionText.stopped,Instructions.stopped,Countdown.started,number1.started,number1.stopped,number2.started,number2.stopped,number3.started,number3.stopped,start.started,start.stopped,silence.started,silence.stopped,Countdown.stopped,InitializeExperiment.started,InitializeExperiment.stopped,TrainingGroup1.started,image_1.started,image_2.started,image_3.started,image_4.started,sound1.started,Instruction.started,ResponseKey.started,SessionNumberText.started,TrainingGroup1.stopped,feedbackText,correct_responses_group1,total_trials_group1,ResponseKey.keys,ResponseKey.rt,ResponseKey.duration,FeedbackRoutine1.started,FeedbackText.started,FeedbackRoutine1.stopped,Break.started,Break.stopped,mouse1.x,mouse1.y,mouse1.leftButton,mouse1.midButton,mouse1.rightButton,mouse1.time,mouse1.clicked_name,Proceed_Break,FeedbackText.stopped,break_message.started,checkbox1.started,text_component.started,mouse1.started,CheckAccuracy1.started,accuracy_group1,proceed_to_test,CheckAccuracy1.stopped,WelcomeTest.started,text_12.started,text_12.stopped,WelcomeTest.stopped,TestPhase1.started,test1_image1.started,test1_image2.started,test1_image3.started,test1_image4.started,test1_sound.started,text_3.started,test1_response_keyboard.started,TestPhase1.stopped,test1_response_keyboard.keys,test1_response_keyboard.rt,test1_response_keyboard.duration,test1_response,test1_image_file1,test1_image_file2,test1_image_file3,test1_image_file4,test1_sound_file,english_correct_answer,persian_correct_answer,Finish.started,text_11.started,text_11.stopped,Finish.stopped,participant,session,date,expName,psychopyVersion,frameRate,expStart,
,,,,,,,,,,,,,,,,,,,,,,,,,,,,0.008606874998804415,0.008967874997324543,,,,,,,,,,,,,,,,,,,,,,,,,,,,,,,,,,,,,,,,,,,,,,,,,,,,,,,,,,,,,,,,,,,,,,,,,,,,,,,,,,,,,,,,,,,,,,,,,,,,,,,,,,,,,,,,,,,,,,,,,,,,,,,,,820119,001,2024-08-04_13h57.26.879,5-34 ready-monolingual persian speaker,2024.1.5,None,2024-08-04 13h57.31.993011 +0900,
,,,,,,,,,,,,,,,,,,,,,,,,,,,,,,0.008986749999166932,0.014532417000737041,0.014532417000737041,4.042126917000132,1,3.9862890829972457,None,,,,,,,,,,,,,,,,,,,,,,,,,,,,,,,,,,,,,,,,,,,,,,,,,,,,,,,,,,,,,,,,,,,,,,,,,,,,,,,,,,,,,,,,,,,,,,,,,,,,,,,,,,,,,,,,,,,,,,,,,,820119,001,2024-08-04_13h57.26.879,5-34 ready-monolingual persian speaker,2024.1.5,None,2024-08-04 13h57.31.993011 +0900,
,,,,,,,,,,,,,,,,,,,,,,,,,,,,,,,,,,,,,4.042156957999396,4.053081624999322,0.00019216700093238614,4.053081624999322,5.931518833000155,[0.0010183299389002036],[-0.17006109979633402],[1],[0],[0],[1.8885259169983328],['checkbox'],True,,,,,,,,,,,,,,,,,,,,,,,,,,,,,,,,,,,,,,,,,,,,,,,,,,,,,,,,,,,,,,,,,,,,,,,,,,,,,,,,,,,,,,,,,,,,,,,,,,,,,,,,,,,,,820119,001,2024-08-04_13h57.26.879,5-34 ready-monolingual persian speaker,2024.1.5,None,2024-08-04 13h57.31.993011 +0900,
,,,,,,,,,,,,,,,,,,,,,,,,,,,,,,,,,,,,,,,,,,,,,,,,,,5.931684499999392,5.9756503329990664,10.964962666999782,12.93034862499917,12.94048679166396,12.93034862499917,17.929828042000736,17.929828042000736,20.929952250000497,20.93336320866389,20.929952250000497,25.917707374999736,25.917707374999736,28.928249500000675,28.931121958667305,28.928249500000675,33.92448437499843,33.92448437499843,36.92789545800042,36.935581166664875,36.92789545800042,41.920112749998225,41.920112749998225,41.914780707997124,,,,,,,,,,,,,,,,,,,,,,,,,,,,,,,,,,,,,,,,,,,,,,,,,,,,,,,,,,,,,,,,,,,,,,,,,,,,,,,,,,,,,820119,001,2024-08-04_13h57.26.879,5-34 ready-monolingual persian speaker,2024.1.5,None,2024-08-04 13h57.31.993011 +0900,
,,,,,,,,,,,,,,,,,,,,,,,,,,,,,,,,,,,,,,,,,,,,,,,,,,,,,,,,,,,,,,,,,,,,,,,,,,41.91492174999803,41.92401450000034,51.91398299999855,51.912076999997225,,,,,,,,,,,,,,,,,,,,,,,,,,,,,,,,,,,,,,,,,,,,,,,,,,,,,,,,,,,,,,,,,,,,,,,,,,,,,,,,,820119,001,2024-08-04_13h57.26.879,5-34 ready-monolingual persian speaker,2024.1.5,None,2024-08-04 13h57.31.993011 +0900,
,,,,,,,,,,,,,,,,,,,,,,,,,,,,,,,,,,,,,,,,,,,,,,,,,,,,,,,,,,,,,,,,,,,,,,,,,,,,,,51.91209374999744,51.93411683299928,52.92215304199999,53.4278222920002,54.41833679199772,54.92809391699848,55.91360183299912,56.429191125000216,58.42066012500072,58.42066012500072,60.49865287499779,60.41287616699992,,,,,,,,,,,,,,,,,,,,,,,,,,,,,,,,,,,,,,,,,,,,,,,,,,,,,,,,,,,,,,,,,,,,,820119,001,2024-08-04_13h57.26.879,5-34 ready-monolingual persian speaker,2024.1.5,None,2024-08-04 13h57.31.993011 +0900,
,,,,,,,,,,,,,,,,,,,,,,,,,,,,,,,,,,,,,,,,,,,,,,,,,,,,,,,,,,,,,,,,,,,,,,,,,,,,,,,,,,,,,,,,,,60.41292904199872,60.41327287499735,,,,,,,,,,,,,,,,,,,,,,,,,,,,,,,,,,,,,,,,,,,,,,,,,,,,,,,,,,,,,,,,,,,820119,001,2024-08-04_13h57.26.879,5-34 ready-monolingual persian speaker,2024.1.5,None,2024-08-04 13h57.31.993011 +0900,
Images/Speaker1.jpg,Images/Speaker2.jpg,Images/Speaker3.jpg,Images/Speaker4.jpg,Audio/Speaker1_Per/P1-11-Per.wav,Speaker1,گوینده ۱,,,,,,,,0,0,0,54,0,0,0,10,,,,,60.49865287499779,,,,,,,,,,,,,,,,,,,,,,,,,,,,,,,,,,,,,,,,,,,,,,,,,,,,,,,,,,,,,,,,,,60.46863287499946,60.49865287499779,60.49865287499779,60.49865287499779,60.49865287499779,60.49533983333216,60.49865287499779,60.49865287499779,60.49865287499779,65.41198837499905,صحیح است,1,1,1,4.906429041999218,None,65.41238212499957,65.42798000000039,67.41825887499726,67.41829170799974,67.41872962499838,[],[],[],[],[],[],[],False,,,,,,,,,,,,,,,,,,,,,,,,,,,,,,,,,,,,,,820119,001,2024-08-04_13h57.26.879,5-34 ready-monolingual persian speaker,2024.1.5,None,2024-08-04 13h57.31.993011 +0900,
Images/Speaker1.jpg,Images/Speaker2.jpg,Images/Speaker3.jpg,Images/Speaker4.jpg,Audio/Speaker4_Per/P4-2-Per.wav,Speaker4,گوینده۴,,,,,,,,0,0,0,54,0,1,1,61,,,,,67.44874987499861,,,,,,,,,,,,,,,,,,,,,,,,,,,,,,,,,,,,,,,,,,,,,,,,,,,,,,,,,,,,,,,,,,67.42164137500004,67.44874987499861,67.44874987499861,67.44874987499861,67.44874987499861,67.45138608333266,67.44874987499861,67.44874987499861,67.44874987499861,69.84869941699799,صحیح است,2,2,4,2.398268332999578,None,69.8524995000007,69.86345116699886,71.84838912499981,71.84839883299719,71.8485211249972,[],[],[],[],[],[],[],False,71.87346008299937,,,,,,,,,,,,,,,,,,,,,,,,,,,,,,,,,,,,,820119,001,2024-08-04_13h57.26.879,5-34 ready-monolingual persian speaker,2024.1.5,None,2024-08-04 13h57.31.993011 +0900,
Images/Speaker1.jpg,Images/Speaker2.jpg,Images/Speaker3.jpg,Images/Speaker4.jpg,Audio/Speaker4_Per/P4-19-Per.wav,Speaker4,گوینده۴,,,,,,,,0,0,0,54,0,2,2,78,,,,,71.87346008299937,,,,,,,,,,,,,,,,,,,,,,,,,,,,,,,,,,,,,,,,,,,,,,,,,,,,,,,,,,,,,,,,,,71.84891129199968,71.87346008299937,71.87346008299937,71.87346008299937,71.87346008299937,71.88147825033278,71.87346008299937,71.87346008299937,71.87346008299937,73.23431154199716,صحیح است,3,3,4,1.3538740840012906,None,73.23808158300017,73.24902670799929,75.23331437500019,75.23332429199945,75.23343033299898,[],[],[],[],[],[],[],False,75.2599847499987,,,,,,,,,,,,,,,,,,,,,,,,,,,,,,,,,,,,,820119,001,2024-08-04_13h57.26.879,5-34 ready-monolingual persian speaker,2024.1.5,None,2024-08-04 13h57.31.993011 +0900,
Images/Speaker1.jpg,Images/Speaker2.jpg,Images/Speaker3.jpg,Images/Speaker4.jpg,Audio/Speaker2_Per/P2-16-Per.wav,Speaker2,گوینده۲,,,,,,,,0,0,0,54,0,3,3,35,,,,,75.2599847499987,,,,,,,,,,,,,,,,,,,,,,,,,,,,,,,,,,,,,,,,,,,,,,,,,,,,,,,,,,,,,,,,,,75.23388424999939,75.2599847499987,75.2599847499987,75.2599847499987,75.2599847499987,75.26642995833075,75.2599847499987,75.2599847499987,75.2599847499987,77.04522212499796,صحیح است,4,4,2,1.7833648750020075,None,77.04940575,77.06037012500019,79.04523599999811,79.04525779200048,79.04538641699764,[],[],[],[],[],[],[],False,79.07111766699745,,,,,,,,,,,,,,,,,,,,,,,,,,,,,,,,,,,,,820119,001,2024-08-04_13h57.26.879,5-34 ready-monolingual persian speaker,2024.1.5,None,2024-08-04 13h57.31.993011 +0900,
Images/Speaker1.jpg,Images/Speaker2.jpg,Images/Speaker3.jpg,Images/Speaker4.jpg,Audio/Speaker2_Per/P2-11-Per.wav,Speaker2,گوینده۲,,,,,,,,0,0,0,54,0,4,4,30,,,,,79.07111766699745,,,,,,,,,,,,,,,,,,,,,,,,,,,,,,,,,,,,,,,,,,,,,,,,,,,,,,,,,,,,,,,,,,79.04581320799844,79.07111766699745,79.07111766699745,79.07111766699745,79.07111766699745,79.07838054133074,79.07111766699745,79.07111766699745,79.07111766699745,82.1080252920001,صحیح است,5,5,2,3.035679207998328,None,82.11192783300066,82.12280712500069,84.10611745799906,84.10612729199784,84.1062369579995,[],[],[],[],[],[],[],False,84.13394512499872,,,,,,,,,,,,,,,,,,,,,,,,,,,,,,,,,,,,,820119,001,2024-08-04_13h57.26.879,5-34 ready-monolingual persian speaker,2024.1.5,None,2024-08-04 13h57.31.993011 +0900,
Images/Speaker1.jpg,Images/Speaker2.jpg,Images/Speaker3.jpg,Images/Speaker4.jpg,Audio/Speaker1_Per/P1-4-Per.wav,Speaker1,گوینده ۱,,,,,,,,0,0,0,54,0,5,5,3,,,,,84.13394512499872,,,,,,,,,,,,,,,,,,,,,,,,,,,,,,,,,,,,,,,,,,,,,,,,,,,,,,,,,,,,,,,,,,84.10665183299716,84.13394512499872,84.13394512499872,84.13394512499872,84.13394512499872,84.13923850033146,84.13394512499872,84.13394512499872,84.13394512499872,87.11777770799745,صحیح است,6,6,1,2.9760672919983335,None,87.1215894579982,87.13016583299759,89.12031420799758,89.1203397499994,89.12065758300014,[],[],[],[],[],[],[],False,89.14865129199825,,,,,,,,,,,,,,,,,,,,,,,,,,,,,,,,,,,,,820119,001,2024-08-04_13h57.26.879,5-34 ready-monolingual persian speaker,2024.1.5,None,2024-08-04 13h57.31.993011 +0900,
Images/Speaker1.jpg,Images/Speaker2.jpg,Images/Speaker3.jpg,Images/Speaker4.jpg,Audio/Speaker4_Per/P4-15-Per.wav,Speaker4,گوینده۴,,,,,,,,0,0,0,54,0,6,6,74,,,,,89.14865129199825,,,,,,,,,,,,,,,,,,,,,,,,,,,,,,,,,,,,,,,,,,,,,,,,,,,,,,,,,,,,,,,,,,89.12166708299992,89.14865129199825,89.14865129199825,89.14865129199825,89.14865129199825,89.15277316633049,89.14865129199825,89.14865129199825,89.14865129199825,91.44237304199851,صحیح است,7,7,4,2.2824255839987018,None,91.44665408299988,91.45499962499889,93.44141283299905,93.44146612499753,93.44208587499816,[],[],[],[],[],[],[],False,93.47065995799858,,,,,,,,,,,,,,,,,,,,,,,,,,,,,,,,,,,,,820119,001,2024-08-04_13h57.26.879,5-34 ready-monolingual persian speaker,2024.1.5,None,2024-08-04 13h57.31.993011 +0900,
Images/Speaker1.jpg,Images/Speaker2.jpg,Images/Speaker3.jpg,Images/Speaker4.jpg,Audio/Speaker2_Per/P2-6-Per.wav,Speaker2,گوینده۲,,,,,,,,0,0,0,54,0,7,7,25,,,,,93.47065995799858,,,,,,,,,,,,,,,,,,,,,,,,,,,,,,,,,,,,,,,,,,,,,,,,,,,,,,,,,,,,,,,,,,93.44360887499715,93.47065995799858,93.47065995799858,93.47065995799858,93.47065995799858,93.47381954133064,93.47065995799858,93.47065995799858,93.47065995799858,95.38911749999897,صحیح است,8,8,2,1.912677166001231,None,95.39288454199777,95.40363016699848,97.38879395799813,97.38880383300057,97.38890299999912,[],[],[],[],[],[],[],False,97.4138189999976,,,,,,,,,,,,,,,,,,,,,,,,,,,,,,,,,,,,,820119,001,2024-08-04_13h57.26.879,5-34 ready-monolingual persian speaker,2024.1.5,None,2024-08-04 13h57.31.993011 +0900,
Images/Speaker1.jpg,Images/Speaker2.jpg,Images/Speaker3.jpg,Images/Speaker4.jpg,Audio/Speaker1_Per/P1-3-Per.wav,Speaker1,گوینده ۱,,,,,,,,0,0,0,54,0,8,8,2,,,,,97.4138189999976,,,,,,,,,,,,,,,,,,,,,,,,,,,,,,,,,,,,,,,,,,,,,,,,,,,,,,,,,,,,,,,,,,97.38933633299894,97.4138189999976,97.4138189999976,97.4138189999976,97.4138189999976,97.42190645833082,97.4138189999976,97.4138189999976,97.4138189999976,98.55088270799752,صحیح است,9,9,1,1.1294847080025647,None,98.55511504199967,98.56521762500051,100.5580139579979,100.55805033299839,100.55847004200041,[],[],[],[],[],[],[],False,,,,,,,,,,,,,,,,,,,,,,,,,,,,,,,,,,,,,,820119,001,2024-08-04_13h57.26.879,5-34 ready-monolingual persian speaker,2024.1.5,None,2024-08-04 13h57.31.993011 +0900,
Images/Speaker1.jpg,Images/Speaker2.jpg,Images/Speaker3.jpg,Images/Speaker4.jpg,Audio/Speaker3_Per/P3-14-Per.wav,Speaker3,گوینده۳,,,,,,,,0,0,0,54,0,9,9,53,,,,,100.58827366699916,,,,,,,,,,,,,,,,,,,,,,,,,,,,,,,,,,,,,,,,,,,,,,,,,,,,,,,,,,,,,,,,,,100.55987779199859,100.58827366699916,100.58827366699916,100.58827366699916,100.58827366699916,100.59113037533146,100.58827366699916,100.58827366699916,100.58827366699916,102.55584233300033,نادرست! پاسخ صحیح گوینده۳ است,9,10,4,1.9595968749999884,None,102.55978420799875,102.57163045799825,104.55431729200063,104.55432737499723,104.55443266699876,[],[],[],[],[],[],[],False,104.57983083299769,,,,,,,,,,,,,,,,,,,,,,,,,,,,,,,,,,,,,820119,001,2024-08-04_13h57.26.879,5-34 ready-monolingual persian speaker,2024.1.5,None,2024-08-04 13h57.31.993011 +0900,
Images/Speaker1.jpg,Images/Speaker2.jpg,Images/Speaker3.jpg,Images/Speaker4.jpg,Audio/Speaker3_Per/P3-13-Per.wav,Speaker3,گوینده۳,,,,,,,,0,0,0,54,0,10,10,52,,,,,104.57983083299769,,,,,,,,,,,,,,,,,,,,,,,,,,,,,,,,,,,,,,,,,,,,,,,,,,,,,,,,,,,,,,,,,,104.55487374999939,104.57983083299769,104.57983083299769,104.57983083299769,104.57983083299769,104.58739666633167,104.57983083299769,104.57983083299769,104.57983083299769,106.12433416699787,نادرست! پاسخ صحیح گوینده۳ است,9,11,4,1.5367410839971853,None,106.12858787499863,106.14013037499899,108.12663620799867,108.12667233299726,108.1271416669988,[],[],[],[],[],[],[],False,108.1540325829992,,,,,,,,,,,,,,,,,,,,,,,,,,,,,,,,,,,,,820119,001,2024-08-04_13h57.26.879,5-34 ready-monolingual persian speaker,2024.1.5,None,2024-08-04 13h57.31.993011 +0900,
Images/Speaker1.jpg,Images/Speaker2.jpg,Images/Speaker3.jpg,Images/Speaker4.jpg,Audio/Speaker2_Per/P2-9-Per.wav,Speaker2,گوینده۲,,,,,,,,0,0,0,54,0,11,11,28,,,,,108.1540325829992,,,,,,,,,,,,,,,,,,,,,,,,,,,,,,,,,,,,,,,,,,,,,,,,,,,,,,,,,,,,,,,,,,108.12872666700059,108.1540325829992,108.1540325829992,108.1540325829992,108.1540325829992,108.15915404133241,108.1540325829992,108.1540325829992,108.1540325829992,109.6319099579996,صحیح است,10,12,2,1.4747512089998054,None,109.63582479199977,109.64679774999968,111.64308670799801,111.64311862499744,111.6434518749993,[],[],[],[],[],[],[],False,,,,,,,,,,,,,,,,,,,,,,,,,,,,,,,,,,,,,,820119,001,2024-08-04_13h57.26.879,5-34 ready-monolingual persian speaker,2024.1.5,None,2024-08-04 13h57.31.993011 +0900,
Images/Speaker1.jpg,Images/Speaker2.jpg,Images/Speaker3.jpg,Images/Speaker4.jpg,Audio/Speaker2_Per/P2-13-Per.wav,Speaker2,گوینده۲,,,,,,,,0,0,0,54,0,12,12,32,,,,,111.67272762499852,,,,,,,,,,,,,,,,,,,,,,,,,,,,,,,,,,,,,,,,,,,,,,,,,,,,,,,,,,,,,,,,,,111.64480837500014,111.67272762499852,111.67272762499852,111.67272762499852,111.67272762499852,111.67626770833206,111.67272762499852,111.67272762499852,111.67272762499852,113.05363299999954,صحیح است,11,13,2,1.3794785840000259,None,113.05737450000015,113.06802191699899,115.06371041699822,115.06373374999748,115.06408016699788,[],[],[],[],[],[],[],False,,,,,,,,,,,,,,,,,,,,,,,,,,,,,,,,,,,,,,820119,001,2024-08-04_13h57.26.879,5-34 ready-monolingual persian speaker,2024.1.5,None,2024-08-04 13h57.31.993011 +0900,
Images/Speaker1.jpg,Images/Speaker2.jpg,Images/Speaker3.jpg,Images/Speaker4.jpg,Audio/Speaker2_Per/P2-15-Per.wav,Speaker2,گوینده۲,,,,,,,,0,0,0,54,0,13,13,34,,,,,115.09176220799782,,,,,,,,,,,,,,,,,,,,,,,,,,,,,,,,,,,,,,,,,,,,,,,,,,,,,,,,,,,,,,,,,,115.06560370800071,115.09176220799782,115.09176220799782,115.09176220799782,115.09176220799782,115.09688262533066,115.09176220799782,115.09176220799782,115.09176220799782,116.24896779199844,صحیح است,12,14,2,1.1548410830000648,None,116.25298587499856,116.26361229199756,118.24949929200011,118.24950899999749,118.24961704199814,[],[],[],[],[],[],[],False,118.27478499999779,,,,,,,,,,,,,,,,,,,,,,,,,,,,,,,,,,,,,820119,001,2024-08-04_13h57.26.879,5-34 ready-monolingual persian speaker,2024.1.5,None,2024-08-04 13h57.31.993011 +0900,
Images/Speaker1.jpg,Images/Speaker2.jpg,Images/Speaker3.jpg,Images/Speaker4.jpg,Audio/Speaker4_Per/P4-16-Per.wav,Speaker4,گوینده۴,,,,,,,,0,0,0,54,0,14,14,75,,,,,118.27478499999779,,,,,,,,,,,,,,,,,,,,,,,,,,,,,,,,,,,,,,,,,,,,,,,,,,,,,,,,,,,,,,,,,,118.25006145799853,118.27478499999779,118.27478499999779,118.27478499999779,118.27478499999779,118.2826127913327,118.27478499999779,118.27478499999779,118.27478499999779,119.78426704199956,صحیح است,13,15,4,1.504895124999166,None,119.78806133299804,119.79918016699958,121.79454229199837,121.79457991699746,121.79492087499966,[],[],[],[],[],[],[],False,,,,,,,,,,,,,,,,,,,,,,,,,,,,,,,,,,,,,,820119,001,2024-08-04_13h57.26.879,5-34 ready-monolingual persian speaker,2024.1.5,None,2024-08-04 13h57.31.993011 +0900,
Images/Speaker1.jpg,Images/Speaker2.jpg,Images/Speaker3.jpg,Images/Speaker4.jpg,Audio/Speaker2_Per/P2-1-Per.wav,Speaker2,گوینده۲,,,,,,,,0,0,0,54,0,15,15,20,,,,,121.82463216699762,,,,,,,,,,,,,,,,,,,,,,,,,,,,,,,,,,,,,,,,,,,,,,,,,,,,,,,,,,,,,,,,,,121.79622649999874,121.82463216699762,121.82463216699762,121.82463216699762,121.82463216699762,121.8277120003336,121.82463216699762,121.82463216699762,121.82463216699762,124.09979229199962,صحیح است,14,16,2,2.265430917002959,None,124.10371049999958,124.11231158299779,126.09722512499866,126.09723495800063,126.09734095800013,[],[],[],[],[],[],[],False,126.12199608299852,,,,,,,,,,,,,,,,,,,,,,,,,,,,,,,,,,,,,820119,001,2024-08-04_13h57.26.879,5-34 ready-monolingual persian speaker,2024.1.5,None,2024-08-04 13h57.31.993011 +0900,
Images/Speaker1.jpg,Images/Speaker2.jpg,Images/Speaker3.jpg,Images/Speaker4.jpg,Audio/Speaker3_Per/P3-20-Per.wav,Speaker3,گوینده۳,,,,,,,,0,0,0,54,0,16,16,59,,,,,126.12199608299852,,,,,,,,,,,,,,,,,,,,,,,,,,,,,,,,,,,,,,,,,,,,,,,,,,,,,,,,,,,,,,,,,,126.09776158299792,126.12199608299852,126.12199608299852,126.12199608299852,126.12199608299852,126.13037020833193,126.12199608299852,126.12199608299852,126.12199608299852,128.2774920419979,صحیح است,15,17,3,2.1505635409994284,None,128.28188941699773,128.2927055,130.28877420799836,130.2888055000003,130.2891480420003,[],[],[],[],[],[],[],False,,,,,,,,,,,,,,,,,,,,,,,,,,,,,,,,,,,,,,820119,001,2024-08-04_13h57.26.879,5-34 ready-monolingual persian speaker,2024.1.5,None,2024-08-04 13h57.31.993011 +0900,
Images/Speaker1.jpg,Images/Speaker2.jpg,Images/Speaker3.jpg,Images/Speaker4.jpg,Audio/Speaker3_Per/P3-6-Per.wav,Speaker3,گوینده۳,,,,,,,,0,0,0,54,0,17,17,45,,,,,130.31864587499877,,,,,,,,,,,,,,,,,,,,,,,,,,,,,,,,,,,,,,,,,,,,,,,,,,,,,,,,,,,,,,,,,,130.29070383299768,130.31864587499877,130.31864587499877,130.31864587499877,130.31864587499877,130.32192854133297,130.31864587499877,130.31864587499877,130.31864587499877,135.33313158300007,صحیح است,16,18,3,5.004119708999497,None,135.33337112499794,135.34192316699773,137.33390004199828,137.33392800000001,137.33428162500059,[],[],[],[],[],[],[],False,,,,,,,,,,,,,,,,,,,,,,,,,,,,,,,,,,,,,,820119,001,2024-08-04_13h57.26.879,5-34 ready-monolingual persian speaker,2024.1.5,None,2024-08-04 13h57.31.993011 +0900,
Images/Speaker1.jpg,Images/Speaker2.jpg,Images/Speaker3.jpg,Images/Speaker4.jpg,Audio/Speaker3_Per/P3-1-Per.wav,Speaker3,گوینده۳,,,,,,,,0,0,0,54,0,18,18,40,,,,,137.3615001670005,,,,,,,,,,,,,,,,,,,,,,,,,,,,,,,,,,,,,,,,,,,,,,,,,,,,,,,,,,,,,,,,,,137.3356657919976,137.3615001670005,137.3615001670005,137.3615001670005,137.3615001670005,137.3670767913323,137.3615001670005,137.3615001670005,137.3615001670005,138.96234704199742,صحیح است,17,19,3,1.598063124998589,None,138.96625816699816,138.97714629199982,140.96150124999986,140.96151120799914,140.96161570799813,[],[],[],[],[],[],[],False,140.98734412499834,,,,,,,,,,,,,,,,,,,,,,,,,,,,,,,,,,,,,820119,001,2024-08-04_13h57.26.879,5-34 ready-monolingual persian speaker,2024.1.5,None,2024-08-04 13h57.31.993011 +0900,
Images/Speaker1.jpg,Images/Speaker2.jpg,Images/Speaker3.jpg,Images/Speaker4.jpg,Audio/Speaker4_Per/P4-3-Per.wav,Speaker4,گوینده۴,,,,,,,,0,0,0,54,0,19,19,62,,,,,140.98734412499834,,,,,,,,,,,,,,,,,,,,,,,,,,,,,,,,,,,,,,,,,,,,,,,,,,,,,,,,,,,,,,,,,,140.96204379199844,140.98734412499834,140.98734412499834,140.98734412499834,140.98734412499834,140.99465779133294,140.98734412499834,140.98734412499834,140.98734412499834,142.48522500000036,صحیح است,18,20,4,1.4877867909999622,None,142.48909866699978,142.49758287499935,144.48354149999795,144.4835512919999,144.48365616699812,[],[],[],[],[],[],[],False,144.50695170799736,,,,,,,,,,,,,,,,,,,,,,,,,,,,,,,,,,,,,820119,001,2024-08-04_13h57.26.879,5-34 ready-monolingual persian speaker,2024.1.5,None,2024-08-04 13h57.31.993011 +0900,
Images/Speaker1.jpg,Images/Speaker2.jpg,Images/Speaker3.jpg,Images/Speaker4.jpg,Audio/Speaker4_Per/P4-17-Per.wav,Speaker4,گوینده۴,,,,,,,,0,0,0,54,0,20,20,76,,,,,144.50695170799736,,,,,,,,,,,,,,,,,,,,,,,,,,,,,,,,,,,,,,,,,,,,,,,,,,,,,,,,,,,,,,,,,,144.4840702500005,144.50695170799736,144.50695170799736,144.50695170799736,144.50695170799736,144.51664158333057,144.50695170799736,144.50695170799736,144.50695170799736,145.86318670800028,صحیح است,19,21,4,1.3540284580012667,None,145.86741400000028,145.87841883299916,147.86678954200033,147.86681383299947,147.8671172079994,[],[],[],[],[],[],[],False,147.89341183299985,,,,,,,,,,,,,,,,,,,,,,,,,,,,,,,,,,,,,820119,001,2024-08-04_13h57.26.879,5-34 ready-monolingual persian speaker,2024.1.5,None,2024-08-04 13h57.31.993011 +0900,
Images/Speaker1.jpg,Images/Speaker2.jpg,Images/Speaker3.jpg,Images/Speaker4.jpg,Audio/Speaker1_Per/P1-16-Per.wav,Speaker1,گوینده ۱,,,,,,,,0,0,0,54,0,21,21,15,,,,,147.89341183299985,,,,,,,,,,,,,,,,,,,,,,,,,,,,,,,,,,,,,,,,,,,,,,,,,,,,,,,,,,,,,,,,,,147.86823529200046,147.89341183299985,147.89341183299985,147.89341183299985,147.89341183299985,147.89919566633085,147.89341183299985,147.89341183299985,147.89341183299985,149.3279885419979,صحیح است,20,22,1,1.4259055830007128,None,149.3319442079992,149.34004849999837,151.33292354199875,151.3329392079977,151.33307916699778,[],[],[],[],[],[],[],False,,,,,,,,,,,,,,,,,,,,,,,,,,,,,,,,,,,,,,820119,001,2024-08-04_13h57.26.879,5-34 ready-monolingual persian speaker,2024.1.5,None,2024-08-04 13h57.31.993011 +0900,
Images/Speaker1.jpg,Images/Speaker2.jpg,Images/Speaker3.jpg,Images/Speaker4.jpg,Audio/Speaker1_Per/P1-1-Per.wav,Speaker1,گوینده ۱,,,,,,,,0,0,0,54,0,22,22,0,,,,,151.35783154199817,,,,,,,,,,,,,,,,,,,,,,,,,,,,,,,,,,,,,,,,,,,,,,,,,,,,,,,,,,,,,,,,,,151.33351358299842,151.35783154199817,151.35783154199817,151.35783154199817,151.35783154199817,151.36621962533223,151.35783154199817,151.35783154199817,151.35783154199817,152.78956308299894,صحیح است,21,23,1,1.4299208750016987,None,152.79387479199795,152.804793583,154.78792554199754,154.78793424999822,154.78803379199962,[],[],[],[],[],[],[],False,154.81341474999863,,,,,,,,,,,,,,,,,,,,,,,,,,,,,,,,,,,,,820119,001,2024-08-04_13h57.26.879,5-34 ready-monolingual persian speaker,2024.1.5,None,2024-08-04 13h57.31.993011 +0900,
Images/Speaker1.jpg,Images/Speaker2.jpg,Images/Speaker3.jpg,Images/Speaker4.jpg,Audio/Speaker2_Per/P2-19-Per.wav,Speaker2,گوینده۲,,,,,,,,0,0,0,54,0,23,23,38,,,,,154.81341474999863,,,,,,,,,,,,,,,,,,,,,,,,,,,,,,,,,,,,,,,,,,,,,,,,,,,,,,,,,,,,,,,,,,154.7884305419975,154.81341474999863,154.81341474999863,154.81341474999863,154.81341474999863,154.82099991633055,154.81341474999863,154.81341474999863,154.81341474999863,156.29019145799975,صحیح است,22,24,2,1.4687444580013107,None,156.29416062499877,156.30523291699865,158.2881443749975,158.28815312499864,158.2882639999989,[],[],[],[],[],[],[],False,158.31343908299823,,,,,,,,,,,,,,,,,,,,,,,,,,,,,,,,,,,,,820119,001,2024-08-04_13h57.26.879,5-34 ready-monolingual persian speaker,2024.1.5,None,2024-08-04 13h57.31.993011 +0900,
Images/Speaker1.jpg,Images/Speaker2.jpg,Images/Speaker3.jpg,Images/Speaker4.jpg,Audio/Speaker3_Per/P3-10-Per.wav,Speaker3,گوینده۳,,,,,,,,0,0,0,54,0,24,24,49,,,,,158.31343908299823,,,,,,,,,,,,,,,,,,,,,,,,,,,,,,,,,,,,,,,,,,,,,,,,,,,,,,,,,,,,,,,,,,158.28867354199974,158.31343908299823,158.31343908299823,158.31343908299823,158.31343908299823,158.32125779133327,158.31343908299823,158.31343908299823,158.31343908299823,160.09896624999965,صحیح است,23,25,3,1.783100207998359,None,160.10326408299807,160.11406095799975,162.10651512500044,162.1065259169991,162.1066308749978,[],[],[],[],[],[],[],False,,,,,,,,,,,,,,,,,,,,,,,,,,,,,,,,,,,,,,820119,001,2024-08-04_13h57.26.879,5-34 ready-monolingual persian speaker,2024.1.5,None,2024-08-04 13h57.31.993011 +0900,
Images/Speaker1.jpg,Images/Speaker2.jpg,Images/Speaker3.jpg,Images/Speaker4.jpg,Audio/Speaker2_Per/P2-5-Per.wav,Speaker2,گوینده۲,,,,,,,,0,0,0,54,0,25,25,24,,,,,162.1319849169995,,,,,,,,,,,,,,,,,,,,,,,,,,,,,,,,,,,,,,,,,,,,,,,,,,,,,,,,,,,,,,,,,,162.10709270799998,162.1319849169995,162.1319849169995,162.1319849169995,162.1319849169995,162.13981320833096,162.1319849169995,162.1319849169995,162.1319849169995,163.66298099999767,صحیح است,24,26,2,1.526837459001399,None,163.66708624999956,163.67915470799926,165.6661466250007,165.66615883299892,165.6662816249991,[],[],[],[],[],[],[],False,165.69069370799843,,,,,,,,,,,,,,,,,,,,,,,,,,,,,,,,,,,,,820119,001,2024-08-04_13h57.26.879,5-34 ready-monolingual persian speaker,2024.1.5,None,2024-08-04 13h57.31.993011 +0900,
Images/Speaker1.jpg,Images/Speaker2.jpg,Images/Speaker3.jpg,Images/Speaker4.jpg,Audio/Speaker2_Per/P2-18-Per.wav,Speaker2,گوینده۲,,,,,,,,0,0,0,54,0,26,26,37,,,,,165.69069370799843,,,,,,,,,,,,,,,,,,,,,,,,,,,,,,,,,,,,,,,,,,,,,,,,,,,,,,,,,,,,,,,,,,165.6667065420006,165.69069370799843,165.69069370799843,165.69069370799843,165.69069370799843,165.69927241633246,165.69069370799843,165.69069370799843,165.69069370799843,167.07166395799868,صحیح است,25,27,2,1.379202083000564,None,167.07543370799976,167.08610916699763,169.08401666699865,169.08404608300043,169.08438008300072,[],[],[],[],[],[],[],False,,,,,,,,,,,,,,,,,,,,,,,,,,,,,,,,,,,,,,820119,001,2024-08-04_13h57.26.879,5-34 ready-monolingual persian speaker,2024.1.5,None,2024-08-04 13h57.31.993011 +0900,
Images/Speaker1.jpg,Images/Speaker2.jpg,Images/Speaker3.jpg,Images/Speaker4.jpg,Audio/Speaker1_Per/P1-10-Per.wav,Speaker1,گوینده ۱,,,,,,,,0,0,0,54,0,27,27,9,,,,,169.1120602919982,,,,,,,,,,,,,,,,,,,,,,,,,,,,,,,,,,,,,,,,,,,,,,,,,,,,,,,,,,,,,,,,,,169.08569533300033,169.1120602919982,169.1120602919982,169.1120602919982,169.1120602919982,169.1171975833318,169.1120602919982,169.1120602919982,169.1120602919982,170.49520179200044,صحیح است,26,28,1,1.3810892080000485,None,170.49921920799898,170.5098751250007,172.5026472919999,172.50265645800027,172.50276995799868,[],[],[],[],[],[],[],False,,,,,,,,,,,,,,,,,,,,,,,,,,,,,,,,,,,,,,820119,001,2024-08-04_13h57.26.879,5-34 ready-monolingual persian speaker,2024.1.5,None,2024-08-04 13h57.31.993011 +0900,
Images/Speaker1.jpg,Images/Speaker2.jpg,Images/Speaker3.jpg,Images/Speaker4.jpg,Audio/Speaker1_Per/P1-4-Per.wav,Speaker1,گوینده ۱,,,,,,,,0,0,0,54,0,28,28,13,,,,,172.5252894999976,,,,,,,,,,,,,,,,,,,,,,,,,,,,,,,,,,,,,,,,,,,,,,,,,,,,,,,,,,,,,,,,,,172.50317937499858,172.5252894999976,172.5252894999976,172.5252894999976,172.5252894999976,172.51927574966638,172.5252894999976,172.5252894999976,172.5252894999976,174.0160184999986,صحیح است,27,29,1,1.4824890839990985,None,174.0211854579975,174.03286858299907,176.01954275000026,176.01958620799996,176.02010820799842,[],[],[],[],[],[],[],False,176.04989149999892,,,,,,,,,,,,,,,,,,,,,,,,,,,,,,,,,,,,,820119,001,2024-08-04_13h57.26.879,5-34 ready-monolingual persian speaker,2024.1.5,None,2024-08-04 13h57.31.993011 +0900,
Images/Speaker1.jpg,Images/Speaker2.jpg,Images/Speaker3.jpg,Images/Speaker4.jpg,Audio/Speaker1_Per/P1-19-Per.wav,Speaker1,گوینده ۱,,,,,,,,0,0,0,54,0,29,29,18,,,,,176.04989149999892,,,,,,,,,,,,,,,,,,,,,,,,,,,,,,,,,,,,,,,,,,,,,,,,,,,,,,,,,,,,,,,,,,176.02123641700018,176.04989149999892,176.04989149999892,176.04989149999892,176.04989149999892,176.05127450033302,176.04989149999892,176.04989149999892,176.04989149999892,177.25214904200038,صحیح است,28,30,1,1.2004580419998092,None,177.25601362499947,177.2669637919971,179.25010504199963,179.25011445799828,179.25022104199888,[],[],[],[],[],[],[],False,179.27515516699714,,,,,,,,,,,,,,,,,,,,,,,,,,,,,,,,,,,,,820119,001,2024-08-04_13h57.26.879,5-34 ready-monolingual persian speaker,2024.1.5,None,2024-08-04 13h57.31.993011 +0900,
Images/Speaker1.jpg,Images/Speaker2.jpg,Images/Speaker3.jpg,Images/Speaker4.jpg,Audio/Speaker3_Per/P3-7-Per.wav,Speaker3,گوینده۳,,,,,,,,0,0,0,54,0,30,30,46,,,,,179.27515516699714,,,,,,,,,,,,,,,,,,,,,,,,,,,,,,,,,,,,,,,,,,,,,,,,,,,,,,,,,,,,,,,,,,179.25066020799932,179.27515516699714,179.27515516699714,179.27515516699714,179.27515516699714,179.28318645833184,179.27515516699714,179.27515516699714,179.27515516699714,180.61554554199756,صحیح است,29,31,3,1.3385687920017517,None,180.61955929199758,180.63045050000073,182.61552012500033,182.61553012500008,182.61562904200036,[],[],[],[],[],[],[],False,182.64186191699991,,,,,,,,,,,,,,,,,,,,,,,,,,,,,,,,,,,,,820119,001,2024-08-04_13h57.26.879,5-34 ready-monolingual persian speaker,2024.1.5,None,2024-08-04 13h57.31.993011 +0900,
Images/Speaker1.jpg,Images/Speaker2.jpg,Images/Speaker3.jpg,Images/Speaker4.jpg,Audio/Speaker4_Per/P4-14-Per.wav,Speaker4,گوینده۴,,,,,,,,0,0,0,54,0,31,31,73,,,,,182.64186191699991,,,,,,,,,,,,,,,,,,,,,,,,,,,,,,,,,,,,,,,,,,,,,,,,,,,,,,,,,,,,,,,,,,182.61610012500023,182.64186191699991,182.64186191699991,182.64186191699991,182.64186191699991,182.64861991633057,182.64186191699991,182.64186191699991,182.64186191699991,185.0449325419977,صحیح است,30,32,4,2.390564582998195,None,185.0489917499981,185.0577455829989,187.04793574999712,187.04794554199907,187.0480578329989,[],[],[],[],[],[],[],False,187.07260654199854,,,,,,,,,,,,,,,,,,,,,,,,,,,,,,,,,,,,,820119,001,2024-08-04_13h57.26.879,5-34 ready-monolingual persian speaker,2024.1.5,None,2024-08-04 13h57.31.993011 +0900,
Images/Speaker1.jpg,Images/Speaker2.jpg,Images/Speaker3.jpg,Images/Speaker4.jpg,Audio/Speaker4_Per/P4-12-Per.wav,Speaker4,گوینده۴,,,,,,,,0,0,0,54,0,32,32,71,,,,,187.07260654199854,,,,,,,,,,,,,,,,,,,,,,,,,,,,,,,,,,,,,,,,,,,,,,,,,,,,,,,,,,,,,,,,,,187.04850366699975,187.07260654199854,187.07260654199854,187.07260654199854,187.07260654199854,187.08106958333207,187.07260654199854,187.07260654199854,187.07260654199854,188.3323648330006,صحیح است,31,33,4,1.2542243330026395,None,188.33649129200057,188.34733508299905,190.3310752920006,190.33108529200035,190.33119816699764,[],[],[],[],[],[],[],False,190.35802908299956,,,,,,,,,,,,,,,,,,,,,,,,,,,,,,,,,,,,,820119,001,2024-08-04_13h57.26.879,5-34 ready-monolingual persian speaker,2024.1.5,None,2024-08-04 13h57.31.993011 +0900,
Images/Speaker1.jpg,Images/Speaker2.jpg,Images/Speaker3.jpg,Images/Speaker4.jpg,Audio/Speaker3_Per/P3-11-Per.wav,Speaker3,گوینده۳,,,,,,,,0,0,0,54,0,33,33,50,,,,,190.35802908299956,,,,,,,,,,,,,,,,,,,,,,,,,,,,,,,,,,,,,,,,,,,,,,,,,,,,,,,,,,,,,,,,,,190.33164449999822,190.35802908299956,190.35802908299956,190.35802908299956,190.35802908299956,190.36414645833116,190.35802908299956,190.35802908299956,190.35802908299956,192.02856462499767,صحیح است,32,34,3,1.6587024159998691,None,192.03244804199858,192.04394262499773,194.03109525000036,194.03112108300047,194.03159925,[],[],[],[],[],[],[],False,194.05965612499858,,,,,,,,,,,,,,,,,,,,,,,,,,,,,,,,,,,,,820119,001,2024-08-04_13h57.26.879,5-34 ready-monolingual persian speaker,2024.1.5,None,2024-08-04 13h57.31.993011 +0900,
Images/Speaker1.jpg,Images/Speaker2.jpg,Images/Speaker3.jpg,Images/Speaker4.jpg,Audio/Speaker1_Per/P1-17-Per.wav,Speaker1,گوینده ۱,,,,,,,,0,0,0,54,0,34,34,16,,,,,194.05965612499858,,,,,,,,,,,,,,,,,,,,,,,,,,,,,,,,,,,,,,,,,,,,,,,,,,,,,,,,,,,,,,,,,,194.0332266669975,194.05965612499858,194.05965612499858,194.05965612499858,194.05965612499858,194.06364641633314,194.05965612499858,194.05965612499858,194.05965612499858,195.30730104199756,صحیح است,33,35,1,1.239680041999236,None,195.31120374999955,195.31937887499953,197.3041897080002,197.30419908299882,197.30430391700065,[],[],[],[],[],[],[],False,197.32982487499976,,,,,,,,,,,,,,,,,,,,,,,,,,,,,,,,,,,,,820119,001,2024-08-04_13h57.26.879,5-34 ready-monolingual persian speaker,2024.1.5,None,2024-08-04 13h57.31.993011 +0900,
Images/Speaker1.jpg,Images/Speaker2.jpg,Images/Speaker3.jpg,Images/Speaker4.jpg,Audio/Speaker4_Per/P4-4-Per.wav,Speaker4,گوینده۴,,,,,,,,0,0,0,54,0,35,35,63,,,,,197.32982487499976,,,,,,,,,,,,,,,,,,,,,,,,,,,,,,,,,,,,,,,,,,,,,,,,,,,,,,,,,,,,,,,,,,197.30476658299813,197.32982487499976,197.32982487499976,197.32982487499976,197.32982487499976,197.33727491633232,197.32982487499976,197.32982487499976,197.32982487499976,198.868712083,صحیح است,34,36,4,1.527811166997708,None,198.87281016699853,198.88355541700003,200.8787916250003,200.8788265000003,200.87922462499773,[],[],[],[],[],[],[],False,,,,,,,,,,,,,,,,,,,,,,,,,,,,,,,,,,,,,,820119,001,2024-08-04_13h57.26.879,5-34 ready-monolingual persian speaker,2024.1.5,None,2024-08-04 13h57.31.993011 +0900,
Images/Speaker1.jpg,Images/Speaker2.jpg,Images/Speaker3.jpg,Images/Speaker4.jpg,Audio/Speaker1_Per/P1-15-Per.wav,Speaker1,گوینده ۱,,,,,,,,0,0,0,54,0,36,36,14,,,,,200.90635666699745,,,,,,,,,,,,,,,,,,,,,,,,,,,,,,,,,,,,,,,,,,,,,,,,,,,,,,,,,,,,,,,,,,200.8804257499978,200.90635666699745,200.90635666699745,200.90635666699745,200.90635666699745,200.91192566633305,200.90635666699745,200.90635666699745,200.90635666699745,202.21847791699838,صحیح است,35,37,1,1.3108845000024303,None,202.2224407499998,202.23298341699774,204.22109779200036,204.22113249999893,204.2214385419975,[],[],[],[],[],[],[],False,204.24777149999863,,,,,,,,,,,,,,,,,,,,,,,,,,,,,,,,,,,,,820119,001,2024-08-04_13h57.26.879,5-34 ready-monolingual persian speaker,2024.1.5,None,2024-08-04 13h57.31.993011 +0900,
Images/Speaker1.jpg,Images/Speaker2.jpg,Images/Speaker3.jpg,Images/Speaker4.jpg,Audio/Speaker4_Per/P4-18-Per.wav,Speaker4,گوینده۴,,,,,,,,0,0,0,54,0,37,37,77,,,,,204.24777149999863,,,,,,,,,,,,,,,,,,,,,,,,,,,,,,,,,,,,,,,,,,,,,,,,,,,,,,,,,,,,,,,,,,204.22274608299995,204.24777149999863,204.24777149999863,204.24777149999863,204.24777149999863,204.25358220833056,204.24777149999863,204.24777149999863,204.24777149999863,205.82849562499905,صحیح است,36,38,4,1.577458417003072,None,205.83252858299966,205.84341933299947,207.8277113749973,207.82773237499714,207.82811970799958,[],[],[],[],[],[],[],False,207.85475137499816,,,,,,,,,,,,,,,,,,,,,,,,,,,,,,,,,,,,,820119,001,2024-08-04_13h57.26.879,5-34 ready-monolingual persian speaker,2024.1.5,None,2024-08-04 13h57.31.993011 +0900,
Images/Speaker1.jpg,Images/Speaker2.jpg,Images/Speaker3.jpg,Images/Speaker4.jpg,Audio/Speaker3_Per/P3-19-Per.wav,Speaker3,گوینده۳,,,,,,,,0,0,0,54,0,38,38,58,,,,,207.85475137499816,,,,,,,,,,,,,,,,,,,,,,,,,,,,,,,,,,,,,,,,,,,,,,,,,,,,,,,,,,,,,,,,,,207.82934012499754,207.85475137499816,207.85475137499816,207.85475137499816,207.85475137499816,207.86031958333166,207.85475137499816,207.85475137499816,207.85475137499816,209.36035887499747,صحیح است,37,39,3,1.5043078340022475,None,209.36474658299994,209.37556887499886,211.36938366699906,211.36939304199768,211.36950674999753,[],[],[],[],[],[],[],False,,,,,,,,,,,,,,,,,,,,,,,,,,,,,,,,,,,,,,820119,001,2024-08-04_13h57.26.879,5-34 ready-monolingual persian speaker,2024.1.5,None,2024-08-04 13h57.31.993011 +0900,
Images/Speaker1.jpg,Images/Speaker2.jpg,Images/Speaker3.jpg,Images/Speaker4.jpg,Audio/Speaker3_Per/P3-5-Per.wav,Speaker3,گوینده۳,,,,,,,,0,0,0,54,0,39,39,44,,,,,211.3948301249984,,,,,,,,,,,,,,,,,,,,,,,,,,,,,,,,,,,,,,,,,,,,,,,,,,,,,,,,,,,,,,,,,,211.36993829199855,211.3948301249984,211.3948301249984,211.3948301249984,211.3948301249984,211.40267975033254,211.3948301249984,211.3948301249984,211.3948301249984,213.73726483299833,نادرست! پاسخ صحیح گوینده۳ است,37,40,4,2.3369370000000345,None,213.74230083300063,213.75451812499887,215.73914058299852,215.73914966699886,290.91797329199835,[0.0010183299389002036],[-0.17006109979633402],[1],[0],[0],[75.16084595799839],['checkbox'],True,215.75320570799886,215.75320570799886,215.75320570799886,215.75320570799886,0.010969167000439484,,,,,,,,,,,,,,,,,,,,,,,,,,,,,,,,,820119,001,2024-08-04_13h57.26.879,5-34 ready-monolingual persian speaker,2024.1.5,None,2024-08-04 13h57.31.993011 +0900,
Images/Speaker1.jpg,Images/Speaker2.jpg,Images/Speaker3.jpg,Images/Speaker4.jpg,Audio/Speaker2_Per/P2-17-Per.wav,Speaker2,گوینده۲,,,,,,,,0,0,0,54,0,40,40,36,,,,,290.9403696249974,,,,,,,,,,,,,,,,,,,,,,,,,,,,,,,,,,,,,,,,,,,,,,,,,,,,,,,,,,,,,,,,,,290.91837891699834,290.9403696249974,290.9403696249974,290.9403696249974,290.9403696249974,290.9470512503326,290.9403696249974,290.9403696249974,290.9403696249974,293.6943255829974,صحیح است,38,41,2,2.747154833999957,None,293.69456891699883,293.70527512499757,295.6889483329978,295.68895829199755,295.6890824999973,[],[],[],[],[],[],[],False,295.7162398750006,,,,,,,,,,,,,,,,,,,,,,,,,,,,,,,,,,,,,820119,001,2024-08-04_13h57.26.879,5-34 ready-monolingual persian speaker,2024.1.5,None,2024-08-04 13h57.31.993011 +0900,
Images/Speaker1.jpg,Images/Speaker2.jpg,Images/Speaker3.jpg,Images/Speaker4.jpg,Audio/Speaker2_Per/P2-14-Per.wav,Speaker2,گوینده۲,,,,,,,,0,0,0,54,0,41,41,33,,,,,295.7162398750006,,,,,,,,,,,,,,,,,,,,,,,,,,,,,,,,,,,,,,,,,,,,,,,,,,,,,,,,,,,,,,,,,,295.6894884579997,295.7162398750006,295.7162398750006,295.7162398750006,295.7162398750006,295.7220718333306,295.7162398750006,295.7162398750006,295.7162398750006,297.23159137499897,صحیح است,39,42,2,1.514370290999068,None,297.23549258300045,297.2460148329992,299.2394099999983,299.2394537500004,299.2398023749993,[],[],[],[],[],[],[],False,,,,,,,,,,,,,,,,,,,,,,,,,,,,,,,,,,,,,,820119,001,2024-08-04_13h57.26.879,5-34 ready-monolingual persian speaker,2024.1.5,None,2024-08-04 13h57.31.993011 +0900,
Images/Speaker1.jpg,Images/Speaker2.jpg,Images/Speaker3.jpg,Images/Speaker4.jpg,Audio/Speaker2_Per/P2-12-Per.wav,Speaker2,گوینده۲,,,,,,,,0,0,0,54,0,42,42,31,,,,,299.2695347080007,,,,,,,,,,,,,,,,,,,,,,,,,,,,,,,,,,,,,,,,,,,,,,,,,,,,,,,,,,,,,,,,,,299.24143708299744,299.2695347080007,299.2695347080007,299.2695347080007,299.2695347080007,299.2725839163327,299.2695347080007,299.2695347080007,299.2695347080007,300.6324822079987,صحیح است,40,43,2,1.3514102499975706,None,300.6367628329972,300.6475301249993,302.6336327079989,302.63364312499834,302.63375670799724,[],[],[],[],[],[],[],False,302.65797849999944,,,,,,,,,,,,,,,,,,,,,,,,,,,,,,,,,,,,,820119,001,2024-08-04_13h57.26.879,5-34 ready-monolingual persian speaker,2024.1.5,None,2024-08-04 13h57.31.993011 +0900,
Images/Speaker1.jpg,Images/Speaker2.jpg,Images/Speaker3.jpg,Images/Speaker4.jpg,Audio/Speaker3_Per/P3-12-Per.wav,Speaker3,گوینده۳,,,,,,,,0,0,0,54,0,43,43,51,,,,,302.65797849999944,,,,,,,,,,,,,,,,,,,,,,,,,,,,,,,,,,,,,,,,,,,,,,,,,,,,,,,,,,,,,,,,,,302.6341625829991,302.65797849999944,302.65797849999944,302.65797849999944,302.65797849999944,302.666758750333,302.65797849999944,302.65797849999944,302.65797849999944,304.03758474999995,صحیح است,41,44,3,1.3767584999986866,None,304.041481207998,304.05230887499783,306.04268279199823,306.04271999999764,306.04307329199946,[],[],[],[],[],[],[],False,,,,,,,,,,,,,,,,,,,,,,,,,,,,,,,,,,,,,,820119,001,2024-08-04_13h57.26.879,5-34 ready-monolingual persian speaker,2024.1.5,None,2024-08-04 13h57.31.993011 +0900,
Images/Speaker1.jpg,Images/Speaker2.jpg,Images/Speaker3.jpg,Images/Speaker4.jpg,Audio/Speaker1_Per/P1-6-Per.wav,Speaker1,گوینده ۱,,,,,,,,0,0,0,54,0,44,44,5,,,,,306.0716177079994,,,,,,,,,,,,,,,,,,,,,,,,,,,,,,,,,,,,,,,,,,,,,,,,,,,,,,,,,,,,,,,,,,306.0446105419978,306.0716177079994,306.0716177079994,306.0716177079994,306.0716177079994,306.07583437533367,306.0716177079994,306.0716177079994,306.0716177079994,307.41252679199897,صحیح است,42,45,1,1.3272312089975458,None,307.4165112919982,307.427623749998,309.4230632079998,309.4230722079992,309.42318774999876,[],[],[],[],[],[],[],False,,,,,,,,,,,,,,,,,,,,,,,,,,,,,,,,,,,,,,820119,001,2024-08-04_13h57.26.879,5-34 ready-monolingual persian speaker,2024.1.5,None,2024-08-04 13h57.31.993011 +0900,
Images/Speaker1.jpg,Images/Speaker2.jpg,Images/Speaker3.jpg,Images/Speaker4.jpg,Audio/Speaker3_Per/P3-18-Per.wav,Speaker3,گوینده۳,,,,,,,,0,0,0,54,0,45,45,57,,,,,309.4486301670004,,,,,,,,,,,,,,,,,,,,,,,,,,,,,,,,,,,,,,,,,,,,,,,,,,,,,,,,,,,,,,,,,,309.4236280419973,309.4486301670004,309.4486301670004,309.4486301670004,309.4486301670004,309.45635333333166,309.4486301670004,309.4486301670004,309.4486301670004,312.8880083749973,صحیح است,43,46,3,3.4326239580004767,None,312.88826920800057,312.8966428749991,314.88813966700036,314.8881489999985,314.8882527499991,[],[],[],[],[],[],[],False,314.91369895800017,,,,,,,,,,,,,,,,,,,,,,,,,,,,,,,,,,,,,820119,001,2024-08-04_13h57.26.879,5-34 ready-monolingual persian speaker,2024.1.5,None,2024-08-04 13h57.31.993011 +0900,
Images/Speaker1.jpg,Images/Speaker2.jpg,Images/Speaker3.jpg,Images/Speaker4.jpg,Audio/Speaker3_Per/P3-3-Per.wav,Speaker3,گوینده۳,,,,,,,,0,0,0,54,0,46,46,42,,,,,314.91369895800017,,,,,,,,,,,,,,,,,,,,,,,,,,,,,,,,,,,,,,,,,,,,,,,,,,,,,,,,,,,,,,,,,,314.8886939999975,314.91369895800017,314.91369895800017,314.91369895800017,314.91369895800017,314.92127125033267,314.91369895800017,314.91369895800017,314.91369895800017,316.16936904199974,صحیح است,44,47,3,1.2470310839999001,None,316.17313062500034,316.1816789170007,318.1761446249984,318.1761796669998,318.1765321669991,[],[],[],[],[],[],[],False,,,,,,,,,,,,,,,,,,,,,,,,,,,,,,,,,,,,,,820119,001,2024-08-04_13h57.26.879,5-34 ready-monolingual persian speaker,2024.1.5,None,2024-08-04 13h57.31.993011 +0900,
Images/Speaker1.jpg,Images/Speaker2.jpg,Images/Speaker3.jpg,Images/Speaker4.jpg,Audio/Speaker4_Per/P4-9-Per.wav,Speaker4,گوینده۴,,,,,,,,0,0,0,54,0,47,47,68,,,,,318.2051324169988,,,,,,,,,,,,,,,,,,,,,,,,,,,,,,,,,,,,,,,,,,,,,,,,,,,,,,,,,,,,,,,,,,318.17803741699754,318.2051324169988,318.2051324169988,318.2051324169988,318.2051324169988,318.20930854133303,318.2051324169988,318.2051324169988,318.2051324169988,319.9286836249994,صحیح است,45,48,4,1.722469458996784,None,319.9328190419983,319.94356629200047,321.93043920799755,321.9304487499976,321.9305537500004,[],[],[],[],[],[],[],False,321.95658204199935,,,,,,,,,,,,,,,,,,,,,,,,,,,,,,,,,,,,,820119,001,2024-08-04_13h57.26.879,5-34 ready-monolingual persian speaker,2024.1.5,None,2024-08-04 13h57.31.993011 +0900,
Images/Speaker1.jpg,Images/Speaker2.jpg,Images/Speaker3.jpg,Images/Speaker4.jpg,Audio/Speaker1_Per/P1-12-Per.wav,Speaker1,گوینده ۱,,,,,,,,0,0,0,54,0,48,48,11,,,,,321.95658204199935,,,,,,,,,,,,,,,,,,,,,,,,,,,,,,,,,,,,,,,,,,,,,,,,,,,,,,,,,,,,,,,,,,321.9309946249996,321.95658204199935,321.95658204199935,321.95658204199935,321.95658204199935,321.9635473333333,321.95658204199935,321.95658204199935,321.95658204199935,323.15444695800034,صحیح است,46,49,1,1.1894738339979085,None,323.1584609169986,323.16696191699884,325.1536765419987,325.15368512499845,325.15380108299723,[],[],[],[],[],[],[],False,325.18149229199844,,,,,,,,,,,,,,,,,,,,,,,,,,,,,,,,,,,,,820119,001,2024-08-04_13h57.26.879,5-34 ready-monolingual persian speaker,2024.1.5,None,2024-08-04 13h57.31.993011 +0900,
Images/Speaker1.jpg,Images/Speaker2.jpg,Images/Speaker3.jpg,Images/Speaker4.jpg,Audio/Speaker1_Per/P1-9-Per.wav,Speaker1,گوینده ۱,,,,,,,,0,0,0,54,0,49,49,8,,,,,325.18149229199844,,,,,,,,,,,,,,,,,,,,,,,,,,,,,,,,,,,,,,,,,,,,,,,,,,,,,,,,,,,,,,,,,,325.1542331249984,325.18149229199844,325.18149229199844,325.18149229199844,325.18149229199844,325.1867906253324,325.18149229199844,325.18149229199844,325.18149229199844,326.5635584999982,صحیح است,47,50,1,1.3714035829980276,None,326.5675247500003,326.57835633300056,328.5717714579987,328.5717998750006,328.5721309170003,[],[],[],[],[],[],[],False,,,,,,,,,,,,,,,,,,,,,,,,,,,,,,,,,,,,,,820119,001,2024-08-04_13h57.26.879,5-34 ready-monolingual persian speaker,2024.1.5,None,2024-08-04 13h57.31.993011 +0900,
Images/Speaker1.jpg,Images/Speaker2.jpg,Images/Speaker3.jpg,Images/Speaker4.jpg,Audio/Speaker1_Per/P1-5-Per.wav,Speaker1,گوینده ۱,,,,,,,,0,0,0,54,0,50,50,4,,,,,328.6000948330002,,,,,,,,,,,,,,,,,,,,,,,,,,,,,,,,,,,,,,,,,,,,,,,,,,,,,,,,,,,,,,,,,,328.5735160419972,328.6000948330002,328.6000948330002,328.6000948330002,328.6000948330002,328.6049484163309,328.6000948330002,328.6000948330002,328.6000948330002,330.2434092919975,صحیح است,48,51,1,1.6404055420025543,None,330.24723916699804,330.25852929199755,332.2456647500003,332.2456756249994,332.24578720799764,[],[],[],[],[],[],[],False,332.27176362499813,,,,,,,,,,,,,,,,,,,,,,,,,,,,,,,,,,,,,820119,001,2024-08-04_13h57.26.879,5-34 ready-monolingual persian speaker,2024.1.5,None,2024-08-04 13h57.31.993011 +0900,
Images/Speaker1.jpg,Images/Speaker2.jpg,Images/Speaker3.jpg,Images/Speaker4.jpg,Audio/Speaker3_Per/P3-4-Per.wav,Speaker3,گوینده۳,,,,,,,,0,0,0,54,0,51,51,43,,,,,332.27176362499813,,,,,,,,,,,,,,,,,,,,,,,,,,,,,,,,,,,,,,,,,,,,,,,,,,,,,,,,,,,,,,,,,,332.24621133300025,332.27176362499813,332.27176362499813,332.27176362499813,332.27176362499813,332.2787807913305,332.27176362499813,332.27176362499813,332.27176362499813,337.2096041250006,صحیح است,49,52,3,4.933388041001308,None,337.20982387500044,337.2209893750005,339.2049815829996,339.20501220799997,339.20533433299715,[],[],[],[],[],[],[],False,339.23358166699836,,,,,,,,,,,,,,,,,,,,,,,,,,,,,,,,,,,,,820119,001,2024-08-04_13h57.26.879,5-34 ready-monolingual persian speaker,2024.1.5,None,2024-08-04 13h57.31.993011 +0900,
Images/Speaker1.jpg,Images/Speaker2.jpg,Images/Speaker3.jpg,Images/Speaker4.jpg,Audio/Speaker4_Per/P4-8-Per.wav,Speaker4,گوینده۴,,,,,,,,0,0,0,54,0,52,52,67,,,,,339.23358166699836,,,,,,,,,,,,,,,,,,,,,,,,,,,,,,,,,,,,,,,,,,,,,,,,,,,,,,,,,,,,,,,,,,339.20671799999764,339.23358166699836,339.23358166699836,339.23358166699836,339.23358166699836,339.23752145833396,339.23358166699836,339.23358166699836,339.23358166699836,343.1466682499995,صحیح است,50,53,4,3.9063227910010028,None,343.14690320799855,343.1580063750007,345.14480166700014,345.14481433299807,345.14491720799924,[],[],[],[],[],[],[],False,345.1692984170004,,,,,,,,,,,,,,,,,,,,,,,,,,,,,,,,,,,,,820119,001,2024-08-04_13h57.26.879,5-34 ready-monolingual persian speaker,2024.1.5,None,2024-08-04 13h57.31.993011 +0900,
Images/Speaker1.jpg,Images/Speaker2.jpg,Images/Speaker3.jpg,Images/Speaker4.jpg,Audio/Speaker3_Per/P3-17-Per.wav,Speaker3,گوینده۳,,,,,,,,0,0,0,54,0,53,53,56,,,,,345.1692984170004,,,,,,,,,,,,,,,,,,,,,,,,,,,,,,,,,,,,,,,,,,,,,,,,,,,,,,,,,,,,,,,,,,345.1453351249984,345.1692984170004,345.1692984170004,345.1692984170004,345.1692984170004,345.1779312083313,345.1692984170004,345.1692984170004,345.1692984170004,348.870392249999,صحیح است,51,54,3,3.69889245900049,None,348.87065837499904,348.88160483299725,350.88000004199785,350.8800090829973,350.8801223329974,[],[],[],[],[],[],[],False,,,,,,,,,,,,,,,,,,,,,,,,,,,,,,,,,,,,,,820119,001,2024-08-04_13h57.26.879,5-34 ready-monolingual persian speaker,2024.1.5,None,2024-08-04 13h57.31.993011 +0900,
Images/Speaker1.jpg,Images/Speaker2.jpg,Images/Speaker3.jpg,Images/Speaker4.jpg,Audio/Speaker2_Per/P2-10-Per.wav,Speaker2,گوینده۲,,,,,,,,0,0,0,54,0,54,54,29,,,,,350.90534212499915,,,,,,,,,,,,,,,,,,,,,,,,,,,,,,,,,,,,,,,,,,,,,,,,,,,,,,,,,,,,,,,,,,350.880589417,350.90534212499915,350.90534212499915,350.90534212499915,350.90534212499915,350.91329116633324,350.90534212499915,350.90534212499915,350.90534212499915,354.01983870799813,صحیح است,52,55,2,3.1119032920032623,None,354.0200761669985,354.03098408299775,356.0214438749972,356.0214784999989,356.02184874999875,[],[],[],[],[],[],[],False,,,,,,,,,,,,,,,,,,,,,,,,,,,,,,,,,,,,,,820119,001,2024-08-04_13h57.26.879,5-34 ready-monolingual persian speaker,2024.1.5,None,2024-08-04 13h57.31.993011 +0900,
Images/Speaker1.jpg,Images/Speaker2.jpg,Images/Speaker3.jpg,Images/Speaker4.jpg,Audio/Speaker1_Per/P1-7-Per.wav,Speaker1,گوینده ۱,,,,,,,,0,0,0,54,0,55,55,6,,,,,356.05031658299777,,,,,,,,,,,,,,,,,,,,,,,,,,,,,,,,,,,,,,,,,,,,,,,,,,,,,,,,,,,,,,,,,,356.0234359999995,356.05031658299777,356.05031658299777,356.05031658299777,356.05031658299777,356.05412887533066,356.05031658299777,356.05031658299777,356.05031658299777,359.24142550000033,صحیح است,53,56,1,3.1887389170005918,None,359.2417154579998,359.25244604199906,361.23962220799876,361.2396450419983,361.24007616699964,[],[],[],[],[],[],[],False,361.26862658299797,,,,,,,,,,,,,,,,,,,,,,,,,,,,,,,,,,,,,820119,001,2024-08-04_13h57.26.879,5-34 ready-monolingual persian speaker,2024.1.5,None,2024-08-04 13h57.31.993011 +0900,
Images/Speaker1.jpg,Images/Speaker2.jpg,Images/Speaker3.jpg,Images/Speaker4.jpg,Audio/Speaker4_Per/P4-11-Per.wav,Speaker4,گوینده۴,,,,,,,,0,0,0,54,0,56,56,70,,,,,361.26862658299797,,,,,,,,,,,,,,,,,,,,,,,,,,,,,,,,,,,,,,,,,,,,,,,,,,,,,,,,,,,,,,,,,,361.24173554200024,361.26862658299797,361.26862658299797,361.26862658299797,361.26862658299797,361.2721597913337,361.26862658299797,361.26862658299797,361.26862658299797,362.82886212499943,صحیح است,54,57,4,1.559042666998721,None,362.83303720799813,362.84532970799773,364.82848529200055,364.8284935419979,364.82860987499953,[],[],[],[],[],[],[],False,364.8551103329992,,,,,,,,,,,,,,,,,,,,,,,,,,,,,,,,,,,,,820119,001,2024-08-04_13h57.26.879,5-34 ready-monolingual persian speaker,2024.1.5,None,2024-08-04 13h57.31.993011 +0900,
Images/Speaker1.jpg,Images/Speaker2.jpg,Images/Speaker3.jpg,Images/Speaker4.jpg,Audio/Speaker2_Per/P2-2-Per.wav,Speaker2,گوینده۲,,,,,,,,0,0,0,54,0,57,57,21,,,,,364.8551103329992,,,,,,,,,,,,,,,,,,,,,,,,,,,,,,,,,,,,,,,,,,,,,,,,,,,,,,,,,,,,,,,,,,364.82903537499806,364.8551103329992,364.8551103329992,364.8551103329992,364.8551103329992,364.8615728753325,364.8551103329992,364.8551103329992,364.8551103329992,366.48402712499956,صحیح است,55,58,2,1.6209707080015505,None,366.488390874998,366.4969890829998,368.4827669169972,368.4827769580006,368.48288366699853,[],[],[],[],[],[],[],False,368.50774937499955,,,,,,,,,,,,,,,,,,,,,,,,,,,,,,,,,,,,,820119,001,2024-08-04_13h57.26.879,5-34 ready-monolingual persian speaker,2024.1.5,None,2024-08-04 13h57.31.993011 +0900,
Images/Speaker1.jpg,Images/Speaker2.jpg,Images/Speaker3.jpg,Images/Speaker4.jpg,Audio/Speaker3_Per/P3-16-Per.wav,Speaker3,گوینده۳,,,,,,,,0,0,0,54,0,58,58,55,,,,,368.50774937499955,,,,,,,,,,,,,,,,,,,,,,,,,,,,,,,,,,,,,,,,,,,,,,,,,,,,,,,,,,,,,,,,,,368.4833130829975,368.50774937499955,368.50774937499955,368.50774937499955,368.50774937499955,368.5159051663327,368.50774937499955,368.50774937499955,368.50774937499955,369.82351379199827,صحیح است,56,59,3,1.3101219999989553,None,369.8274887499974,369.83840170799886,371.83251958300025,371.83254620799926,371.83289283299746,[],[],[],[],[],[],[],False,,,,,,,,,,,,,,,,,,,,,,,,,,,,,,,,,,,,,,820119,001,2024-08-04_13h57.26.879,5-34 ready-monolingual persian speaker,2024.1.5,None,2024-08-04 13h57.31.993011 +0900,
Images/Speaker1.jpg,Images/Speaker2.jpg,Images/Speaker3.jpg,Images/Speaker4.jpg,Audio/Speaker1_Per/P1-20-Per.wav,Speaker1,گوینده ۱,,,,,,,,0,0,0,54,0,59,59,19,,,,,371.85763420799776,,,,,,,,,,,,,,,,,,,,,,,,,,,,,,,,,,,,,,,,,,,,,,,,,,,,,,,,,,,,,,,,,,371.8342951249979,371.85763420799776,371.85763420799776,371.85763420799776,371.85763420799776,371.8656418753312,371.85763420799776,371.85763420799776,371.85763420799776,373.28320179199727,صحیح است,57,60,1,1.420293416998902,None,373.28712487499797,373.2976867920006,375.2850254170007,375.2850495419989,375.28539074999935,[],[],[],[],[],[],[],False,375.3136713749991,,,,,,,,,,,,,,,,,,,,,,,,,,,,,,,,,,,,,820119,001,2024-08-04_13h57.26.879,5-34 ready-monolingual persian speaker,2024.1.5,None,2024-08-04 13h57.31.993011 +0900,
Images/Speaker1.jpg,Images/Speaker2.jpg,Images/Speaker3.jpg,Images/Speaker4.jpg,Audio/Speaker2_Per/P2-8-Per.wav,Speaker2,گوینده۲,,,,,,,,0,0,0,54,0,60,60,27,,,,,375.3136713749991,,,,,,,,,,,,,,,,,,,,,,,,,,,,,,,,,,,,,,,,,,,,,,,,,,,,,,,,,,,,,,,,,,375.2866799580006,375.3136713749991,375.3136713749991,375.3136713749991,375.3136713749991,375.31770429133076,375.3136713749991,375.3136713749991,375.3136713749991,376.8287938329995,صحیح است,58,61,2,1.5133429579982476,None,376.8327836669996,376.84362045799935,378.82687095800065,378.8268972499973,378.82728012499865,[],[],[],[],[],[],[],False,378.85458899999867,,,,,,,,,,,,,,,,,,,,,,,,,,,,,,,,,,,,,820119,001,2024-08-04_13h57.26.879,5-34 ready-monolingual persian speaker,2024.1.5,None,2024-08-04 13h57.31.993011 +0900,
Images/Speaker1.jpg,Images/Speaker2.jpg,Images/Speaker3.jpg,Images/Speaker4.jpg,Audio/Speaker4_Per/P4-1-Per.wav,Speaker4,گوینده۴,,,,,,,,0,0,0,54,0,61,61,60,,,,,378.85458899999867,,,,,,,,,,,,,,,,,,,,,,,,,,,,,,,,,,,,,,,,,,,,,,,,,,,,,,,,,,,,,,,,,,378.8289576669995,378.85458899999867,378.85458899999867,378.85458899999867,378.85458899999867,378.8594212503308,378.85458899999867,378.85458899999867,378.85458899999867,380.9151036250005,صحیح است,59,62,4,2.0558930000006512,None,380.9190827079983,380.93037645799996,382.9166100420007,382.91665658299826,382.91700616699745,[],[],[],[],[],[],[],False,382.9435344579979,,,,,,,,,,,,,,,,,,,,,,,,,,,,,,,,,,,,,820119,001,2024-08-04_13h57.26.879,5-34 ready-monolingual persian speaker,2024.1.5,None,2024-08-04 13h57.31.993011 +0900,
Images/Speaker1.jpg,Images/Speaker2.jpg,Images/Speaker3.jpg,Images/Speaker4.jpg,Audio/Speaker2_Per/P2-20-Per.wav,Speaker2,گوینده۲,,,,,,,,0,0,0,54,0,62,62,39,,,,,382.9435344579979,,,,,,,,,,,,,,,,,,,,,,,,,,,,,,,,,,,,,,,,,,,,,,,,,,,,,,,,,,,,,,,,,,382.9183356249996,382.9435344579979,382.9435344579979,382.9435344579979,382.9435344579979,382.94904837533295,382.9435344579979,382.9435344579979,382.9435344579979,384.3681053750006,صحیح است,60,63,2,1.421960333998868,None,384.37324658299985,384.38530162499956,386.37376312500055,386.3737722499973,386.3738819579994,[],[],[],[],[],[],[],False,,,,,,,,,,,,,,,,,,,,,,,,,,,,,,,,,,,,,,820119,001,2024-08-04_13h57.26.879,5-34 ready-monolingual persian speaker,2024.1.5,None,2024-08-04 13h57.31.993011 +0900,
Images/Speaker1.jpg,Images/Speaker2.jpg,Images/Speaker3.jpg,Images/Speaker4.jpg,Audio/Speaker4_Per/P4-10-Per.wav,Speaker4,گوینده۴,,,,,,,,0,0,0,54,0,63,63,69,,,,,386.3987986249995,,,,,,,,,,,,,,,,,,,,,,,,,,,,,,,,,,,,,,,,,,,,,,,,,,,,,,,,,,,,,,,,,,386.37433083299766,386.3987986249995,386.3987986249995,386.3987986249995,386.3987986249995,386.4070544163337,386.3987986249995,386.3987986249995,386.3987986249995,388.4217154170001,صحیح است,61,64,4,2.0156568339989462,None,388.4256846249991,388.4342050419982,390.4263808750002,390.4264044169977,390.42673724999986,[],[],[],[],[],[],[],False,,,,,,,,,,,,,,,,,,,,,,,,,,,,,,,,,,,,,,820119,001,2024-08-04_13h57.26.879,5-34 ready-monolingual persian speaker,2024.1.5,None,2024-08-04 13h57.31.993011 +0900,
Images/Speaker1.jpg,Images/Speaker2.jpg,Images/Speaker3.jpg,Images/Speaker4.jpg,Audio/Speaker1_Per/P1-2-Per.wav,Speaker1,گوینده ۱,,,,,,,,0,0,0,54,0,64,64,1,,,,,390.4560756669998,,,,,,,,,,,,,,,,,,,,,,,,,,,,,,,,,,,,,,,,,,,,,,,,,,,,,,,,,,,,,,,,,,390.4280959579992,390.4560756669998,390.4560756669998,390.4560756669998,390.4560756669998,390.4595586663313,390.4560756669998,390.4560756669998,390.4560756669998,391.7290402079998,صحیح است,62,65,1,1.2675737919998937,None,391.73317441700055,391.744004917,393.7398901669985,393.73989916699793,393.740004583,[],[],[],[],[],[],[],False,,,,,,,,,,,,,,,,,,,,,,,,,,,,,,,,,,,,,,820119,001,2024-08-04_13h57.26.879,5-34 ready-monolingual persian speaker,2024.1.5,None,2024-08-04 13h57.31.993011 +0900,
Images/Speaker1.jpg,Images/Speaker2.jpg,Images/Speaker3.jpg,Images/Speaker4.jpg,Audio/Speaker1_Per/P1-8-Per.wav,Speaker1,گوینده ۱,,,,,,,,0,0,0,54,0,65,65,7,,,,,393.76471129199854,,,,,,,,,,,,,,,,,,,,,,,,,,,,,,,,,,,,,,,,,,,,,,,,,,,,,,,,,,,,,,,,,,393.7405337079981,393.76471129199854,393.76471129199854,393.76471129199854,393.76471129199854,393.77318537533256,393.76471129199854,393.76471129199854,393.76471129199854,395.460237583,صحیح است,63,66,1,1.687455040999339,None,395.4644155829992,395.47295991699866,397.46484229199996,397.46487808299935,397.4653650420005,[],[],[],[],[],[],[],False,397.4925461249986,,,,,,,,,,,,,,,,,,,,,,,,,,,,,,,,,,,,,820119,001,2024-08-04_13h57.26.879,5-34 ready-monolingual persian speaker,2024.1.5,None,2024-08-04 13h57.31.993011 +0900,
Images/Speaker1.jpg,Images/Speaker2.jpg,Images/Speaker3.jpg,Images/Speaker4.jpg,Audio/Speaker2_Per/P2-4-Per.wav,Speaker2,گوینده۲,,,,,,,,0,0,0,54,0,66,66,23,,,,,397.4925461249986,,,,,,,,,,,,,,,,,,,,,,,,,,,,,,,,,,,,,,,,,,,,,,,,,,,,,,,,,,,,,,,,,,397.4669792079985,397.4925461249986,397.4925461249986,397.4925461249986,397.4925461249986,397.49738100033255,397.4925461249986,397.4925461249986,397.4925461249986,398.7525501249984,صحیح است,64,67,2,1.2538206249992072,None,398.75630179200016,398.7670602500002,400.75522716699925,400.7552529579989,400.75561712499984,[],[],[],[],[],[],[],False,400.7845748330001,,,,,,,,,,,,,,,,,,,,,,,,,,,,,,,,,,,,,820119,001,2024-08-04_13h57.26.879,5-34 ready-monolingual persian speaker,2024.1.5,None,2024-08-04 13h57.31.993011 +0900,
Images/Speaker1.jpg,Images/Speaker2.jpg,Images/Speaker3.jpg,Images/Speaker4.jpg,Audio/Speaker4_Per/P4-13-Per.wav,Speaker4,گوینده۴,,,,,,,,0,0,0,54,0,67,67,72,,,,,400.7845748330001,,,,,,,,,,,,,,,,,,,,,,,,,,,,,,,,,,,,,,,,,,,,,,,,,,,,,,,,,,,,,,,,,,400.75708262499757,400.7845748330001,400.7845748330001,400.7845748330001,400.7845748330001,400.787664041331,400.7845748330001,400.7845748330001,400.7845748330001,402.22485912499906,صحیح است,65,68,4,1.4353726249973988,None,402.2292487079976,402.2406622919989,404.2277132499985,404.22772254200027,404.22782579200066,[],[],[],[],[],[],[],False,404.2539926669997,,,,,,,,,,,,,,,,,,,,,,,,,,,,,,,,,,,,,820119,001,2024-08-04_13h57.26.879,5-34 ready-monolingual persian speaker,2024.1.5,None,2024-08-04 13h57.31.993011 +0900,
Images/Speaker1.jpg,Images/Speaker2.jpg,Images/Speaker3.jpg,Images/Speaker4.jpg,Audio/Speaker4_Per/P4-6-Per.wav,Speaker4,گوینده۴,,,,,,,,0,0,0,54,0,68,68,65,,,,,404.2539926669997,,,,,,,,,,,,,,,,,,,,,,,,,,,,,,,,,,,,,,,,,,,,,,,,,,,,,,,,,,,,,,,,,,404.22821074999956,404.2539926669997,404.2539926669997,404.2539926669997,404.2539926669997,404.26080220833364,404.2539926669997,404.2539926669997,404.2539926669997,405.55830720799713,صحیح است,66,69,4,1.3013534169986087,None,405.56232275,405.5732627079997,407.56279408299815,407.5628096250002,407.5629444579972,[],[],[],[],[],[],[],False,,,,,,,,,,,,,,,,,,,,,,,,,,,,,,,,,,,,,,820119,001,2024-08-04_13h57.26.879,5-34 ready-monolingual persian speaker,2024.1.5,None,2024-08-04 13h57.31.993011 +0900,
Images/Speaker1.jpg,Images/Speaker2.jpg,Images/Speaker3.jpg,Images/Speaker4.jpg,Audio/Speaker4_Per/P4-7-Per.wav,Speaker4,گوینده۴,,,,,,,,0,0,0,54,0,69,69,66,,,,,407.586760582999,,,,,,,,,,,,,,,,,,,,,,,,,,,,,,,,,,,,,,,,,,,,,,,,,,,,,,,,,,,,,,,,,,407.56346816699806,407.586760582999,407.586760582999,407.586760582999,407.586760582999,407.59608279133363,407.586760582999,407.586760582999,407.586760582999,409.2441160829985,صحیح است,67,70,4,1.6551242499990622,None,409.24835145799807,409.25917045799724,411.254396291999,411.25443770799757,411.2548892499981,[],[],[],[],[],[],[],False,,,,,,,,,,,,,,,,,,,,,,,,,,,,,,,,,,,,,,820119,001,2024-08-04_13h57.26.879,5-34 ready-monolingual persian speaker,2024.1.5,None,2024-08-04 13h57.31.993011 +0900,
Images/Speaker1.jpg,Images/Speaker2.jpg,Images/Speaker3.jpg,Images/Speaker4.jpg,Audio/Speaker3_Per/P3-2-Per.wav,Speaker3,گوینده۳,,,,,,,,0,0,0,54,0,70,70,41,,,,,411.2866815419984,,,,,,,,,,,,,,,,,,,,,,,,,,,,,,,,,,,,,,,,,,,,,,,,,,,,,,,,,,,,,,,,,,411.25640524999835,411.2866815419984,411.2866815419984,411.2866815419984,411.2866815419984,411.28751945833255,411.2866815419984,411.2866815419984,411.2866815419984,412.8785817499993,صحیح است,68,71,3,1.5892249169992283,None,412.8826709169989,412.893463417,414.8778912919988,414.87790058300016,414.87802120799824,[],[],[],[],[],[],[],False,414.9057536250002,,,,,,,,,,,,,,,,,,,,,,,,,,,,,,,,,,,,,820119,001,2024-08-04_13h57.26.879,5-34 ready-monolingual persian speaker,2024.1.5,None,2024-08-04 13h57.31.993011 +0900,
Images/Speaker1.jpg,Images/Speaker2.jpg,Images/Speaker3.jpg,Images/Speaker4.jpg,Audio/Speaker2_Per/P2-3-Per.wav,Speaker2,گوینده۲,,,,,,,,0,0,0,54,0,71,71,22,,,,,414.9057536250002,,,,,,,,,,,,,,,,,,,,,,,,,,,,,,,,,,,,,,,,,,,,,,,,,,,,,,,,,,,,,,,,,,414.8791502919994,414.9057536250002,414.9057536250002,414.9057536250002,414.9057536250002,414.9110109583312,414.9057536250002,414.9057536250002,414.9057536250002,416.67511891699905,صحیح است,69,72,2,1.7639587500016205,None,416.6789339169991,416.68975141699775,418.6741796669994,418.67418783299945,418.6743233749985,[],[],[],[],[],[],[],False,418.6999109999997,,,,,,,,,,,,,,,,,,,,,,,,,,,,,,,,,,,,,820119,001,2024-08-04_13h57.26.879,5-34 ready-monolingual persian speaker,2024.1.5,None,2024-08-04 13h57.31.993011 +0900,
Images/Speaker1.jpg,Images/Speaker2.jpg,Images/Speaker3.jpg,Images/Speaker4.jpg,Audio/Speaker4_Per/P4-5-Per.wav,Speaker4,گوینده۴,,,,,,,,0,0,0,54,0,72,72,64,,,,,418.6999109999997,,,,,,,,,,,,,,,,,,,,,,,,,,,,,,,,,,,,,,,,,,,,,,,,,,,,,,,,,,,,,,,,,,418.6747549169995,418.6999109999997,418.6999109999997,418.6999109999997,418.6999109999997,418.70732750033176,418.6999109999997,418.6999109999997,418.6999109999997,421.7290087500005,صحیح است,70,73,4,3.027954375000263,None,421.73303683300037,421.7437399579976,423.73466841700065,423.73468325000067,423.73479508299715,[],[],[],[],[],[],[],False,,,,,,,,,,,,,,,,,,,,,,,,,,,,,,,,,,,,,,820119,001,2024-08-04_13h57.26.879,5-34 ready-monolingual persian speaker,2024.1.5,None,2024-08-04 13h57.31.993011 +0900,
Images/Speaker1.jpg,Images/Speaker2.jpg,Images/Speaker3.jpg,Images/Speaker4.jpg,Audio/Speaker3_Per/P3-8-Per.wav,Speaker3,گوینده۳,,,,,,,,0,0,0,54,0,73,73,47,,,,,423.75969370799794,,,,,,,,,,,,,,,,,,,,,,,,,,,,,,,,,,,,,,,,,,,,,,,,,,,,,,,,,,,,,,,,,,423.73532491699734,423.75969370799794,423.75969370799794,423.75969370799794,423.75969370799794,423.7679595413324,423.75969370799794,423.75969370799794,423.75969370799794,425.5375552080004,صحیح است,71,74,3,1.7768653330022062,None,425.54194245799954,425.55279858299764,427.54324670799906,427.543281541999,427.5436579169982,[],[],[],[],[],[],[],False,,,,,,,,,,,,,,,,,,,,,,,,,,,,,,,,,,,,,,820119,001,2024-08-04_13h57.26.879,5-34 ready-monolingual persian speaker,2024.1.5,None,2024-08-04 13h57.31.993011 +0900,
Images/Speaker1.jpg,Images/Speaker2.jpg,Images/Speaker3.jpg,Images/Speaker4.jpg,Audio/Speaker4_Per/P4-20-Per.wav,Speaker4,گوینده۴,,,,,,,,0,0,0,54,0,74,74,79,,,,,427.57288074999815,,,,,,,,,,,,,,,,,,,,,,,,,,,,,,,,,,,,,,,,,,,,,,,,,,,,,,,,,,,,,,,,,,427.54506554199907,427.57288074999815,427.57288074999815,427.57288074999815,427.57288074999815,427.5764087913308,427.57288074999815,427.57288074999815,427.57288074999815,429.30853070800003,صحیح است,72,75,4,1.7330659170002036,None,429.3124637919973,429.3232906669982,431.3126965829979,431.3127288329997,431.31303337499776,[],[],[],[],[],[],[],False,431.3413797920002,,,,,,,,,,,,,,,,,,,,,,,,,,,,,,,,,,,,,820119,001,2024-08-04_13h57.26.879,5-34 ready-monolingual persian speaker,2024.1.5,None,2024-08-04 13h57.31.993011 +0900,
Images/Speaker1.jpg,Images/Speaker2.jpg,Images/Speaker3.jpg,Images/Speaker4.jpg,Audio/Speaker3_Per/P3-9-Per.wav,Speaker3,گوینده۳,,,,,,,,0,0,0,54,0,75,75,48,,,,,431.3413797920002,,,,,,,,,,,,,,,,,,,,,,,,,,,,,,,,,,,,,,,,,,,,,,,,,,,,,,,,,,,,,,,,,,431.3143602499986,431.3413797920002,431.3413797920002,431.3413797920002,431.3413797920002,431.34515816633257,431.3413797920002,431.3413797920002,431.3413797920002,433.8708134999979,صحیح است,73,76,3,2.5205596250016242,None,433.87467837499935,433.8854837500003,435.87107962499795,435.87110537499757,435.87140516699947,[],[],[],[],[],[],[],False,435.89864124999804,,,,,,,,,,,,,,,,,,,,,,,,,,,,,,,,,,,,,820119,001,2024-08-04_13h57.26.879,5-34 ready-monolingual persian speaker,2024.1.5,None,2024-08-04 13h57.31.993011 +0900,
Images/Speaker1.jpg,Images/Speaker2.jpg,Images/Speaker3.jpg,Images/Speaker4.jpg,Audio/Speaker1_Per/P1-13-Per.wav,Speaker1,گوینده ۱,,,,,,,,0,0,0,54,0,76,76,12,,,,,435.89864124999804,,,,,,,,,,,,,,,,,,,,,,,,,,,,,,,,,,,,,,,,,,,,,,,,,,,,,,,,,,,,,,,,,,435.87233045799803,435.89864124999804,435.89864124999804,435.89864124999804,435.89864124999804,435.9035649163311,435.89864124999804,435.89864124999804,435.89864124999804,438.2087513749975,صحیح است,74,77,1,2.301023333999183,None,438.2131391669973,438.22135954199985,440.21117191699886,440.2111812080002,440.21129133299837,[],[],[],[],[],[],[],False,440.2397040830001,,,,,,,,,,,,,,,,,,,,,,,,,,,,,,,,,,,,,820119,001,2024-08-04_13h57.26.879,5-34 ready-monolingual persian speaker,2024.1.5,None,2024-08-04 13h57.31.993011 +0900,
Images/Speaker1.jpg,Images/Speaker2.jpg,Images/Speaker3.jpg,Images/Speaker4.jpg,Audio/Speaker3_Per/P3-15-Per.wav,Speaker3,گوینده۳,,,,,,,,0,0,0,54,0,77,77,54,,,,,440.2397040830001,,,,,,,,,,,,,,,,,,,,,,,,,,,,,,,,,,,,,,,,,,,,,,,,,,,,,,,,,,,,,,,,,,440.21171791699817,440.2397040830001,440.2397040830001,440.2397040830001,440.2397040830001,440.2443098753324,440.2397040830001,440.2397040830001,440.2397040830001,441.85487745799765,صحیح است,75,78,3,1.612567249998392,None,441.8590700419991,441.8699070830007,443.862880875,443.8629054999983,443.8632794579971,[],[],[],[],[],[],[],False,,,,,,,,,,,,,,,,,,,,,,,,,,,,,,,,,,,,,,820119,001,2024-08-04_13h57.26.879,5-34 ready-monolingual persian speaker,2024.1.5,None,2024-08-04 13h57.31.993011 +0900,
Images/Speaker1.jpg,Images/Speaker2.jpg,Images/Speaker3.jpg,Images/Speaker4.jpg,Audio/Speaker2_Per/P2-7-Per.wav,Speaker2,گوینده۲,,,,,,,,0,0,0,54,0,78,78,26,,,,,443.8897135829975,,,,,,,,,,,,,,,,,,,,,,,,,,,,,,,,,,,,,,,,,,,,,,,,,,,,,,,,,,,,,,,,,,443.8644789579994,443.8897135829975,443.8897135829975,443.8897135829975,443.8897135829975,443.89602350033283,443.8897135829975,443.8897135829975,443.8897135829975,445.2083200419984,صحیح است,76,79,2,1.3175637920030567,None,445.2125192079984,445.22340708299816,447.2064771250007,447.2064864169988,447.20659633299874,[],[],[],[],[],[],[],False,447.2315880829992,,,,,,,,,,,,,,,,,,,,,,,,,,,,,,,,,,,,,820119,001,2024-08-04_13h57.26.879,5-34 ready-monolingual persian speaker,2024.1.5,None,2024-08-04 13h57.31.993011 +0900,
Images/Speaker1.jpg,Images/Speaker2.jpg,Images/Speaker3.jpg,Images/Speaker4.jpg,Audio/Speaker1_Per/P1-18-Per.wav,Speaker1,گوینده ۱,,,,,,,,0,0,0,54,0,79,79,17,,,,,447.2315880829992,,,,,,,,,,,,,,,,,,,,,,,,,,,,,,,,,,,,,,,,,,,,,,,,,,,,,,,,,,,,,,,,,,447.2070499580004,447.2315880829992,447.2315880829992,447.2315880829992,447.2315880829992,447.23960833333376,447.2315880829992,447.2315880829992,447.2315880829992,448.58567112499804,صحیح است,77,80,1,1.343607583999983,None,448.5897813329975,448.6006142499973,450.5852863330001,450.58529604199794,450.5854074579984,[],[],[],[],[],[],[],False,450.59061012500024,,,,,,,,,,,,,,,,,,,,,,,,,,,,,,,,,,,,,820119,001,2024-08-04_13h57.26.879,5-34 ready-monolingual persian speaker,2024.1.5,None,2024-08-04 13h57.31.993011 +0900,
Images/Speaker1.jpg,Images/Speaker2.jpg,Images/Speaker3.jpg,Images/Speaker4.jpg,Audio/Speaker3_Per/P3-15-Per.wav,Speaker3,گوینده۳,,,,,,,,0,0,0,54,,,,,,,,,,,,,,,,,,,,,,,,,,,,,,,,,,,,,,,,,,,,,,,,,,,,,,,,,,,,,,,,,,,,,,,,,,,,,,,,,,,,,,,,,,,,,,,,,,,,,,,,,,,,,450.5857875420006,0.9625,True,450.58598766700015,,,,,,,,,,,,,,,,,,,,,,,,,,,,,820119,001,2024-08-04_13h57.26.879,5-34 ready-monolingual persian speaker,2024.1.5,None,2024-08-04 13h57.31.993011 +0900,
,,,,,,,,,,,,,,,,,,,,,,,,,,,,,,,,,,,,,,,,,,,,,,,,,,,,,,,,,,,,,,,,,,,,,,,,,,,,,,,,,,,,,,,,,,,,,,,,,,,,,,,,,,,,,,,,,,,,,,,,,,,,,,,,,,450.5860156669987,450.59061012500024,455.61752137499934,455.57402208299754,,,,,,,,,,,,,,,,,,,,,,,,,820119,001,2024-08-04_13h57.26.879,5-34 ready-monolingual persian speaker,2024.1.5,None,2024-08-04 13h57.31.993011 +0900,
,,,,,,,Images/Speaker1.jpg,Images/Speaker2.jpg,Images/Speaker3.jpg,Images/Speaker4.jpg,Audio/Speaker3_Per/P3-5-Per.wav,Speaker3,گوینده۳,,,,,,,,,0,0,0,44,455.61752137499934,,,,,,,,,,,,,,,,,,,,,,,,,,,,,,,,,,,,,,,,,,,,,,,,,,,,,,,,,,,,,,,,,,,,,,,,,,,,,,,,,,,,,,,,,,,,,,,,,,,,,,,,,,,,455.5947135419992,455.61752137499934,455.61752137499934,455.61752137499934,455.61752137499934,455.62381779199933,455.61752137499934,455.61752137499934,459.7915339579995,3,4.168265666001389,None,3,Images/Speaker1.jpg,Images/Speaker2.jpg,Images/Speaker3.jpg,Images/Speaker4.jpg,Audio/Speaker3_Per/P3-5-Per.wav,Speaker1,گوینده ۱,,,,,820119,001,2024-08-04_13h57.26.879,5-34 ready-monolingual persian speaker,2024.1.5,None,2024-08-04 13h57.31.993011 +0900,
,,,,,,,Images/Speaker1.jpg,Images/Speaker2.jpg,Images/Speaker3.jpg,Images/Speaker4.jpg,Audio/Speaker1_Per/P1-17-Per.wav,Speaker1,گوینده ۱,,,,,,,,,0,1,1,16,459.812948625,,,,,,,,,,,,,,,,,,,,,,,,,,,,,,,,,,,,,,,,,,,,,,,,,,,,,,,,,,,,,,,,,,,,,,,,,,,,,,,,,,,,,,,,,,,,,,,,,,,,,,,,,,,,459.79199125000014,459.812948625,459.812948625,459.812948625,459.812948625,459.8074483746643,459.812948625,459.812948625,461.4919454999981,1,1.6741877079984988,None,1,Images/Speaker1.jpg,Images/Speaker2.jpg,Images/Speaker3.jpg,Images/Speaker4.jpg,Audio/Speaker1_Per/P1-17-Per.wav,Speaker1,گوینده ۱,,,,,820119,001,2024-08-04_13h57.26.879,5-34 ready-monolingual persian speaker,2024.1.5,None,2024-08-04 13h57.31.993011 +0900,
,,,,,,,Images/Speaker1.jpg,Images/Speaker2.jpg,Images/Speaker3.jpg,Images/Speaker4.jpg,Audio/Speaker4_Per/P4-5-Per.wav,Speaker4,گوینده۴,,,,,,,,,0,2,2,64,461.51984591699875,,,,,,,,,,,,,,,,,,,,,,,,,,,,,,,,,,,,,,,,,,,,,,,,,,,,,,,,,,,,,,,,,,,,,,,,,,,,,,,,,,,,,,,,,,,,,,,,,,,,,,,,,,,,461.4962036249999,461.51984591699875,461.51984591699875,461.51984591699875,461.51984591699875,461.5244374163308,461.51984591699875,461.51984591699875,462.9949395000003,4,1.4728639999993902,None,4,Images/Speaker1.jpg,Images/Speaker2.jpg,Images/Speaker3.jpg,Images/Speaker4.jpg,Audio/Speaker4_Per/P4-5-Per.wav,Speaker1,گوینده ۱,,,,,820119,001,2024-08-04_13h57.26.879,5-34 ready-monolingual persian speaker,2024.1.5,None,2024-08-04 13h57.31.993011 +0900,
,,,,,,,Images/Speaker1.jpg,Images/Speaker2.jpg,Images/Speaker3.jpg,Images/Speaker4.jpg,Audio/Speaker3_Per/P3-12-Per.wav,Speaker3,گوینده۳,,,,,,,,,0,3,3,51,463.0230210419977,,,,,,,,,,,,,,,,,,,,,,,,,,,,,,,,,,,,,,,,,,,,,,,,,,,,,,,,,,,,,,,,,,,,,,,,,,,,,,,,,,,,,,,,,,,,,,,,,,,,,,,,,,,,462.9990238749997,463.0230210419977,463.0230210419977,463.0230210419977,463.0230210419977,463.0274926663337,463.0230210419977,463.0230210419977,464.3992574999975,3,1.3671662919987284,None,3,Images/Speaker1.jpg,Images/Speaker2.jpg,Images/Speaker3.jpg,Images/Speaker4.jpg,Audio/Speaker3_Per/P3-12-Per.wav,Speaker1,گوینده ۱,,,,,820119,001,2024-08-04_13h57.26.879,5-34 ready-monolingual persian speaker,2024.1.5,None,2024-08-04 13h57.31.993011 +0900,
,,,,,,,Images/Speaker1.jpg,Images/Speaker2.jpg,Images/Speaker3.jpg,Images/Speaker4.jpg,Audio/Speaker1_Per/P1-13-Per.wav,Speaker1,گوینده ۱,,,,,,,,,0,4,4,12,464.42471083299824,,,,,,,,,,,,,,,,,,,,,,,,,,,,,,,,,,,,,,,,,,,,,,,,,,,,,,,,,,,,,,,,,,,,,,,,,,,,,,,,,,,,,,,,,,,,,,,,,,,,,,,,,,,,464.4033908329984,464.42471083299824,464.42471083299824,464.42471083299824,464.42471083299824,464.4318656253313,464.42471083299824,464.42471083299824,465.5992699169983,1,1.1708049170010781,None,1,Images/Speaker1.jpg,Images/Speaker2.jpg,Images/Speaker3.jpg,Images/Speaker4.jpg,Audio/Speaker1_Per/P1-13-Per.wav,Speaker1,گوینده ۱,,,,,820119,001,2024-08-04_13h57.26.879,5-34 ready-monolingual persian speaker,2024.1.5,None,2024-08-04 13h57.31.993011 +0900,
,,,,,,,Images/Speaker1.jpg,Images/Speaker2.jpg,Images/Speaker3.jpg,Images/Speaker4.jpg,Audio/Speaker4_Per/P4-16-Per.wav,Speaker4,گوینده۴,,,,,,,,,0,5,5,75,465.62640187500074,,,,,,,,,,,,,,,,,,,,,,,,,,,,,,,,,,,,,,,,,,,,,,,,,,,,,,,,,,,,,,,,,,,,,,,,,,,,,,,,,,,,,,,,,,,,,,,,,,,,,,,,,,,,465.6037399579982,465.62640187500074,465.62640187500074,465.62640187500074,465.62640187500074,465.631798125331,465.62640187500074,465.62640187500074,467.59533183299936,4,1.966360332997283,None,4,Images/Speaker1.jpg,Images/Speaker2.jpg,Images/Speaker3.jpg,Images/Speaker4.jpg,Audio/Speaker4_Per/P4-16-Per.wav,Speaker1,گوینده ۱,,,,,820119,001,2024-08-04_13h57.26.879,5-34 ready-monolingual persian speaker,2024.1.5,None,2024-08-04 13h57.31.993011 +0900,
,,,,,,,Images/Speaker1.jpg,Images/Speaker2.jpg,Images/Speaker3.jpg,Images/Speaker4.jpg,Audio/Speaker2_Per/P2-17-Per.wav,Speaker2,گوینده۲,,,,,,,,,0,6,6,36,467.62217970799975,,,,,,,,,,,,,,,,,,,,,,,,,,,,,,,,,,,,,,,,,,,,,,,,,,,,,,,,,,,,,,,,,,,,,,,,,,,,,,,,,,,,,,,,,,,,,,,,,,,,,,,,,,,,467.5993454169984,467.62217970799975,467.62217970799975,467.62217970799975,467.62217970799975,467.6278715003323,467.62217970799975,467.62217970799975,469.07568079200064,2,1.4504536670028756,None,2,Images/Speaker1.jpg,Images/Speaker2.jpg,Images/Speaker3.jpg,Images/Speaker4.jpg,Audio/Speaker2_Per/P2-17-Per.wav,Speaker1,گوینده ۱,,,,,820119,001,2024-08-04_13h57.26.879,5-34 ready-monolingual persian speaker,2024.1.5,None,2024-08-04 13h57.31.993011 +0900,
,,,,,,,Images/Speaker1.jpg,Images/Speaker2.jpg,Images/Speaker3.jpg,Images/Speaker4.jpg,Audio/Speaker4_Per/P4-20-Per.wav,Speaker4,گوینده۴,,,,,,,,,0,7,7,79,469.1008141249986,,,,,,,,,,,,,,,,,,,,,,,,,,,,,,,,,,,,,,,,,,,,,,,,,,,,,,,,,,,,,,,,,,,,,,,,,,,,,,,,,,,,,,,,,,,,,,,,,,,,,,,,,,,,469.07969745800074,469.1008141249986,469.1008141249986,469.1008141249986,469.1008141249986,469.10817770833137,469.1008141249986,469.1008141249986,470.5376885000005,4,1.4347312500030966,None,4,Images/Speaker1.jpg,Images/Speaker2.jpg,Images/Speaker3.jpg,Images/Speaker4.jpg,Audio/Speaker4_Per/P4-20-Per.wav,Speaker1,گوینده ۱,,,,,820119,001,2024-08-04_13h57.26.879,5-34 ready-monolingual persian speaker,2024.1.5,None,2024-08-04 13h57.31.993011 +0900,
,,,,,,,Images/Speaker1.jpg,Images/Speaker2.jpg,Images/Speaker3.jpg,Images/Speaker4.jpg,Audio/Speaker2_Per/P2-20-Per.wav,Speaker2,گوینده۲,,,,,,,,,0,8,8,39,470.5646882500005,,,,,,,,,,,,,,,,,,,,,,,,,,,,,,,,,,,,,,,,,,,,,,,,,,,,,,,,,,,,,,,,,,,,,,,,,,,,,,,,,,,,,,,,,,,,,,,,,,,,,,,,,,,,470.5415592499994,470.5646882500005,470.5646882500005,470.5646882500005,470.5646882500005,470.57020150033395,470.5646882500005,470.5646882500005,472.22368387499955,2,1.6559738329997344,None,2,Images/Speaker1.jpg,Images/Speaker2.jpg,Images/Speaker3.jpg,Images/Speaker4.jpg,Audio/Speaker2_Per/P2-20-Per.wav,Speaker1,گوینده ۱,,,,,820119,001,2024-08-04_13h57.26.879,5-34 ready-monolingual persian speaker,2024.1.5,None,2024-08-04 13h57.31.993011 +0900,
,,,,,,,Images/Speaker1.jpg,Images/Speaker2.jpg,Images/Speaker3.jpg,Images/Speaker4.jpg,Audio/Speaker1_Per/P1-5-Per.wav,Speaker1,گوینده ۱,,,,,,,,,0,9,9,4,472.25387883299845,,,,,,,,,,,,,,,,,,,,,,,,,,,,,,,,,,,,,,,,,,,,,,,,,,,,,,,,,,,,,,,,,,,,,,,,,,,,,,,,,,,,,,,,,,,,,,,,,,,,,,,,,,,,472.2291094579996,472.25387883299845,472.25387883299845,472.25387883299845,472.25387883299845,472.2562038753317,472.25387883299845,472.25387883299845,473.95217712500016,1,1.6897961659997236,None,1,Images/Speaker1.jpg,Images/Speaker2.jpg,Images/Speaker3.jpg,Images/Speaker4.jpg,Audio/Speaker1_Per/P1-5-Per.wav,Speaker1,گوینده ۱,,,,,820119,001,2024-08-04_13h57.26.879,5-34 ready-monolingual persian speaker,2024.1.5,None,2024-08-04 13h57.31.993011 +0900,
,,,,,,,Images/Speaker1.jpg,Images/Speaker2.jpg,Images/Speaker3.jpg,Images/Speaker4.jpg,Audio/Speaker2_Per/P2-12-Per.wav,Speaker2,گوینده۲,,,,,,,,,0,10,10,31,473.98187733300074,,,,,,,,,,,,,,,,,,,,,,,,,,,,,,,,,,,,,,,,,,,,,,,,,,,,,,,,,,,,,,,,,,,,,,,,,,,,,,,,,,,,,,,,,,,,,,,,,,,,,,,,,,,,473.9566191249978,473.98187733300074,473.98187733300074,473.98187733300074,473.98187733300074,473.9826815833335,473.98187733300074,473.98187733300074,475.32694920799986,2,1.338208166998811,None,2,Images/Speaker1.jpg,Images/Speaker2.jpg,Images/Speaker3.jpg,Images/Speaker4.jpg,Audio/Speaker2_Per/P2-12-Per.wav,Speaker1,گوینده ۱,,,,,820119,001,2024-08-04_13h57.26.879,5-34 ready-monolingual persian speaker,2024.1.5,None,2024-08-04 13h57.31.993011 +0900,
,,,,,,,Images/Speaker1.jpg,Images/Speaker2.jpg,Images/Speaker3.jpg,Images/Speaker4.jpg,Audio/Speaker3_Per/P3-8-Per.wav,Speaker3,گوینده۳,,,,,,,,,0,11,11,47,475.3549345419997,,,,,,,,,,,,,,,,,,,,,,,,,,,,,,,,,,,,,,,,,,,,,,,,,,,,,,,,,,,,,,,,,,,,,,,,,,,,,,,,,,,,,,,,,,,,,,,,,,,,,,,,,,,,475.33120099999724,475.3549345419997,475.3549345419997,475.3549345419997,475.3549345419997,475.35935950033354,475.3549345419997,475.3549345419997,476.93782058299985,3,1.5756570000012289,None,3,Images/Speaker1.jpg,Images/Speaker2.jpg,Images/Speaker3.jpg,Images/Speaker4.jpg,Audio/Speaker3_Per/P3-8-Per.wav,Speaker1,گوینده ۱,,,,,820119,001,2024-08-04_13h57.26.879,5-34 ready-monolingual persian speaker,2024.1.5,None,2024-08-04 13h57.31.993011 +0900,
,,,,,,,Images/Speaker1.jpg,Images/Speaker2.jpg,Images/Speaker3.jpg,Images/Speaker4.jpg,Audio/Speaker1_Per/P1-15-Per.wav,Speaker1,گوینده ۱,,,,,,,,,0,12,12,14,476.96331912499954,,,,,,,,,,,,,,,,,,,,,,,,,,,,,,,,,,,,,,,,,,,,,,,,,,,,,,,,,,,,,,,,,,,,,,,,,,,,,,,,,,,,,,,,,,,,,,,,,,,,,,,,,,,,476.94223212499855,476.96331912499954,476.96331912499954,476.96331912499954,476.96331912499954,476.9701926253333,476.96331912499954,476.96331912499954,478.1597353750003,1,1.19230133399833,None,1,Images/Speaker1.jpg,Images/Speaker2.jpg,Images/Speaker3.jpg,Images/Speaker4.jpg,Audio/Speaker1_Per/P1-15-Per.wav,Speaker1,گوینده ۱,,,,,820119,001,2024-08-04_13h57.26.879,5-34 ready-monolingual persian speaker,2024.1.5,None,2024-08-04 13h57.31.993011 +0900,
,,,,,,,Images/Speaker1.jpg,Images/Speaker2.jpg,Images/Speaker3.jpg,Images/Speaker4.jpg,Audio/Speaker1_Per/P1-12-Per.wav,Speaker1,گوینده ۱,,,,,,,,,0,13,13,11,478.18637108300027,,,,,,,,,,,,,,,,,,,,,,,,,,,,,,,,,,,,,,,,,,,,,,,,,,,,,,,,,,,,,,,,,,,,,,,,,,,,,,,,,,,,,,,,,,,,,,,,,,,,,,,,,,,,478.16375012500066,478.18637108300027,478.18637108300027,478.18637108300027,478.18637108300027,478.19221616633195,478.18637108300027,478.18637108300027,479.48294412500036,1,1.29160283300007,None,1,Images/Speaker1.jpg,Images/Speaker2.jpg,Images/Speaker3.jpg,Images/Speaker4.jpg,Audio/Speaker1_Per/P1-12-Per.wav,Speaker1,گوینده ۱,,,,,820119,001,2024-08-04_13h57.26.879,5-34 ready-monolingual persian speaker,2024.1.5,None,2024-08-04 13h57.31.993011 +0900,
,,,,,,,Images/Speaker1.jpg,Images/Speaker2.jpg,Images/Speaker3.jpg,Images/Speaker4.jpg,Audio/Speaker4_Per/P4-4-Per.wav,Speaker4,گوینده۴,,,,,,,,,0,14,14,63,479.51134954199733,,,,,,,,,,,,,,,,,,,,,,,,,,,,,,,,,,,,,,,,,,,,,,,,,,,,,,,,,,,,,,,,,,,,,,,,,,,,,,,,,,,,,,,,,,,,,,,,,,,,,,,,,,,,479.4868981670006,479.51134954199733,479.51134954199733,479.51134954199733,479.51134954199733,479.5154188753336,479.51134954199733,479.51134954199733,480.70376595799826,4,1.1882165000024543,None,4,Images/Speaker1.jpg,Images/Speaker2.jpg,Images/Speaker3.jpg,Images/Speaker4.jpg,Audio/Speaker4_Per/P4-4-Per.wav,Speaker1,گوینده ۱,,,,,820119,001,2024-08-04_13h57.26.879,5-34 ready-monolingual persian speaker,2024.1.5,None,2024-08-04 13h57.31.993011 +0900,
,,,,,,,Images/Speaker1.jpg,Images/Speaker2.jpg,Images/Speaker3.jpg,Images/Speaker4.jpg,Audio/Speaker2_Per/P2-1-Per.wav,Speaker2,گوینده۲,,,,,,,,,0,15,15,20,480.7318485420001,,,,,,,,,,,,,,,,,,,,,,,,,,,,,,,,,,,,,,,,,,,,,,,,,,,,,,,,,,,,,,,,,,,,,,,,,,,,,,,,,,,,,,,,,,,,,,,,,,,,,,,,,,,,480.70785500000056,480.7318485420001,480.7318485420001,480.7318485420001,480.7318485420001,480.7363403333334,480.7318485420001,480.7318485420001,481.95567554199806,2,1.2192715420023887,None,2,Images/Speaker1.jpg,Images/Speaker2.jpg,Images/Speaker3.jpg,Images/Speaker4.jpg,Audio/Speaker2_Per/P2-1-Per.wav,Speaker1,گوینده ۱,,,,,820119,001,2024-08-04_13h57.26.879,5-34 ready-monolingual persian speaker,2024.1.5,None,2024-08-04 13h57.31.993011 +0900,
,,,,,,,Images/Speaker1.jpg,Images/Speaker2.jpg,Images/Speaker3.jpg,Images/Speaker4.jpg,Audio/Speaker4_Per/P4-13-Per.wav,Speaker4,گوینده۴,,,,,,,,,0,16,16,72,481.9839159999974,,,,,,,,,,,,,,,,,,,,,,,,,,,,,,,,,,,,,,,,,,,,,,,,,,,,,,,,,,,,,,,,,,,,,,,,,,,,,,,,,,,,,,,,,,,,,,,,,,,,,,,,,,,,481.95991008299825,481.9839159999974,481.9839159999974,481.9839159999974,481.9839159999974,481.9867450003335,481.9839159999974,481.9839159999974,483.51993483299884,4,1.5234187910027686,None,4,Images/Speaker1.jpg,Images/Speaker2.jpg,Images/Speaker3.jpg,Images/Speaker4.jpg,Audio/Speaker4_Per/P4-13-Per.wav,Speaker1,گوینده ۱,,,,,820119,001,2024-08-04_13h57.26.879,5-34 ready-monolingual persian speaker,2024.1.5,None,2024-08-04 13h57.31.993011 +0900,
,,,,,,,Images/Speaker1.jpg,Images/Speaker2.jpg,Images/Speaker3.jpg,Images/Speaker4.jpg,Audio/Speaker1_Per/P1-4-Per.wav,Speaker1,گوینده ۱,,,,,,,,,0,17,17,3,483.5451229169994,,,,,,,,,,,,,,,,,,,,,,,,,,,,,,,,,,,,,,,,,,,,,,,,,,,,,,,,,,,,,,,,,,,,,,,,,,,,,,,,,,,,,,,,,,,,,,,,,,,,,,,,,,,,483.52383129199734,483.5451229169994,483.5451229169994,483.5451229169994,483.5451229169994,483.5525142503325,483.5451229169994,483.5451229169994,484.76639624999734,1,1.2140010000002803,None,1,Images/Speaker1.jpg,Images/Speaker2.jpg,Images/Speaker3.jpg,Images/Speaker4.jpg,Audio/Speaker1_Per/P1-4-Per.wav,Speaker1,گوینده ۱,,,,,820119,001,2024-08-04_13h57.26.879,5-34 ready-monolingual persian speaker,2024.1.5,None,2024-08-04 13h57.31.993011 +0900,
,,,,,,,Images/Speaker1.jpg,Images/Speaker2.jpg,Images/Speaker3.jpg,Images/Speaker4.jpg,Audio/Speaker2_Per/P2-19-Per.wav,Speaker2,گوینده۲,,,,,,,,,0,18,18,38,484.7933542079991,,,,,,,,,,,,,,,,,,,,,,,,,,,,,,,,,,,,,,,,,,,,,,,,,,,,,,,,,,,,,,,,,,,,,,,,,,,,,,,,,,,,,,,,,,,,,,,,,,,,,,,,,,,,484.77037816699885,484.7933542079991,484.7933542079991,484.7933542079991,484.7933542079991,484.7966897913325,484.7933542079991,484.7933542079991,486.0327447499985,2,1.2253375000000233,None,2,Images/Speaker1.jpg,Images/Speaker2.jpg,Images/Speaker3.jpg,Images/Speaker4.jpg,Audio/Speaker2_Per/P2-19-Per.wav,Speaker1,گوینده ۱,,,,,820119,001,2024-08-04_13h57.26.879,5-34 ready-monolingual persian speaker,2024.1.5,None,2024-08-04 13h57.31.993011 +0900,
,,,,,,,Images/Speaker1.jpg,Images/Speaker2.jpg,Images/Speaker3.jpg,Images/Speaker4.jpg,Audio/Speaker4_Per/P4-6-Per.wav,Speaker4,گوینده۴,,,,,,,,,0,19,19,65,486.05871275000027,,,,,,,,,,,,,,,,,,,,,,,,,,,,,,,,,,,,,,,,,,,,,,,,,,,,,,,,,,,,,,,,,,,,,,,,,,,,,,,,,,,,,,,,,,,,,,,,,,,,,,,,,,,,486.03660766699977,486.05871275000027,486.05871275000027,486.05871275000027,486.05871275000027,486.06252637533225,486.05871275000027,486.05871275000027,487.4577726669995,4,1.396905917001277,None,4,Images/Speaker1.jpg,Images/Speaker2.jpg,Images/Speaker3.jpg,Images/Speaker4.jpg,Audio/Speaker4_Per/P4-6-Per.wav,Speaker1,گوینده ۱,,,,,820119,001,2024-08-04_13h57.26.879,5-34 ready-monolingual persian speaker,2024.1.5,None,2024-08-04 13h57.31.993011 +0900,
,,,,,,,Images/Speaker1.jpg,Images/Speaker2.jpg,Images/Speaker3.jpg,Images/Speaker4.jpg,Audio/Speaker2_Per/P2-14-Per.wav,Speaker2,گوینده۲,,,,,,,,,0,20,20,33,487.4843617919978,,,,,,,,,,,,,,,,,,,,,,,,,,,,,,,,,,,,,,,,,,,,,,,,,,,,,,,,,,,,,,,,,,,,,,,,,,,,,,,,,,,,,,,,,,,,,,,,,,,,,,,,,,,,487.4616147919987,487.4843617919978,487.4843617919978,487.4843617919978,487.4843617919978,487.4903344583331,487.4843617919978,487.4843617919978,488.84596079199764,2,1.35667283300063,None,2,Images/Speaker1.jpg,Images/Speaker2.jpg,Images/Speaker3.jpg,Images/Speaker4.jpg,Audio/Speaker2_Per/P2-14-Per.wav,Speaker1,گوینده ۱,,,,,820119,001,2024-08-04_13h57.26.879,5-34 ready-monolingual persian speaker,2024.1.5,None,2024-08-04 13h57.31.993011 +0900,
,,,,,,,Images/Speaker1.jpg,Images/Speaker2.jpg,Images/Speaker3.jpg,Images/Speaker4.jpg,Audio/Speaker3_Per/P3-17-Per.wav,Speaker3,گوینده۳,,,,,,,,,0,21,21,56,488.87225945799946,,,,,,,,,,,,,,,,,,,,,,,,,,,,,,,,,,,,,,,,,,,,,,,,,,,,,,,,,,,,,,,,,,,,,,,,,,,,,,,,,,,,,,,,,,,,,,,,,,,,,,,,,,,,488.85008000000016,488.87225945799946,488.87225945799946,488.87225945799946,488.87225945799946,488.8784328333318,488.87225945799946,488.87225945799946,490.2609150419994,3,1.3812452079982904,None,3,Images/Speaker1.jpg,Images/Speaker2.jpg,Images/Speaker3.jpg,Images/Speaker4.jpg,Audio/Speaker3_Per/P3-17-Per.wav,Speaker1,گوینده ۱,,,,,820119,001,2024-08-04_13h57.26.879,5-34 ready-monolingual persian speaker,2024.1.5,None,2024-08-04 13h57.31.993011 +0900,
,,,,,,,Images/Speaker1.jpg,Images/Speaker2.jpg,Images/Speaker3.jpg,Images/Speaker4.jpg,Audio/Speaker3_Per/P3-7-Per.wav,Speaker3,گوینده۳,,,,,,,,,0,22,22,46,490.28990150000027,,,,,,,,,,,,,,,,,,,,,,,,,,,,,,,,,,,,,,,,,,,,,,,,,,,,,,,,,,,,,,,,,,,,,,,,,,,,,,,,,,,,,,,,,,,,,,,,,,,,,,,,,,,,490.2665665829991,490.28990150000027,490.28990150000027,490.28990150000027,490.28990150000027,490.29337154133145,490.28990150000027,490.28990150000027,491.72788458300056,3,1.432034500001464,None,3,Images/Speaker1.jpg,Images/Speaker2.jpg,Images/Speaker3.jpg,Images/Speaker4.jpg,Audio/Speaker3_Per/P3-7-Per.wav,Speaker1,گوینده ۱,,,,,820119,001,2024-08-04_13h57.26.879,5-34 ready-monolingual persian speaker,2024.1.5,None,2024-08-04 13h57.31.993011 +0900,
,,,,,,,Images/Speaker1.jpg,Images/Speaker2.jpg,Images/Speaker3.jpg,Images/Speaker4.jpg,Audio/Speaker4_Per/P4-2-Per.wav,Speaker4,گوینده۴,,,,,,,,,0,23,23,61,491.75626333299806,,,,,,,,,,,,,,,,,,,,,,,,,,,,,,,,,,,,,,,,,,,,,,,,,,,,,,,,,,,,,,,,,,,,,,,,,,,,,,,,,,,,,,,,,,,,,,,,,,,,,,,,,,,,491.73228724999717,491.75626333299806,491.75626333299806,491.75626333299806,491.75626333299806,491.7604147503339,491.75626333299806,491.75626333299806,493.1570689170003,4,1.3967142080000485,None,4,Images/Speaker1.jpg,Images/Speaker2.jpg,Images/Speaker3.jpg,Images/Speaker4.jpg,Audio/Speaker4_Per/P4-2-Per.wav,Speaker1,گوینده ۱,,,,,820119,001,2024-08-04_13h57.26.879,5-34 ready-monolingual persian speaker,2024.1.5,None,2024-08-04 13h57.31.993011 +0900,
,,,,,,,Images/Speaker1.jpg,Images/Speaker2.jpg,Images/Speaker3.jpg,Images/Speaker4.jpg,Audio/Speaker4_Per/P4-7-Per.wav,Speaker4,گوینده۴,,,,,,,,,0,24,24,66,493.18519012499746,,,,,,,,,,,,,,,,,,,,,,,,,,,,,,,,,,,,,,,,,,,,,,,,,,,,,,,,,,,,,,,,,,,,,,,,,,,,,,,,,,,,,,,,,,,,,,,,,,,,,,,,,,,,493.16136545799964,493.18519012499746,493.18519012499746,493.18519012499746,493.18519012499746,493.18952416633374,493.18519012499746,493.18519012499746,494.60147275000054,4,1.4128395000007004,None,4,Images/Speaker1.jpg,Images/Speaker2.jpg,Images/Speaker3.jpg,Images/Speaker4.jpg,Audio/Speaker4_Per/P4-7-Per.wav,Speaker1,گوینده ۱,,,,,820119,001,2024-08-04_13h57.26.879,5-34 ready-monolingual persian speaker,2024.1.5,None,2024-08-04 13h57.31.993011 +0900,
,,,,,,,Images/Speaker1.jpg,Images/Speaker2.jpg,Images/Speaker3.jpg,Images/Speaker4.jpg,Audio/Speaker1_Per/P1-6-Per.wav,Speaker1,گوینده ۱,,,,,,,,,0,25,25,5,494.62916425000003,,,,,,,,,,,,,,,,,,,,,,,,,,,,,,,,,,,,,,,,,,,,,,,,,,,,,,,,,,,,,,,,,,,,,,,,,,,,,,,,,,,,,,,,,,,,,,,,,,,,,,,,,,,,494.60567512499983,494.62916425000003,494.62916425000003,494.62916425000003,494.62916425000003,494.6339925003308,494.62916425000003,494.62916425000003,495.8290326669994,1,1.1974104159999115,None,1,Images/Speaker1.jpg,Images/Speaker2.jpg,Images/Speaker3.jpg,Images/Speaker4.jpg,Audio/Speaker1_Per/P1-6-Per.wav,Speaker1,گوینده ۱,,,,,820119,001,2024-08-04_13h57.26.879,5-34 ready-monolingual persian speaker,2024.1.5,None,2024-08-04 13h57.31.993011 +0900,
,,,,,,,Images/Speaker1.jpg,Images/Speaker2.jpg,Images/Speaker3.jpg,Images/Speaker4.jpg,Audio/Speaker3_Per/P3-15-Per.wav,Speaker3,گوینده۳,,,,,,,,,0,26,26,54,495.8545224579975,,,,,,,,,,,,,,,,,,,,,,,,,,,,,,,,,,,,,,,,,,,,,,,,,,,,,,,,,,,,,,,,,,,,,,,,,,,,,,,,,,,,,,,,,,,,,,,,,,,,,,,,,,,,495.8329353329973,495.8545224579975,495.8545224579975,495.8545224579975,495.8545224579975,495.85997362533135,495.8545224579975,495.8545224579975,497.07821570799933,3,1.220804083000985,None,3,Images/Speaker1.jpg,Images/Speaker2.jpg,Images/Speaker3.jpg,Images/Speaker4.jpg,Audio/Speaker3_Per/P3-15-Per.wav,Speaker1,گوینده ۱,,,,,820119,001,2024-08-04_13h57.26.879,5-34 ready-monolingual persian speaker,2024.1.5,None,2024-08-04 13h57.31.993011 +0900,
,,,,,,,Images/Speaker1.jpg,Images/Speaker2.jpg,Images/Speaker3.jpg,Images/Speaker4.jpg,Audio/Speaker2_Per/P2-18-Per.wav,Speaker2,گوینده۲,,,,,,,,,0,27,27,37,497.10559062500033,,,,,,,,,,,,,,,,,,,,,,,,,,,,,,,,,,,,,,,,,,,,,,,,,,,,,,,,,,,,,,,,,,,,,,,,,,,,,,,,,,,,,,,,,,,,,,,,,,,,,,,,,,,,497.0823516669989,497.10559062500033,497.10559062500033,497.10559062500033,497.10559062500033,497.10901479133145,497.10559062500033,497.10559062500033,498.31659616699835,2,1.2088989580006455,None,2,Images/Speaker1.jpg,Images/Speaker2.jpg,Images/Speaker3.jpg,Images/Speaker4.jpg,Audio/Speaker2_Per/P2-18-Per.wav,Speaker1,گوینده ۱,,,,,820119,001,2024-08-04_13h57.26.879,5-34 ready-monolingual persian speaker,2024.1.5,None,2024-08-04 13h57.31.993011 +0900,
,,,,,,,Images/Speaker1.jpg,Images/Speaker2.jpg,Images/Speaker3.jpg,Images/Speaker4.jpg,Audio/Speaker1_Per/P1-2-Per.wav,Speaker1,گوینده ۱,,,,,,,,,0,28,28,1,498.3444910830003,,,,,,,,,,,,,,,,,,,,,,,,,,,,,,,,,,,,,,,,,,,,,,,,,,,,,,,,,,,,,,,,,,,,,,,,,,,,,,,,,,,,,,,,,,,,,,,,,,,,,,,,,,,,498.3207497500007,498.3444910830003,498.3444910830003,498.3444910830003,498.3444910830003,498.34903129133136,498.3444910830003,498.3444910830003,499.5951997919983,1,1.2391029999998864,None,1,Images/Speaker1.jpg,Images/Speaker2.jpg,Images/Speaker3.jpg,Images/Speaker4.jpg,Audio/Speaker1_Per/P1-2-Per.wav,Speaker1,گوینده ۱,,,,,820119,001,2024-08-04_13h57.26.879,5-34 ready-monolingual persian speaker,2024.1.5,None,2024-08-04 13h57.31.993011 +0900,
,,,,,,,Images/Speaker1.jpg,Images/Speaker2.jpg,Images/Speaker3.jpg,Images/Speaker4.jpg,Audio/Speaker3_Per/P3-11-Per.wav,Speaker3,گوینده۳,,,,,,,,,0,29,29,50,499.6249264170001,,,,,,,,,,,,,,,,,,,,,,,,,,,,,,,,,,,,,,,,,,,,,,,,,,,,,,,,,,,,,,,,,,,,,,,,,,,,,,,,,,,,,,,,,,,,,,,,,,,,,,,,,,,,499.59924045799926,499.6249264170001,499.6249264170001,499.6249264170001,499.6249264170001,499.6276653753307,499.6249264170001,499.6249264170001,501.0862972920004,3,1.4570398750001914,None,3,Images/Speaker1.jpg,Images/Speaker2.jpg,Images/Speaker3.jpg,Images/Speaker4.jpg,Audio/Speaker3_Per/P3-11-Per.wav,Speaker1,گوینده ۱,,,,,820119,001,2024-08-04_13h57.26.879,5-34 ready-monolingual persian speaker,2024.1.5,None,2024-08-04 13h57.31.993011 +0900,
,,,,,,,Images/Speaker1.jpg,Images/Speaker2.jpg,Images/Speaker3.jpg,Images/Speaker4.jpg,Audio/Speaker2_Per/P2-6-Per.wav,Speaker2,گوینده۲,,,,,,,,,0,30,30,25,501.11512870799925,,,,,,,,,,,,,,,,,,,,,,,,,,,,,,,,,,,,,,,,,,,,,,,,,,,,,,,,,,,,,,,,,,,,,,,,,,,,,,,,,,,,,,,,,,,,,,,,,,,,,,,,,,,,501.09049779199995,501.11512870799925,501.11512870799925,501.11512870799925,501.11512870799925,501.1188699583331,501.11512870799925,501.11512870799925,502.3779204169987,2,1.2550324160001765,None,2,Images/Speaker1.jpg,Images/Speaker2.jpg,Images/Speaker3.jpg,Images/Speaker4.jpg,Audio/Speaker2_Per/P2-6-Per.wav,Speaker1,گوینده ۱,,,,,820119,001,2024-08-04_13h57.26.879,5-34 ready-monolingual persian speaker,2024.1.5,None,2024-08-04 13h57.31.993011 +0900,
,,,,,,,Images/Speaker1.jpg,Images/Speaker2.jpg,Images/Speaker3.jpg,Images/Speaker4.jpg,Audio/Speaker1_Per/P1-20-Per.wav,Speaker1,گوینده ۱,,,,,,,,,0,31,31,19,502.4049410000007,,,,,,,,,,,,,,,,,,,,,,,,,,,,,,,,,,,,,,,,,,,,,,,,,,,,,,,,,,,,,,,,,,,,,,,,,,,,,,,,,,,,,,,,,,,,,,,,,,,,,,,,,,,,502.3820577080005,502.4049410000007,502.4049410000007,502.4049410000007,502.4049410000007,502.41043029133334,502.4049410000007,502.4049410000007,504.16312758300046,1,1.7510605419993226,None,1,Images/Speaker1.jpg,Images/Speaker2.jpg,Images/Speaker3.jpg,Images/Speaker4.jpg,Audio/Speaker1_Per/P1-20-Per.wav,Speaker1,گوینده ۱,,,,,820119,001,2024-08-04_13h57.26.879,5-34 ready-monolingual persian speaker,2024.1.5,None,2024-08-04 13h57.31.993011 +0900,
,,,,,,,Images/Speaker1.jpg,Images/Speaker2.jpg,Images/Speaker3.jpg,Images/Speaker4.jpg,Audio/Speaker3_Per/P3-4-Per.wav,Speaker3,گوینده۳,,,,,,,,,0,32,32,43,504.1932951669987,,,,,,,,,,,,,,,,,,,,,,,,,,,,,,,,,,,,,,,,,,,,,,,,,,,,,,,,,,,,,,,,,,,,,,,,,,,,,,,,,,,,,,,,,,,,,,,,,,,,,,,,,,,,504.16870512499736,504.1932951669987,504.1932951669987,504.1932951669987,504.1932951669987,504.1956764583306,504.1932951669987,504.1932951669987,505.85950795799727,3,1.6597190410029725,None,3,Images/Speaker1.jpg,Images/Speaker2.jpg,Images/Speaker3.jpg,Images/Speaker4.jpg,Audio/Speaker3_Per/P3-4-Per.wav,Speaker1,گوینده ۱,,,,,820119,001,2024-08-04_13h57.26.879,5-34 ready-monolingual persian speaker,2024.1.5,None,2024-08-04 13h57.31.993011 +0900,
,,,,,,,Images/Speaker1.jpg,Images/Speaker2.jpg,Images/Speaker3.jpg,Images/Speaker4.jpg,Audio/Speaker2_Per/P2-9-Per.wav,Speaker2,گوینده۲,,,,,,,,,0,33,33,28,505.8897126669981,,,,,,,,,,,,,,,,,,,,,,,,,,,,,,,,,,,,,,,,,,,,,,,,,,,,,,,,,,,,,,,,,,,,,,,,,,,,,,,,,,,,,,,,,,,,,,,,,,,,,,,,,,,,505.86466641699735,505.8897126669981,505.8897126669981,505.8897126669981,505.8897126669981,505.89208416633164,505.8897126669981,505.8897126669981,507.10457224999845,2,1.2075515830001677,None,2,Images/Speaker1.jpg,Images/Speaker2.jpg,Images/Speaker3.jpg,Images/Speaker4.jpg,Audio/Speaker2_Per/P2-9-Per.wav,Speaker1,گوینده ۱,,,,,820119,001,2024-08-04_13h57.26.879,5-34 ready-monolingual persian speaker,2024.1.5,None,2024-08-04 13h57.31.993011 +0900,
,,,,,,,Images/Speaker1.jpg,Images/Speaker2.jpg,Images/Speaker3.jpg,Images/Speaker4.jpg,Audio/Speaker1_Per/P1-8-Per.wav,Speaker1,گوینده ۱,,,,,,,,,0,34,34,7,507.1310905829996,,,,,,,,,,,,,,,,,,,,,,,,,,,,,,,,,,,,,,,,,,,,,,,,,,,,,,,,,,,,,,,,,,,,,,,,,,,,,,,,,,,,,,,,,,,,,,,,,,,,,,,,,,,,507.1089414169983,507.1310905829996,507.1310905829996,507.1310905829996,507.1310905829996,507.1370137083327,507.1310905829996,507.1310905829996,508.7481614999997,1,1.604714541001158,None,1,Images/Speaker1.jpg,Images/Speaker2.jpg,Images/Speaker3.jpg,Images/Speaker4.jpg,Audio/Speaker1_Per/P1-8-Per.wav,Speaker1,گوینده ۱,,,,,820119,001,2024-08-04_13h57.26.879,5-34 ready-monolingual persian speaker,2024.1.5,None,2024-08-04 13h57.31.993011 +0900,
,,,,,,,Images/Speaker1.jpg,Images/Speaker2.jpg,Images/Speaker3.jpg,Images/Speaker4.jpg,Audio/Speaker4_Per/P4-10-Per.wav,Speaker4,گوینده۴,,,,,,,,,0,35,35,69,508.77581791699777,,,,,,,,,,,,,,,,,,,,,,,,,,,,,,,,,,,,,,,,,,,,,,,,,,,,,,,,,,,,,,,,,,,,,,,,,,,,,,,,,,,,,,,,,,,,,,,,,,,,,,,,,,,,508.7521176249975,508.77581791699777,508.77581791699777,508.77581791699777,508.77581791699777,508.78068412533366,508.77581791699777,508.77581791699777,510.48833383300007,4,1.7046377080005186,None,4,Images/Speaker1.jpg,Images/Speaker2.jpg,Images/Speaker3.jpg,Images/Speaker4.jpg,Audio/Speaker4_Per/P4-10-Per.wav,Speaker1,گوینده ۱,,,,,820119,001,2024-08-04_13h57.26.879,5-34 ready-monolingual persian speaker,2024.1.5,None,2024-08-04 13h57.31.993011 +0900,
,,,,,,,Images/Speaker1.jpg,Images/Speaker2.jpg,Images/Speaker3.jpg,Images/Speaker4.jpg,Audio/Speaker2_Per/P2-4-Per.wav,Speaker2,گوینده۲,,,,,,,,,0,36,36,23,510.5138589169983,,,,,,,,,,,,,,,,,,,,,,,,,,,,,,,,,,,,,,,,,,,,,,,,,,,,,,,,,,,,,,,,,,,,,,,,,,,,,,,,,,,,,,,,,,,,,,,,,,,,,,,,,,,,510.4924105829996,510.5138589169983,510.5138589169983,510.5138589169983,510.5138589169983,510.5207416663329,510.5138589169983,510.5138589169983,511.8839079579993,2,1.36848183300026,None,2,Images/Speaker1.jpg,Images/Speaker2.jpg,Images/Speaker3.jpg,Images/Speaker4.jpg,Audio/Speaker2_Per/P2-4-Per.wav,Speaker1,گوینده ۱,,,,,820119,001,2024-08-04_13h57.26.879,5-34 ready-monolingual persian speaker,2024.1.5,None,2024-08-04 13h57.31.993011 +0900,
,,,,,,,Images/Speaker1.jpg,Images/Speaker2.jpg,Images/Speaker3.jpg,Images/Speaker4.jpg,Audio/Speaker3_Per/P3-19-Per.wav,Speaker3,گوینده۳,,,,,,,,,0,37,37,58,511.9111125419986,,,,,,,,,,,,,,,,,,,,,,,,,,,,,,,,,,,,,,,,,,,,,,,,,,,,,,,,,,,,,,,,,,,,,,,,,,,,,,,,,,,,,,,,,,,,,,,,,,,,,,,,,,,,511.88797629200053,511.9111125419986,511.9111125419986,511.9111125419986,511.9111125419986,511.9163911663313,511.9111125419986,511.9111125419986,513.1542502919983,3,1.2403026669999235,None,3,Images/Speaker1.jpg,Images/Speaker2.jpg,Images/Speaker3.jpg,Images/Speaker4.jpg,Audio/Speaker3_Per/P3-19-Per.wav,Speaker1,گوینده ۱,,,,,820119,001,2024-08-04_13h57.26.879,5-34 ready-monolingual persian speaker,2024.1.5,None,2024-08-04 13h57.31.993011 +0900,
,,,,,,,Images/Speaker1.jpg,Images/Speaker2.jpg,Images/Speaker3.jpg,Images/Speaker4.jpg,Audio/Speaker1_Per/P1-3-Per.wav,Speaker1,گوینده ۱,,,,,,,,,0,38,38,2,513.1810523329987,,,,,,,,,,,,,,,,,,,,,,,,,,,,,,,,,,,,,,,,,,,,,,,,,,,,,,,,,,,,,,,,,,,,,,,,,,,,,,,,,,,,,,,,,,,,,,,,,,,,,,,,,,,,513.1583784579998,513.1810523329987,513.1810523329987,513.1810523329987,513.1810523329987,513.185094791334,513.1810523329987,513.1810523329987,514.3806205830006,1,1.1891308750018652,None,1,Images/Speaker1.jpg,Images/Speaker2.jpg,Images/Speaker3.jpg,Images/Speaker4.jpg,Audio/Speaker1_Per/P1-3-Per.wav,Speaker1,گوینده ۱,,,,,820119,001,2024-08-04_13h57.26.879,5-34 ready-monolingual persian speaker,2024.1.5,None,2024-08-04 13h57.31.993011 +0900,
,,,,,,,Images/Speaker1.jpg,Images/Speaker2.jpg,Images/Speaker3.jpg,Images/Speaker4.jpg,Audio/Speaker2_Per/P2-2-Per.wav,Speaker2,گوینده۲,,,,,,,,,0,39,39,21,514.4091775419984,,,,,,,,,,,,,,,,,,,,,,,,,,,,,,,,,,,,,,,,,,,,,,,,,,,,,,,,,,,,,,,,,,,,,,,,,,,,,,,,,,,,,,,,,,,,,,,,,,,,,,,,,,,,514.3846048749983,514.4091775419984,514.4091775419984,514.4091775419984,514.4091775419984,514.4102782083323,514.4091775419984,514.4091775419984,515.6371787079988,2,1.2259767499999725,None,2,Images/Speaker1.jpg,Images/Speaker2.jpg,Images/Speaker3.jpg,Images/Speaker4.jpg,Audio/Speaker2_Per/P2-2-Per.wav,Speaker1,گوینده ۱,,,,,820119,001,2024-08-04_13h57.26.879,5-34 ready-monolingual persian speaker,2024.1.5,None,2024-08-04 13h57.31.993011 +0900,
,,,,,,,Images/Speaker1.jpg,Images/Speaker2.jpg,Images/Speaker3.jpg,Images/Speaker4.jpg,Audio/Speaker3_Per/P3-20-Per.wav,Speaker3,گوینده۳,,,,,,,,,0,40,40,59,515.6643568750005,,,,,,,,,,,,,,,,,,,,,,,,,,,,,,,,,,,,,,,,,,,,,,,,,,,,,,,,,,,,,,,,,,,,,,,,,,,,,,,,,,,,,,,,,,,,,,,,,,,,,,,,,,,,515.6414003749996,515.6643568750005,515.6643568750005,515.6643568750005,515.6643568750005,515.6697760833308,515.6643568750005,515.6643568750005,517.1233407079999,3,1.4492636670001957,None,3,Images/Speaker1.jpg,Images/Speaker2.jpg,Images/Speaker3.jpg,Images/Speaker4.jpg,Audio/Speaker3_Per/P3-20-Per.wav,Speaker1,گوینده ۱,,,,,820119,001,2024-08-04_13h57.26.879,5-34 ready-monolingual persian speaker,2024.1.5,None,2024-08-04 13h57.31.993011 +0900,
,,,,,,,Images/Speaker1.jpg,Images/Speaker2.jpg,Images/Speaker3.jpg,Images/Speaker4.jpg,Audio/Speaker3_Per/P3-10-Per.wav,Speaker3,گوینده۳,,,,,,,,,0,41,41,49,517.1512133329998,,,,,,,,,,,,,,,,,,,,,,,,,,,,,,,,,,,,,,,,,,,,,,,,,,,,,,,,,,,,,,,,,,,,,,,,,,,,,,,,,,,,,,,,,,,,,,,,,,,,,,,,,,,,517.1274532499992,517.1512133329998,517.1512133329998,517.1512133329998,517.1512133329998,517.1543157503334,517.1512133329998,517.1512133329998,518.3677212500006,3,1.2082360829990648,None,3,Images/Speaker1.jpg,Images/Speaker2.jpg,Images/Speaker3.jpg,Images/Speaker4.jpg,Audio/Speaker3_Per/P3-10-Per.wav,Speaker1,گوینده ۱,,,,,820119,001,2024-08-04_13h57.26.879,5-34 ready-monolingual persian speaker,2024.1.5,None,2024-08-04 13h57.31.993011 +0900,
,,,,,,,Images/Speaker1.jpg,Images/Speaker2.jpg,Images/Speaker3.jpg,Images/Speaker4.jpg,Audio/Speaker1_Per/P1-7-Per.wav,Speaker1,گوینده ۱,,,,,,,,,0,42,42,6,518.3930017919993,,,,,,,,,,,,,,,,,,,,,,,,,,,,,,,,,,,,,,,,,,,,,,,,,,,,,,,,,,,,,,,,,,,,,,,,,,,,,,,,,,,,,,,,,,,,,,,,,,,,,,,,,,,,518.371833666999,518.3930017919993,518.3930017919993,518.3930017919993,518.3930017919993,518.4001921253334,518.3930017919993,518.3930017919993,519.553135416998,1,1.1482188330010104,None,1,Images/Speaker1.jpg,Images/Speaker2.jpg,Images/Speaker3.jpg,Images/Speaker4.jpg,Audio/Speaker1_Per/P1-7-Per.wav,Speaker1,گوینده ۱,,,,,820119,001,2024-08-04_13h57.26.879,5-34 ready-monolingual persian speaker,2024.1.5,None,2024-08-04 13h57.31.993011 +0900,
,,,,,,,Images/Speaker1.jpg,Images/Speaker2.jpg,Images/Speaker3.jpg,Images/Speaker4.jpg,Audio/Speaker3_Per/P3-9-Per.wav,Speaker3,گوینده۳,,,,,,,,,0,43,43,48,519.5762727919973,,,,,,,,,,,,,,,,,,,,,,,,,,,,,,,,,,,,,,,,,,,,,,,,,,,,,,,,,,,,,,,,,,,,,,,,,,,,,,,,,,,,,,,,,,,,,,,,,,,,,,,,,,,,519.5574497079979,519.5762727919973,519.5762727919973,519.5762727919973,519.5762727919973,519.5856897503331,519.5762727919973,519.5762727919973,520.8025175420007,3,1.222118292000232,None,3,Images/Speaker1.jpg,Images/Speaker2.jpg,Images/Speaker3.jpg,Images/Speaker4.jpg,Audio/Speaker3_Per/P3-9-Per.wav,Speaker1,گوینده ۱,,,,,820119,001,2024-08-04_13h57.26.879,5-34 ready-monolingual persian speaker,2024.1.5,None,2024-08-04 13h57.31.993011 +0900,
