SpeakerImage1,SpeakerImage2,SpeakerImage3,SpeakerImage4,TrainingSound,EnglishCorrectAnswer,PersianCorrectAnswer,TrainingLoopGroup1.thisRepN,TrainingLoopGroup1.thisTrialN,TrainingLoopGroup1.thisN,TrainingLoopGroup1.thisIndex,TrainingLoopGroup2.thisRepN,TrainingLoopGroup2.thisTrialN,TrainingLoopGroup2.thisN,TrainingLoopGroup2.thisIndex,Repeat_TrainingLoopGroup3.thisRepN,Repeat_TrainingLoopGroup3.thisTrialN,Repeat_TrainingLoopGroup3.thisN,Repeat_TrainingLoopGroup3.thisIndex,TrainingLoopGroup3.thisRepN,TrainingLoopGroup3.thisTrialN,TrainingLoopGroup3.thisN,TrainingLoopGroup3.thisIndex,thisRow.t,notes,trial.started,trial.stopped,GroupSelection.started,GroupInstructions.started,key_resp.started,GroupSelection.stopped,key_resp.keys,key_resp.rt,key_resp.duration,Introduction.started,text_2.started,image.started,sound_7.started,text_4.started,text_2.stopped,sound_8.started,image.stopped,text_4.stopped,image_7.started,sound_9.started,text_5.started,sound_10.started,image_7.stopped,text_5.stopped,image_8.started,sound_11.started,text_6.started,sound_12.started,image_8.stopped,text_6.stopped,image_9.started,sound_13.started,text_7.started,sound_14.started,image_9.stopped,text_7.stopped,Introduction.stopped,Instructions.started,InstructionText.started,InstructionText.stopped,Instructions.stopped,InitializeExperiment.started,InitializeExperiment.stopped,TrainingGroup3.started,SpeakerPicture3.started,image_15.started,image_16.started,image_17.started,Sound3.started,Instruction3.started,Response3.started,TrainingGroup3.stopped,feedbackText,correct_responses_group3,total_trials_group3,Response3.keys,Response3.rt,Response3.duration,FeedbackRoutine3.started,FeedbackText3.started,FeedbackRoutine3.stopped,FeedbackText3.stopped,CheckAccuracy3.started,CheckAccuracy3.stopped,participant,session,date,expName,psychopyVersion,frameRate,expStart,
,,,,,,,,,,,,,,,,,,,,,,,,,0.00926370799788856,0.01330745800078148,,,,,,,,,,,,,,,,,,,,,,,,,,,,,,,,,,,,,,,,,,,,,,,,,,,,,,,,,,,,,,,825309,001,2024-07-01_20h41.28.338,5-26,2024.1.4,None,2024-07-01 20h41.33.325602 +0900,
,,,,,,,,,,,,,,,,,,,,,,,,,,,0.01333258299928275,0.018415082999126753,0.018415082999126753,1.3317542910008342,3,1.278631541001232,None,,,,,,,,,,,,,,,,,,,,,,,,,,,,,,,,,,,,,,,,,,,,,,,,,,,,,,,,825309,001,2024-07-01_20h41.28.338,5-26,2024.1.4,None,2024-07-01 20h41.33.325602 +0900,
,,,,,,,,,,,,,,,,,,,,,,,,,,,,,,,,,,1.3317814580004779,1.397862375000841,6.323712000001251,6.3335136666649,6.323712000001251,6.3901897499999905,11.33579470766587,16.31690145799803,16.31690145799803,16.329734208000446,16.333568124664694,16.329734208000446,21.33303466666645,26.323513332998118,26.323513332998118,26.323513332998118,26.334817041665033,26.323513332998118,31.343613416666145,36.321565665999515,36.321565665999515,36.326672625000356,36.33823233266618,36.326672625000356,41.33100824966483,46.31473895800082,46.31473895800082,46.312319124997885,,,,,,,,,,,,,,,,,,,,,,,,,,,,825309,001,2024-07-01_20h41.28.338,5-26,2024.1.4,None,2024-07-01 20h41.33.325602 +0900,
,,,,,,,,,,,,,,,,,,,,,,,,,,,,,,,,,,,,,,,,,,,,,,,,,,,,,,,,,,,,,,46.31233458299903,46.3295188330012,47.41859633299828,47.318872915999236,,,,,,,,,,,,,,,,,,,,,,,,825309,001,2024-07-01_20h41.28.338,5-26,2024.1.4,None,2024-07-01 20h41.33.325602 +0900,
,,,,,,,,,,,,,,,,,,,,,,,,,,,,,,,,,,,,,,,,,,,,,,,,,,,,,,,,,,,,,,,,,,47.31891041600102,47.31930516599823,,,,,,,,,,,,,,,,,,,,,,825309,001,2024-07-01_20h41.28.338,5-26,2024.1.4,None,2024-07-01 20h41.33.325602 +0900,
Images/Speaker1.jpg,Images/Speaker2.jpg,Images/Speaker3.jpg,Images/Speaker4.jpg,Audio/Speaker1_En/P1-5-En.wav,Speaker1,گوینده ۱,,,,,,,,,0,0,0,4,0,0,0,4,47.41859633299828,,,,,,,,,,,,,,,,,,,,,,,,,,,,,,,,,,,,,,,,,,,,,47.39304720799919,47.41859633299828,47.41859633299828,47.41859633299828,47.41859633299828,47.41829958299932,47.41859633299828,47.41859633299828,48.89478487499946,Correct! صحیح است,0,2,1,1.4695570420008153,None,48.898986083000636,48.91180095799791,50.899264540999866,,,,825309,001,2024-07-01_20h41.28.338,5-26,2024.1.4,None,2024-07-01 20h41.33.325602 +0900,
Images/Speaker1.jpg,Images/Speaker2.jpg,Images/Speaker3.jpg,Images/Speaker4.jpg,Audio/Speaker4_En/P4-17-En.wav,Speaker4,گوینده۴,,,,,,,,,0,0,0,4,0,1,1,76,50.92250941599923,,,,,,,,,,,,,,,,,,,,,,,,,,,,,,,,,,,,,,,,,,,,,50.899445040999126,50.92250941599923,50.92250941599923,50.92250941599923,50.92250941599923,50.91589512466477,50.92250941599923,50.92250941599923,51.2500826659998,Incorrect! The correct answer is Speaker4. نادرست! پاسخ صحیح گوینده۴ است,0,4,1,0.32606179199865437,None,51.254337207999924,51.27343962499799,53.2550310000006,,,,825309,001,2024-07-01_20h41.28.338,5-26,2024.1.4,None,2024-07-01 20h41.33.325602 +0900,
Images/Speaker1.jpg,Images/Speaker2.jpg,Images/Speaker3.jpg,Images/Speaker4.jpg,Audio/Speaker2_En/P2-3-En.wav,Speaker2,گوینده۲,,,,,,,,,0,0,0,4,0,2,2,22,53.27768845799801,,,,,,,,,,,,,,,,,,,,,,,,,,,,,,,,,,,,,,,,,,,,,53.25520095799948,53.27768845799801,53.27768845799801,53.27768845799801,53.27768845799801,53.27165883266595,53.27768845799801,53.27768845799801,53.569522582998616,Incorrect! The correct answer is Speaker2. نادرست! پاسخ صحیح گوینده۲ است,0,6,1,0.2861918750022596,None,53.573691875000804,53.58644604100118,55.57207179100078,55.59741670799849,,,825309,001,2024-07-01_20h41.28.338,5-26,2024.1.4,None,2024-07-01 20h41.33.325602 +0900,
Images/Speaker1.jpg,Images/Speaker2.jpg,Images/Speaker3.jpg,Images/Speaker4.jpg,Audio/Speaker1_En/P1-15-En.wav,Speaker1,گوینده ۱,,,,,,,,,0,0,0,4,0,3,3,14,55.59741670799849,,,,,,,,,,,,,,,,,,,,,,,,,,,,,,,,,,,,,,,,,,,,,55.57306270800109,55.59741670799849,55.59741670799849,55.59741670799849,55.59741670799849,55.60456816633135,55.59741670799849,55.59741670799849,55.759593915998266,Correct! صحیح است,0,8,1,0.15960999999879277,None,55.763666165999894,55.77598079100062,57.76279770800102,57.79037912499916,,,825309,001,2024-07-01_20h41.28.338,5-26,2024.1.4,None,2024-07-01 20h41.33.325602 +0900,
Images/Speaker1.jpg,Images/Speaker2.jpg,Images/Speaker3.jpg,Images/Speaker4.jpg,Audio/Speaker3_En/P3-8-En.wav,Speaker3,گوینده۳,,,,,,,,,0,0,0,4,0,4,4,47,57.79037912499916,,,,,,,,,,,,,,,,,,,,,,,,,,,,,,,,,,,,,,,,,,,,,57.76347241599797,57.79037912499916,57.79037912499916,57.79037912499916,57.79037912499916,57.79526524933365,57.79037912499916,57.79037912499916,57.79094695800086,Incorrect! The correct answer is Speaker3. نادرست! پاسخ صحیح گوینده۳ است,0,10,1,2.16773749999993,None,57.79117366599894,57.80081816600068,59.785997124999994,59.81244483299815,,,825309,001,2024-07-01_20h41.28.338,5-26,2024.1.4,None,2024-07-01 20h41.33.325602 +0900,
Images/Speaker1.jpg,Images/Speaker2.jpg,Images/Speaker3.jpg,Images/Speaker4.jpg,Audio/Speaker3_En/P3-13-En.wav,Speaker3,گوینده۳,,,,,,,,,0,0,0,4,0,5,5,52,59.81244483299815,,,,,,,,,,,,,,,,,,,,,,,,,,,,,,,,,,,,,,,,,,,,,59.78623349999907,59.81244483299815,59.81244483299815,59.81244483299815,59.81244483299815,59.81847562433225,59.81244483299815,59.81244483299815,59.813061041000765,Incorrect! The correct answer is Speaker3. نادرست! پاسخ صحیح گوینده۳ است,0,12,1,1.9939893329974439,None,59.81337200000053,59.82338645799973,61.81098204099908,61.834250125000835,,,825309,001,2024-07-01_20h41.28.338,5-26,2024.1.4,None,2024-07-01 20h41.33.325602 +0900,
Images/Speaker1.jpg,Images/Speaker2.jpg,Images/Speaker3.jpg,Images/Speaker4.jpg,Audio/Speaker1_En/P1-19-En.wav,Speaker1,گوینده ۱,,,,,,,,,0,0,0,4,0,6,6,18,61.834250125000835,,,,,,,,,,,,,,,,,,,,,,,,,,,,,,,,,,,,,,,,,,,,,61.8111750829994,61.834250125000835,61.834250125000835,61.834250125000835,61.834250125000835,61.844080624331156,61.834250125000835,61.834250125000835,61.83478000000105,Correct! صحیح است,0,14,1,1.9557654579984955,None,61.83525258300142,61.84379883300062,63.832645165999566,63.8574780409981,,,825309,001,2024-07-01_20h41.28.338,5-26,2024.1.4,None,2024-07-01 20h41.33.325602 +0900,
Images/Speaker1.jpg,Images/Speaker2.jpg,Images/Speaker3.jpg,Images/Speaker4.jpg,Audio/Speaker1_En/P1-9-En.wav,Speaker1,گوینده ۱,,,,,,,,,0,0,0,4,0,7,7,8,63.8574780409981,,,,,,,,,,,,,,,,,,,,,,,,,,,,,,,,,,,,,,,,,,,,,63.833596874999785,63.8574780409981,63.8574780409981,63.8574780409981,63.8574780409981,63.86486737433418,63.8574780409981,63.8574780409981,63.998819374999584,Correct! صحیح است,0,16,1,None,None,64.0028869159978,64.01224062500114,66.00783679099914,,,,825309,001,2024-07-01_20h41.28.338,5-26,2024.1.4,None,2024-07-01 20h41.33.325602 +0900,
Images/Speaker1.jpg,Images/Speaker2.jpg,Images/Speaker3.jpg,Images/Speaker4.jpg,Audio/Speaker2_En/P2-10-En.wav,Speaker2,گوینده۲,,,,,,,,,0,0,0,4,0,8,8,29,66.03064320799967,,,,,,,,,,,,,,,,,,,,,,,,,,,,,,,,,,,,,,,,,,,,,66.00805170799867,66.03064320799967,66.03064320799967,66.03064320799967,66.03064320799967,66.02447037466506,66.03064320799967,66.03064320799967,66.36200233300042,Incorrect! The correct answer is Speaker2. نادرست! پاسخ صحیح گوینده۲ است,0,18,1,0.32299083399993833,None,66.365954375,66.37881862499853,68.36256845800017,68.38650954100012,,,825309,001,2024-07-01_20h41.28.338,5-26,2024.1.4,None,2024-07-01 20h41.33.325602 +0900,
Images/Speaker1.jpg,Images/Speaker2.jpg,Images/Speaker3.jpg,Images/Speaker4.jpg,Audio/Speaker2_En/P2-2-En.wav,Speaker2,گوینده۲,,,,,,,,,0,0,0,4,0,9,9,21,68.38650954100012,,,,,,,,,,,,,,,,,,,,,,,,,,,,,,,,,,,,,,,,,,,,,68.36276570799964,68.38650954100012,68.38650954100012,68.38650954100012,68.38650954100012,68.39567987433159,68.38650954100012,68.38650954100012,68.42363316599949,Incorrect! The correct answer is Speaker2. نادرست! پاسخ صحیح گوینده۲ است,0,20,1,0.036086416999751236,None,68.42749579099836,68.4394805410011,70.4310528749993,,,,825309,001,2024-07-01_20h41.28.338,5-26,2024.1.4,None,2024-07-01 20h41.33.325602 +0900,
Images/Speaker1.jpg,Images/Speaker2.jpg,Images/Speaker3.jpg,Images/Speaker4.jpg,Audio/Speaker2_En/P2-17-En.wav,Speaker2,گوینده۲,,,,,,,,,0,0,0,4,0,10,10,36,70.45657537499937,,,,,,,,,,,,,,,,,,,,,,,,,,,,,,,,,,,,,,,,,,,,,70.43160012500084,70.45657537499937,70.45657537499937,70.45657537499937,70.45657537499937,70.46422699933149,70.45657537499937,70.45657537499937,70.7201877080006,Incorrect! The correct answer is Speaker2. نادرست! پاسخ صحیح گوینده۲ است,0,22,1,0.26250833299855003,None,70.72407791599835,70.736907333001,72.72122149999996,72.74464687499858,,,825309,001,2024-07-01_20h41.28.338,5-26,2024.1.4,None,2024-07-01 20h41.33.325602 +0900,
Images/Speaker1.jpg,Images/Speaker2.jpg,Images/Speaker3.jpg,Images/Speaker4.jpg,Audio/Speaker3_En/P3-9-En.wav,Speaker3,گوینده۳,,,,,,,,,0,0,0,4,0,11,11,48,72.74464687499858,,,,,,,,,,,,,,,,,,,,,,,,,,,,,,,,,,,,,,,,,,,,,72.72142012499899,72.74464687499858,72.74464687499858,72.74464687499858,72.74464687499858,72.75426824933359,72.74464687499858,72.74464687499858,72.84980408299816,Incorrect! The correct answer is Speaker3. نادرست! پاسخ صحیح گوینده۳ است,0,24,1,0.10023595799793839,None,72.853995999998,72.86637779100056,74.85241108300033,74.87549883300017,,,825309,001,2024-07-01_20h41.28.338,5-26,2024.1.4,None,2024-07-01 20h41.33.325602 +0900,
Images/Speaker1.jpg,Images/Speaker2.jpg,Images/Speaker3.jpg,Images/Speaker4.jpg,Audio/Speaker4_En/P4-6-En.wav,Speaker4,گوینده۴,,,,,,,,,0,0,0,4,0,12,12,65,74.87549883300017,,,,,,,,,,,,,,,,,,,,,,,,,,,,,,,,,,,,,,,,,,,,,74.85259033300099,74.87549883300017,74.87549883300017,74.87549883300017,74.87549883300017,74.88552858333472,74.87549883300017,74.87549883300017,74.8760736660006,Incorrect! The correct answer is Speaker4. نادرست! پاسخ صحیح گوینده۴ است,0,26,1,2.052140124997095,None,74.87654941599976,74.88658608300102,76.8717839159981,76.89437741599977,,,825309,001,2024-07-01_20h41.28.338,5-26,2024.1.4,None,2024-07-01 20h41.33.325602 +0900,
Images/Speaker1.jpg,Images/Speaker2.jpg,Images/Speaker3.jpg,Images/Speaker4.jpg,Audio/Speaker1_En/P1-7-En.wav,Speaker1,گوینده ۱,,,,,,,,,0,0,0,4,0,13,13,6,76.89437741599977,,,,,,,,,,,,,,,,,,,,,,,,,,,,,,,,,,,,,,,,,,,,,76.87195754099957,76.89437741599977,76.89437741599977,76.89437741599977,76.89437741599977,76.88824045766547,76.89437741599977,76.89437741599977,76.92814229099895,Correct! صحیح است,0,28,1,0.03270333299951744,None,76.93189699999857,76.94311341600041,78.9316017079982,78.9557672080009,,,825309,001,2024-07-01_20h41.28.338,5-26,2024.1.4,None,2024-07-01 20h41.33.325602 +0900,
Images/Speaker1.jpg,Images/Speaker2.jpg,Images/Speaker3.jpg,Images/Speaker4.jpg,Audio/Speaker4_En/P4-13-En.wav,Speaker4,گوینده۴,,,,,,,,,0,0,0,4,0,14,14,72,78.9557672080009,,,,,,,,,,,,,,,,,,,,,,,,,,,,,,,,,,,,,,,,,,,,,78.93177154099976,78.9557672080009,78.9557672080009,78.9557672080009,78.9557672080009,78.96471870833241,78.9557672080009,78.9557672080009,79.31473029100016,Incorrect! The correct answer is Speaker4. نادرست! پاسخ صحیح گوینده۴ است,0,30,1,0.35208308399887756,None,79.31854954099981,79.32917191600063,81.31539541600068,81.3403199159984,,,825309,001,2024-07-01_20h41.28.338,5-26,2024.1.4,None,2024-07-01 20h41.33.325602 +0900,
Images/Speaker1.jpg,Images/Speaker2.jpg,Images/Speaker3.jpg,Images/Speaker4.jpg,Audio/Speaker3_En/P3-11-En.wav,Speaker3,گوینده۳,,,,,,,,,0,0,0,4,0,15,15,50,81.3403199159984,,,,,,,,,,,,,,,,,,,,,,,,,,,,,,,,,,,,,,,,,,,,,81.31561024999974,81.3403199159984,81.3403199159984,81.3403199159984,81.3403199159984,81.34813149933373,81.3403199159984,81.3403199159984,82.79440204099956,Incorrect! The correct answer is Speaker3. نادرست! پاسخ صحیح گوینده۳ است,0,32,1,1.4521030420000898,None,82.79916479099847,82.8137699580002,84.7995892910003,,,,825309,001,2024-07-01_20h41.28.338,5-26,2024.1.4,None,2024-07-01 20h41.33.325602 +0900,
Images/Speaker1.jpg,Images/Speaker2.jpg,Images/Speaker3.jpg,Images/Speaker4.jpg,Audio/Speaker3_En/P3-3-En.wav,Speaker3,گوینده۳,,,,,,,,,0,0,0,4,0,16,16,42,84.82764058300017,,,,,,,,,,,,,,,,,,,,,,,,,,,,,,,,,,,,,,,,,,,,,84.80025699999896,84.82764058300017,84.82764058300017,84.82764058300017,84.82764058300017,84.83272658333274,84.82764058300017,84.82764058300017,85.60991891600133,Incorrect! The correct answer is Speaker3. نادرست! پاسخ صحیح گوینده۳ است,0,34,1,0.7752715000024182,None,85.61380945799829,85.62750104099905,87.61249229099849,87.6377000829998,,,825309,001,2024-07-01_20h41.28.338,5-26,2024.1.4,None,2024-07-01 20h41.33.325602 +0900,
Images/Speaker1.jpg,Images/Speaker2.jpg,Images/Speaker3.jpg,Images/Speaker4.jpg,Audio/Speaker2_En/P2-18-En.wav,Speaker2,گوینده۲,,,,,,,,,0,0,0,4,0,17,17,37,87.6377000829998,,,,,,,,,,,,,,,,,,,,,,,,,,,,,,,,,,,,,,,,,,,,,87.61321033299828,87.6377000829998,87.6377000829998,87.6377000829998,87.6377000829998,87.64508024933141,87.6377000829998,87.6377000829998,87.72176424999998,Incorrect! The correct answer is Speaker2. نادرست! پاسخ صحیح گوینده۲ است,0,36,1,0.07971945900135324,None,87.72598741600086,87.73849320799854,89.72269066599983,89.74553204100084,,,825309,001,2024-07-01_20h41.28.338,5-26,2024.1.4,None,2024-07-01 20h41.33.325602 +0900,
Images/Speaker1.jpg,Images/Speaker2.jpg,Images/Speaker3.jpg,Images/Speaker4.jpg,Audio/Speaker2_En/P2-13-En.wav,Speaker2,گوینده۲,,,,,,,,,0,0,0,4,0,18,18,32,89.74553204100084,,,,,,,,,,,,,,,,,,,,,,,,,,,,,,,,,,,,,,,,,,,,,89.72286866599825,89.74553204100084,89.74553204100084,89.74553204100084,89.74553204100084,89.75579241633434,89.74553204100084,89.74553204100084,89.74608924999848,Incorrect! The correct answer is Speaker2. نادرست! پاسخ صحیح گوینده۲ است,0,38,1,2.0493621669993445,None,89.74629962499966,89.75576116600132,91.74207983299857,91.7682966249995,,,825309,001,2024-07-01_20h41.28.338,5-26,2024.1.4,None,2024-07-01 20h41.33.325602 +0900,
Images/Speaker1.jpg,Images/Speaker2.jpg,Images/Speaker3.jpg,Images/Speaker4.jpg,Audio/Speaker3_En/P3-17-En.wav,Speaker3,گوینده۳,,,,,,,,,0,0,0,4,0,19,19,56,91.7682966249995,,,,,,,,,,,,,,,,,,,,,,,,,,,,,,,,,,,,,,,,,,,,,91.74289495799894,91.7682966249995,91.7682966249995,91.7682966249995,91.7682966249995,91.77450512433327,91.7682966249995,91.7682966249995,91.76891083299779,Incorrect! The correct answer is Speaker3. نادرست! پاسخ صحیح گوینده۳ است,0,40,1,1.9140330000009271,None,91.76911991599991,91.77916991600068,93.7628244999978,93.78555958300058,,,825309,001,2024-07-01_20h41.28.338,5-26,2024.1.4,None,2024-07-01 20h41.33.325602 +0900,
Images/Speaker1.jpg,Images/Speaker2.jpg,Images/Speaker3.jpg,Images/Speaker4.jpg,Audio/Speaker3_En/P3-18-En.wav,Speaker3,گوینده۳,,,,,,,,,0,0,0,4,0,20,20,57,93.78555958300058,,,,,,,,,,,,,,,,,,,,,,,,,,,,,,,,,,,,,,,,,,,,,93.76298599999791,93.78555958300058,93.78555958300058,93.78555958300058,93.78555958300058,93.77920916666723,93.78555958300058,93.78555958300058,93.78611399999863,Incorrect! The correct answer is Speaker3. نادرست! پاسخ صحیح گوینده۳ است,0,42,1,1.986275958999613,None,93.78976925000097,93.79918025000006,95.78910783299943,95.81239658299819,,,825309,001,2024-07-01_20h41.28.338,5-26,2024.1.4,None,2024-07-01 20h41.33.325602 +0900,
Images/Speaker1.jpg,Images/Speaker2.jpg,Images/Speaker3.jpg,Images/Speaker4.jpg,Audio/Speaker2_En/P2-15-En.wav,Speaker2,گوینده۲,,,,,,,,,0,0,0,4,0,21,21,34,95.81239658299819,,,,,,,,,,,,,,,,,,,,,,,,,,,,,,,,,,,,,,,,,,,,,95.78930808299992,95.81239658299819,95.81239658299819,95.81239658299819,95.81239658299819,95.82221208333115,95.81239658299819,95.81239658299819,95.97962245799863,Incorrect! The correct answer is Speaker2. نادرست! پاسخ صحیح گوینده۲ است,0,44,1,0.16287499999816646,None,95.98388016600074,95.9969819580001,97.98204008299945,98.00513133300046,,,825309,001,2024-07-01_20h41.28.338,5-26,2024.1.4,None,2024-07-01 20h41.33.325602 +0900,
Images/Speaker1.jpg,Images/Speaker2.jpg,Images/Speaker3.jpg,Images/Speaker4.jpg,Audio/Speaker3_En/P3-14-En.wav,Speaker3,گوینده۳,,,,,,,,,0,0,0,4,0,22,22,53,98.00513133300046,,,,,,,,,,,,,,,,,,,,,,,,,,,,,,,,,,,,,,,,,,,,,97.98222791599983,98.00513133300046,98.00513133300046,98.00513133300046,98.00513133300046,98.01516662433326,98.00513133300046,98.00513133300046,98.06937979099894,Incorrect! The correct answer is Speaker3. نادرست! پاسخ صحیح گوینده۳ است,0,46,1,0.06300179100071546,None,98.0735557500011,98.08584754099866,100.0741620000008,100.10027170800095,,,825309,001,2024-07-01_20h41.28.338,5-26,2024.1.4,None,2024-07-01 20h41.33.325602 +0900,
Images/Speaker1.jpg,Images/Speaker2.jpg,Images/Speaker3.jpg,Images/Speaker4.jpg,Audio/Speaker4_En/P4-14-En.wav,Speaker4,گوینده۴,,,,,,,,,0,0,0,4,0,23,23,73,100.10027170800095,,,,,,,,,,,,,,,,,,,,,,,,,,,,,,,,,,,,,,,,,,,,,100.07471375000023,100.10027170800095,100.10027170800095,100.10027170800095,100.10027170800095,100.10664158333432,100.10027170800095,100.10027170800095,100.19137208299799,Incorrect! The correct answer is Speaker4. نادرست! پاسخ صحیح گوینده۴ است,0,48,1,0.08360083400111762,None,100.19545495800048,100.20532366599946,102.19439295800112,102.21717041599914,,,825309,001,2024-07-01_20h41.28.338,5-26,2024.1.4,None,2024-07-01 20h41.33.325602 +0900,
Images/Speaker1.jpg,Images/Speaker2.jpg,Images/Speaker3.jpg,Images/Speaker4.jpg,Audio/Speaker3_En/P3-12-En.wav,Speaker3,گوینده۳,,,,,,,,,0,0,0,4,0,24,24,51,102.21717041599914,,,,,,,,,,,,,,,,,,,,,,,,,,,,,,,,,,,,,,,,,,,,,102.19455833299799,102.21717041599914,102.21717041599914,102.21717041599914,102.21717041599914,102.21079974966803,102.21717041599914,102.21717041599914,102.21787579100055,Incorrect! The correct answer is Speaker3. نادرست! پاسخ صحیح گوینده۳ است,0,50,1,2.0000844589994813,None,102.22169524999845,102.23182337500111,104.21684812500098,104.24334499999895,,,825309,001,2024-07-01_20h41.28.338,5-26,2024.1.4,None,2024-07-01 20h41.33.325602 +0900,
Images/Speaker1.jpg,Images/Speaker2.jpg,Images/Speaker3.jpg,Images/Speaker4.jpg,Audio/Speaker4_En/P4-2-En.wav,Speaker4,گوینده۴,,,,,,,,,0,0,0,4,0,25,25,61,104.24334499999895,,,,,,,,,,,,,,,,,,,,,,,,,,,,,,,,,,,,,,,,,,,,,104.21751899999799,104.24334499999895,104.24334499999895,104.24334499999895,104.24334499999895,104.24912199933217,104.24334499999895,104.24334499999895,104.24413633299991,Incorrect! The correct answer is Speaker4. نادرست! پاسخ صحیح گوینده۴ است,0,52,1,1.913841040997795,None,104.24450083299962,104.2540392080009,106.23720879100074,106.26104045800093,,,825309,001,2024-07-01_20h41.28.338,5-26,2024.1.4,None,2024-07-01 20h41.33.325602 +0900,
Images/Speaker1.jpg,Images/Speaker2.jpg,Images/Speaker3.jpg,Images/Speaker4.jpg,Audio/Speaker1_En/P1-11-En.wav,Speaker1,گوینده ۱,,,,,,,,,0,0,0,4,0,26,26,10,106.26104045800093,,,,,,,,,,,,,,,,,,,,,,,,,,,,,,,,,,,,,,,,,,,,,106.237380999999,106.26104045800093,106.26104045800093,106.26104045800093,106.26104045800093,106.2702349163342,106.26104045800093,106.26104045800093,106.26159075000032,Correct! صحیح است,0,54,1,1.8765381669982162,None,106.26203733299917,106.27084541599834,108.25643841599958,108.27900275000138,,,825309,001,2024-07-01_20h41.28.338,5-26,2024.1.4,None,2024-07-01 20h41.33.325602 +0900,
Images/Speaker1.jpg,Images/Speaker2.jpg,Images/Speaker3.jpg,Images/Speaker4.jpg,Audio/Speaker4_En/P4-9-En.wav,Speaker4,گوینده۴,,,,,,,,,0,0,0,4,0,27,27,68,108.27900275000138,,,,,,,,,,,,,,,,,,,,,,,,,,,,,,,,,,,,,,,,,,,,,108.25659816600091,108.27900275000138,108.27900275000138,108.27900275000138,108.27900275000138,108.27288404166781,108.27900275000138,108.27900275000138,108.27959358299995,Incorrect! The correct answer is Speaker4. نادرست! پاسخ صحیح گوینده۴ است,0,56,1,1.9125459999995655,None,108.28328791599779,108.29269612500138,110.28118225000071,110.30399745799878,,,825309,001,2024-07-01_20h41.28.338,5-26,2024.1.4,None,2024-07-01 20h41.33.325602 +0900,
Images/Speaker1.jpg,Images/Speaker2.jpg,Images/Speaker3.jpg,Images/Speaker4.jpg,Audio/Speaker3_En/P3-19-En.wav,Speaker3,گوینده۳,,,,,,,,,0,0,0,4,0,28,28,58,110.30399745799878,,,,,,,,,,,,,,,,,,,,,,,,,,,,,,,,,,,,,,,,,,,,,110.28133879099914,110.30399745799878,110.30399745799878,110.30399745799878,110.30399745799878,110.29765041666566,110.30399745799878,110.30399745799878,110.55477020800026,Incorrect! The correct answer is Speaker3. نادرست! پاسخ صحیح گوینده۳ است,0,58,1,0.24303716700160294,None,110.558624082998,110.56946112500009,112.55960029099879,112.58395979099805,,,825309,001,2024-07-01_20h41.28.338,5-26,2024.1.4,None,2024-07-01 20h41.33.325602 +0900,
Images/Speaker1.jpg,Images/Speaker2.jpg,Images/Speaker3.jpg,Images/Speaker4.jpg,Audio/Speaker1_En/P1-17-En.wav,Speaker1,گوینده ۱,,,,,,,,,0,0,0,4,0,29,29,16,112.58395979099805,,,,,,,,,,,,,,,,,,,,,,,,,,,,,,,,,,,,,,,,,,,,,112.56055808299789,112.58395979099805,112.58395979099805,112.58395979099805,112.58395979099805,112.59188104133185,112.58395979099805,112.58395979099805,112.74456579099933,Correct! صحیح است,0,60,1,0.15808025000296766,None,112.74833779099936,112.75974491599845,114.7423878749978,114.76550549999956,,,825309,001,2024-07-01_20h41.28.338,5-26,2024.1.4,None,2024-07-01 20h41.33.325602 +0900,
Images/Speaker1.jpg,Images/Speaker2.jpg,Images/Speaker3.jpg,Images/Speaker4.jpg,Audio/Speaker3_En/P3-10-En.wav,Speaker3,گوینده۳,,,,,,,,,0,0,0,4,0,30,30,49,114.76550549999956,,,,,,,,,,,,,,,,,,,,,,,,,,,,,,,,,,,,,,,,,,,,,114.74258829099927,114.76550549999956,114.76550549999956,114.76550549999956,114.76550549999956,114.77551645833276,114.76550549999956,114.76550549999956,115.06951137500073,Incorrect! The correct answer is Speaker3. نادرست! پاسخ صحیح گوینده۳ است,0,62,1,0.3020815829986532,None,115.07473224999922,115.08842170799835,117.07283375000043,117.09792399999787,,,825309,001,2024-07-01_20h41.28.338,5-26,2024.1.4,None,2024-07-01 20h41.33.325602 +0900,
Images/Speaker1.jpg,Images/Speaker2.jpg,Images/Speaker3.jpg,Images/Speaker4.jpg,Audio/Speaker1_En/P1-10-En.wav,Speaker1,گوینده ۱,,,,,,,,,0,0,0,4,0,31,31,9,117.09792399999787,,,,,,,,,,,,,,,,,,,,,,,,,,,,,,,,,,,,,,,,,,,,,117.07381491599881,117.09792399999787,117.09792399999787,117.09792399999787,117.09792399999787,117.10526349933255,117.09792399999787,117.09792399999787,117.28374083299786,Correct! صحیح است,0,64,1,0.17313945799833164,None,117.28865237499849,117.30112012500103,119.28437674999805,119.30728683299822,,,825309,001,2024-07-01_20h41.28.338,5-26,2024.1.4,None,2024-07-01 20h41.33.325602 +0900,
Images/Speaker1.jpg,Images/Speaker2.jpg,Images/Speaker3.jpg,Images/Speaker4.jpg,Audio/Speaker3_En/P3-16-En.wav,Speaker3,گوینده۳,,,,,,,,,0,0,0,4,0,32,32,55,119.30728683299822,,,,,,,,,,,,,,,,,,,,,,,,,,,,,,,,,,,,,,,,,,,,,119.28457745799824,119.30728683299822,119.30728683299822,119.30728683299822,119.30728683299822,119.31750104133292,119.30728683299822,119.30728683299822,119.35542762499972,Incorrect! The correct answer is Speaker3. نادرست! پاسخ صحیح گوینده۳ است,0,66,1,0.03718220900191227,None,119.35928954100018,119.37188066599992,121.36640795800122,,,,825309,001,2024-07-01_20h41.28.338,5-26,2024.1.4,None,2024-07-01 20h41.33.325602 +0900,
Images/Speaker1.jpg,Images/Speaker2.jpg,Images/Speaker3.jpg,Images/Speaker4.jpg,Audio/Speaker4_En/P4-4-En.wav,Speaker4,گوینده۴,,,,,,,,,0,0,0,4,0,33,33,63,121.394652125,,,,,,,,,,,,,,,,,,,,,,,,,,,,,,,,,,,,,,,,,,,,,121.36704012499831,121.394652125,121.394652125,121.394652125,121.394652125,121.39955429133309,121.394652125,121.394652125,121.74439037499906,Incorrect! The correct answer is Speaker4. نادرست! پاسخ صحیح گوینده۴ است,0,68,1,0.3353756249998696,None,121.74934308299999,121.76421499999924,123.74760616599815,123.77122320800117,,,825309,001,2024-07-01_20h41.28.338,5-26,2024.1.4,None,2024-07-01 20h41.33.325602 +0900,
Images/Speaker1.jpg,Images/Speaker2.jpg,Images/Speaker3.jpg,Images/Speaker4.jpg,Audio/Speaker3_En/P3-7-En.wav,Speaker3,گوینده۳,,,,,,,,,0,0,0,4,0,34,34,46,123.77122320800117,,,,,,,,,,,,,,,,,,,,,,,,,,,,,,,,,,,,,,,,,,,,,123.7477823750014,123.77122320800117,123.77122320800117,123.77122320800117,123.77122320800117,123.78066870833257,123.77122320800117,123.77122320800117,123.79483824999988,Incorrect! The correct answer is Speaker3. نادرست! پاسخ صحیح گوینده۳ است,0,70,1,0.022259833000134677,None,123.79900733300019,123.81152904099872,125.79976583299867,125.82582108299903,,,825309,001,2024-07-01_20h41.28.338,5-26,2024.1.4,None,2024-07-01 20h41.33.325602 +0900,
Images/Speaker1.jpg,Images/Speaker2.jpg,Images/Speaker3.jpg,Images/Speaker4.jpg,Audio/Speaker2_En/P2-20-En.wav,Speaker2,گوینده۲,,,,,,,,,0,0,0,4,0,35,35,39,125.82582108299903,,,,,,,,,,,,,,,,,,,,,,,,,,,,,,,,,,,,,,,,,,,,,125.80034433299807,125.82582108299903,125.82582108299903,125.82582108299903,125.82582108299903,125.83203974933397,125.82582108299903,125.82582108299903,126.00640779099922,Incorrect! The correct answer is Speaker2. نادرست! پاسخ صحیح گوینده۲ است,0,72,1,0.17960395800037077,None,126.01118499999939,126.02474100000109,128.00953783300065,128.03309575000094,,,825309,001,2024-07-01_20h41.28.338,5-26,2024.1.4,None,2024-07-01 20h41.33.325602 +0900,
Images/Speaker1.jpg,Images/Speaker2.jpg,Images/Speaker3.jpg,Images/Speaker4.jpg,Audio/Speaker2_En/P2-4-En.wav,Speaker2,گوینده۲,,,,,,,,,0,0,0,4,0,36,36,23,128.03309575000094,,,,,,,,,,,,,,,,,,,,,,,,,,,,,,,,,,,,,,,,,,,,,128.0096946659978,128.03309575000094,128.03309575000094,128.03309575000094,128.03309575000094,128.0426510833318,128.03309575000094,128.03309575000094,128.033690207998,Incorrect! The correct answer is Speaker2. نادرست! پاسخ صحیح گوینده۲ است,0,74,1,2.1662703750007495,None,128.03399341600016,128.0435589999979,130.03078837499925,130.05447249999997,,,825309,001,2024-07-01_20h41.28.338,5-26,2024.1.4,None,2024-07-01 20h41.33.325602 +0900,
Images/Speaker1.jpg,Images/Speaker2.jpg,Images/Speaker3.jpg,Images/Speaker4.jpg,Audio/Speaker2_En/P2-6-En.wav,Speaker2,گوینده۲,,,,,,,,,0,0,0,4,0,37,37,25,130.05447249999997,,,,,,,,,,,,,,,,,,,,,,,,,,,,,,,,,,,,,,,,,,,,,130.0309758330004,130.05447249999997,130.05447249999997,130.05447249999997,130.05447249999997,130.0638945833312,130.05447249999997,130.05447249999997,130.1524575830008,Incorrect! The correct answer is Speaker2. نادرست! پاسخ صحیح گوینده۲ است,0,76,1,0.09671745900050155,None,130.15654795799855,130.16900720799822,132.15752129099928,,,,825309,001,2024-07-01_20h41.28.338,5-26,2024.1.4,None,2024-07-01 20h41.33.325602 +0900,
Images/Speaker1.jpg,Images/Speaker2.jpg,Images/Speaker3.jpg,Images/Speaker4.jpg,Audio/Speaker2_En/P2-14-En.wav,Speaker2,گوینده۲,,,,,,,,,0,0,0,4,0,38,38,33,132.18051449999984,,,,,,,,,,,,,,,,,,,,,,,,,,,,,,,,,,,,,,,,,,,,,132.15774591599984,132.18051449999984,132.18051449999984,132.18051449999984,132.18051449999984,132.1908196243317,132.18051449999984,132.18051449999984,132.34862000000066,Incorrect! The correct answer is Speaker2. نادرست! پاسخ صحیح گوینده۲ است,0,78,1,0.1615285000007134,None,132.35281645799841,132.3659799579982,134.35187012499955,134.3782719999981,,,825309,001,2024-07-01_20h41.28.338,5-26,2024.1.4,None,2024-07-01 20h41.33.325602 +0900,
Images/Speaker1.jpg,Images/Speaker2.jpg,Images/Speaker3.jpg,Images/Speaker4.jpg,Audio/Speaker2_En/P2-8-En.wav,Speaker2,گوینده۲,,,,,,,,,0,0,0,4,0,39,39,27,134.3782719999981,,,,,,,,,,,,,,,,,,,,,,,,,,,,,,,,,,,,,,,,,,,,,134.35280045800027,134.3782719999981,134.3782719999981,134.3782719999981,134.3782719999981,134.38429695833162,134.3782719999981,134.3782719999981,134.50154445799853,Incorrect! The correct answer is Speaker2. نادرست! پاسخ صحیح گوینده۲ است,0,80,1,0.12186899999869638,None,134.50654058299915,134.52008920799926,136.50642074999996,136.5352962500001,,,825309,001,2024-07-01_20h41.28.338,5-26,2024.1.4,None,2024-07-01 20h41.33.325602 +0900,
Images/Speaker1.jpg,Images/Speaker2.jpg,Images/Speaker3.jpg,Images/Speaker4.jpg,Audio/Speaker1_En/P1-3-En.wav,Speaker1,گوینده ۱,,,,,,,,,0,0,0,4,0,40,40,2,136.5352962500001,,,,,,,,,,,,,,,,,,,,,,,,,,,,,,,,,,,,,,,,,,,,,136.50695266600087,136.5352962500001,136.5352962500001,136.5352962500001,136.5352962500001,136.5391154993345,136.5352962500001,136.5352962500001,136.53589404100057,Correct! صحیح است,0,82,1,2.142566458998772,None,136.54000558299958,136.5479890409988,138.53576470799817,138.55872916600129,,,825309,001,2024-07-01_20h41.28.338,5-26,2024.1.4,None,2024-07-01 20h41.33.325602 +0900,
Images/Speaker1.jpg,Images/Speaker2.jpg,Images/Speaker3.jpg,Images/Speaker4.jpg,Audio/Speaker4_En/P4-7-En.wav,Speaker4,گوینده۴,,,,,,,,,0,0,0,4,0,41,41,66,138.55872916600129,,,,,,,,,,,,,,,,,,,,,,,,,,,,,,,,,,,,,,,,,,,,,138.53592454099999,138.55872916600129,138.55872916600129,138.55872916600129,138.55872916600129,138.56880624933234,138.55872916600129,138.55872916600129,138.63840020800126,Incorrect! The correct answer is Speaker4. نادرست! پاسخ صحیح گوینده۴ است,0,84,1,0.07863241700033541,None,138.6425241249999,138.65542141599872,140.64535262500067,,,,825309,001,2024-07-01_20h41.28.338,5-26,2024.1.4,None,2024-07-01 20h41.33.325602 +0900,
Images/Speaker1.jpg,Images/Speaker2.jpg,Images/Speaker3.jpg,Images/Speaker4.jpg,Audio/Speaker1_En/P1-4-En.wav,Speaker1,گوینده ۱,,,,,,,,,0,0,0,4,0,42,42,13,140.66813516600087,,,,,,,,,,,,,,,,,,,,,,,,,,,,,,,,,,,,,,,,,,,,,140.64558008300082,140.66813516600087,140.66813516600087,140.66813516600087,140.66813516600087,140.6619794576657,140.66813516600087,140.66813516600087,140.7515139999996,Correct! صحیح است,0,86,1,0.08209137499943608,None,140.75531520799996,140.7661852079982,142.75581016599972,142.78330108299997,,,825309,001,2024-07-01_20h41.28.338,5-26,2024.1.4,None,2024-07-01 20h41.33.325602 +0900,
Images/Speaker1.jpg,Images/Speaker2.jpg,Images/Speaker3.jpg,Images/Speaker4.jpg,Audio/Speaker4_En/P4-3-En.wav,Speaker4,گوینده۴,,,,,,,,,0,0,0,4,0,43,43,62,142.78330108299997,,,,,,,,,,,,,,,,,,,,,,,,,,,,,,,,,,,,,,,,,,,,,142.75693379099903,142.78330108299997,142.78330108299997,142.78330108299997,142.78330108299997,142.78812283333224,142.78330108299997,142.78330108299997,142.93269541599875,Incorrect! The correct answer is Speaker4. نادرست! پاسخ صحیح گوینده۴ است,0,88,1,0.14726116599922534,None,142.93689883299885,142.949859458,144.94430608299808,,,,825309,001,2024-07-01_20h41.28.338,5-26,2024.1.4,None,2024-07-01 20h41.33.325602 +0900,
Images/Speaker1.jpg,Images/Speaker2.jpg,Images/Speaker3.jpg,Images/Speaker4.jpg,Audio/Speaker2_En/P2-9-En.wav,Speaker2,گوینده۲,,,,,,,,,0,0,0,4,0,44,44,28,144.96869691599932,,,,,,,,,,,,,,,,,,,,,,,,,,,,,,,,,,,,,,,,,,,,,144.94494745799966,144.96869691599932,144.96869691599932,144.96869691599932,144.96869691599932,144.9774954993341,144.96869691599932,144.96869691599932,145.12359520799873,Incorrect! The correct answer is Speaker2. نادرست! پاسخ صحیح گوینده۲ است,0,90,1,0.15071983300003922,None,145.12754004100134,145.14009475000057,147.1292039580003,,,,825309,001,2024-07-01_20h41.28.338,5-26,2024.1.4,None,2024-07-01 20h41.33.325602 +0900,
Images/Speaker1.jpg,Images/Speaker2.jpg,Images/Speaker3.jpg,Images/Speaker4.jpg,Audio/Speaker4_En/P4-1-En.wav,Speaker4,گوینده۴,,,,,,,,,0,0,0,4,0,45,45,60,147.15710795799896,,,,,,,,,,,,,,,,,,,,,,,,,,,,,,,,,,,,,,,,,,,,,147.12981812499856,147.15710795799896,147.15710795799896,147.15710795799896,147.15710795799896,147.16231749933337,147.15710795799896,147.15710795799896,147.1577350410007,Incorrect! The correct answer is Speaker4. نادرست! پاسخ صحیح گوینده۴ است,0,92,1,2.0609021250020305,None,147.15817833300025,147.16781770799935,149.15382274999865,149.17668441600108,,,825309,001,2024-07-01_20h41.28.338,5-26,2024.1.4,None,2024-07-01 20h41.33.325602 +0900,
Images/Speaker1.jpg,Images/Speaker2.jpg,Images/Speaker3.jpg,Images/Speaker4.jpg,Audio/Speaker1_En/P1-16-En.wav,Speaker1,گوینده ۱,,,,,,,,,0,0,0,4,0,46,46,15,149.17668441600108,,,,,,,,,,,,,,,,,,,,,,,,,,,,,,,,,,,,,,,,,,,,,149.1540079160004,149.17668441600108,149.17668441600108,149.17668441600108,149.17668441600108,149.1702366246648,149.17668441600108,149.17668441600108,149.25251529099842,Correct! صحیح است,0,94,1,0.07454116699955193,None,149.25664270799825,149.2679355830005,151.25673862500116,151.28277037500084,,,825309,001,2024-07-01_20h41.28.338,5-26,2024.1.4,None,2024-07-01 20h41.33.325602 +0900,
Images/Speaker1.jpg,Images/Speaker2.jpg,Images/Speaker3.jpg,Images/Speaker4.jpg,Audio/Speaker1_En/P1-20-En.wav,Speaker1,گوینده ۱,,,,,,,,,0,0,0,4,0,47,47,19,151.28277037500084,,,,,,,,,,,,,,,,,,,,,,,,,,,,,,,,,,,,,,,,,,,,,151.25760929099852,151.28277037500084,151.28277037500084,151.28277037500084,151.28277037500084,151.28916604133389,151.28277037500084,151.28277037500084,151.2833783749993,Correct! صحیح است,0,96,1,2.0486830830013787,None,151.28378554099982,151.2913354580014,153.2751944160009,153.30202762499903,,,825309,001,2024-07-01_20h41.28.338,5-26,2024.1.4,None,2024-07-01 20h41.33.325602 +0900,
Images/Speaker1.jpg,Images/Speaker2.jpg,Images/Speaker3.jpg,Images/Speaker4.jpg,Audio/Speaker1_En/P1-6-En.wav,Speaker1,گوینده ۱,,,,,,,,,0,0,0,4,0,48,48,5,153.30202762499903,,,,,,,,,,,,,,,,,,,,,,,,,,,,,,,,,,,,,,,,,,,,,153.2758577079985,153.30202762499903,153.30202762499903,153.30202762499903,153.30202762499903,153.30762824933169,153.30202762499903,153.30202762499903,153.3692783330007,Correct! صحیح است,0,98,1,0.06541408299744944,None,153.37322316599966,153.38482479099912,155.36842966599943,155.39373512499878,,,825309,001,2024-07-01_20h41.28.338,5-26,2024.1.4,None,2024-07-01 20h41.33.325602 +0900,
Images/Speaker1.jpg,Images/Speaker2.jpg,Images/Speaker3.jpg,Images/Speaker4.jpg,Audio/Speaker3_En/P3-4-En.wav,Speaker3,گوینده۳,,,,,,,,,0,0,0,4,0,49,49,43,155.39373512499878,,,,,,,,,,,,,,,,,,,,,,,,,,,,,,,,,,,,,,,,,,,,,155.36934575000123,155.39373512499878,155.39373512499878,155.39373512499878,155.39373512499878,155.40086162433414,155.39373512499878,155.39373512499878,155.48635891600134,Incorrect! The correct answer is Speaker3. نادرست! پاسخ صحیح گوینده۳ است,0,100,1,0.08895591599866748,None,155.49008999999933,155.50251962499897,157.4899703330011,157.51248066599874,,,825309,001,2024-07-01_20h41.28.338,5-26,2024.1.4,None,2024-07-01 20h41.33.325602 +0900,
Images/Speaker1.jpg,Images/Speaker2.jpg,Images/Speaker3.jpg,Images/Speaker4.jpg,Audio/Speaker2_En/P2-7-En.wav,Speaker2,گوینده۲,,,,,,,,,0,0,0,4,0,50,50,26,157.51248066599874,,,,,,,,,,,,,,,,,,,,,,,,,,,,,,,,,,,,,,,,,,,,,157.49014312500003,157.51248066599874,157.51248066599874,157.51248066599874,157.51248066599874,157.50633229166513,157.51248066599874,157.51248066599874,157.51310320799894,Incorrect! The correct answer is Speaker2. نادرست! پاسخ صحیح گوینده۲ است,0,102,1,2.070965040998999,None,157.51694687499912,157.52689662500052,159.51390750000064,159.53791837500103,,,825309,001,2024-07-01_20h41.28.338,5-26,2024.1.4,None,2024-07-01 20h41.33.325602 +0900,
Images/Speaker1.jpg,Images/Speaker2.jpg,Images/Speaker3.jpg,Images/Speaker4.jpg,Audio/Speaker3_En/P3-6-En.wav,Speaker3,گوینده۳,,,,,,,,,0,0,0,4,0,51,51,45,159.53791837500103,,,,,,,,,,,,,,,,,,,,,,,,,,,,,,,,,,,,,,,,,,,,,159.51410216599834,159.53791837500103,159.53791837500103,159.53791837500103,159.53791837500103,159.546915208332,159.53791837500103,159.53791837500103,159.64779641600035,Incorrect! The correct answer is Speaker3. نادرست! پاسخ صحیح گوینده۳ است,0,104,1,0.10141045800264692,None,159.65201554099986,159.6648595000006,161.64757391600142,161.67290520800088,,,825309,001,2024-07-01_20h41.28.338,5-26,2024.1.4,None,2024-07-01 20h41.33.325602 +0900,
Images/Speaker1.jpg,Images/Speaker2.jpg,Images/Speaker3.jpg,Images/Speaker4.jpg,Audio/Speaker4_En/P4-15-En.wav,Speaker4,گوینده۴,,,,,,,,,0,0,0,4,0,52,52,74,161.67290520800088,,,,,,,,,,,,,,,,,,,,,,,,,,,,,,,,,,,,,,,,,,,,,161.64775704099884,161.67290520800088,161.67290520800088,161.67290520800088,161.67290520800088,161.6806568743346,161.67290520800088,161.67290520800088,161.67380224999943,Incorrect! The correct answer is Speaker4. نادرست! پاسخ صحیح گوینده۴ است,0,106,1,2.022725666000042,None,161.67420570800095,161.6840000000011,163.6747033749998,,,,825309,001,2024-07-01_20h41.28.338,5-26,2024.1.4,None,2024-07-01 20h41.33.325602 +0900,
Images/Speaker1.jpg,Images/Speaker2.jpg,Images/Speaker3.jpg,Images/Speaker4.jpg,Audio/Speaker2_En/P2-12-En.wav,Speaker2,گوینده۲,,,,,,,,,0,0,0,4,0,53,53,31,163.69676450000043,,,,,,,,,,,,,,,,,,,,,,,,,,,,,,,,,,,,,,,,,,,,,163.67487025000082,163.69676450000043,163.69676450000043,163.69676450000043,163.69676450000043,163.69132391666452,163.69676450000043,163.69676450000043,163.77987429099812,Incorrect! The correct answer is Speaker2. نادرست! پاسخ صحیح گوینده۲ است,0,108,1,0.08202566699765157,None,163.7835774160012,163.796875,165.78135149999798,165.80765283299843,,,825309,001,2024-07-01_20h41.28.338,5-26,2024.1.4,None,2024-07-01 20h41.33.325602 +0900,
Images/Speaker1.jpg,Images/Speaker2.jpg,Images/Speaker3.jpg,Images/Speaker4.jpg,Audio/Speaker4_En/P4-10-En.wav,Speaker4,گوینده۴,,,,,,,,,0,0,0,4,0,54,54,69,165.80765283299843,,,,,,,,,,,,,,,,,,,,,,,,,,,,,,,,,,,,,,,,,,,,,165.78153208300137,165.80765283299843,165.80765283299843,165.80765283299843,165.80765283299843,165.81444862433324,165.80765283299843,165.80765283299843,165.80829833299867,Incorrect! The correct answer is Speaker4. نادرست! پاسخ صحیح گوینده۴ است,0,110,1,2.0901263749983627,None,165.80854183300107,165.81790454099973,167.8082817079994,167.83484941599818,,,825309,001,2024-07-01_20h41.28.338,5-26,2024.1.4,None,2024-07-01 20h41.33.325602 +0900,
Images/Speaker1.jpg,Images/Speaker2.jpg,Images/Speaker3.jpg,Images/Speaker4.jpg,Audio/Speaker4_En/P4-5-En.wav,Speaker4,گوینده۴,,,,,,,,,0,0,0,4,0,55,55,64,167.83484941599818,,,,,,,,,,,,,,,,,,,,,,,,,,,,,,,,,,,,,,,,,,,,,167.80885708300048,167.83484941599818,167.83484941599818,167.83484941599818,167.83484941599818,167.84064791633187,167.83484941599818,167.83484941599818,167.89462158300012,Incorrect! The correct answer is Speaker4. نادرست! پاسخ صحیح گوینده۴ است,0,112,1,0.058605999998690095,None,167.8988908329993,167.91118887500124,169.8996977079987,169.92581679100113,,,825309,001,2024-07-01_20h41.28.338,5-26,2024.1.4,None,2024-07-01 20h41.33.325602 +0900,
Images/Speaker1.jpg,Images/Speaker2.jpg,Images/Speaker3.jpg,Images/Speaker4.jpg,Audio/Speaker1_En/P1-1-En.wav,Speaker1,گوینده ۱,,,,,,,,,0,0,0,4,0,56,56,0,169.92581679100113,,,,,,,,,,,,,,,,,,,,,,,,,,,,,,,,,,,,,,,,,,,,,169.9002109159992,169.92581679100113,169.92581679100113,169.92581679100113,169.92581679100113,169.93205841633295,169.92581679100113,169.92581679100113,169.94358154099973,Correct! صحیح است,0,114,1,0.010548416998062748,None,169.94734658299785,169.95499370800098,171.94474791600078,171.96707724999942,,,825309,001,2024-07-01_20h41.28.338,5-26,2024.1.4,None,2024-07-01 20h41.33.325602 +0900,
Images/Speaker1.jpg,Images/Speaker2.jpg,Images/Speaker3.jpg,Images/Speaker4.jpg,Audio/Speaker4_En/P4-12-En.wav,Speaker4,گوینده۴,,,,,,,,,0,0,0,4,0,57,57,71,171.96707724999942,,,,,,,,,,,,,,,,,,,,,,,,,,,,,,,,,,,,,,,,,,,,,171.94493054099803,171.96707724999942,171.96707724999942,171.96707724999942,171.96707724999942,171.96115070766635,171.96707724999942,171.96707724999942,172.03364779099866,Incorrect! The correct answer is Speaker4. نادرست! پاسخ صحیح گوینده۴ است,0,116,1,0.0648665839980822,None,172.0375221659997,172.04990441599875,174.03427462499894,174.05877620799947,,,825309,001,2024-07-01_20h41.28.338,5-26,2024.1.4,None,2024-07-01 20h41.33.325602 +0900,
Images/Speaker1.jpg,Images/Speaker2.jpg,Images/Speaker3.jpg,Images/Speaker4.jpg,Audio/Speaker1_En/P1-13-En.wav,Speaker1,گوینده ۱,,,,,,,,,0,0,0,4,0,58,58,12,174.05877620799947,,,,,,,,,,,,,,,,,,,,,,,,,,,,,,,,,,,,,,,,,,,,,174.03447383299863,174.05877620799947,174.05877620799947,174.05877620799947,174.05877620799947,174.06725695833353,174.05877620799947,174.05877620799947,174.07055062499785,Correct! صحیح است,0,118,1,0.010627457999362377,None,174.07422804100133,174.08552537499781,176.0717635410001,176.09470029099975,,,825309,001,2024-07-01_20h41.28.338,5-26,2024.1.4,None,2024-07-01 20h41.33.325602 +0900,
Images/Speaker1.jpg,Images/Speaker2.jpg,Images/Speaker3.jpg,Images/Speaker4.jpg,Audio/Speaker2_En/P2-16-En.wav,Speaker2,گوینده۲,,,,,,,,,0,0,0,4,0,59,59,35,176.09470029099975,,,,,,,,,,,,,,,,,,,,,,,,,,,,,,,,,,,,,,,,,,,,,176.07252037500075,176.09470029099975,176.09470029099975,176.09470029099975,176.09470029099975,176.10390766633333,176.09470029099975,176.09470029099975,176.90032354099822,Incorrect! The correct answer is Speaker2. نادرست! پاسخ صحیح گوینده۲ است,0,120,1,0.8022537079996255,None,176.90431549999994,176.9171436659999,178.90966308299903,,,,825309,001,2024-07-01_20h41.28.338,5-26,2024.1.4,None,2024-07-01 20h41.33.325602 +0900,
Images/Speaker1.jpg,Images/Speaker2.jpg,Images/Speaker3.jpg,Images/Speaker4.jpg,Audio/Speaker3_En/P3-15-En.wav,Speaker3,گوینده۳,,,,,,,,,0,0,0,4,0,60,60,54,178.93691591599782,,,,,,,,,,,,,,,,,,,,,,,,,,,,,,,,,,,,,,,,,,,,,178.91026204100126,178.93691591599782,178.93691591599782,178.93691591599782,178.93691591599782,178.9428262913321,178.93691591599782,178.93691591599782,178.99092933299835,Incorrect! The correct answer is Speaker3. نادرست! پاسخ صحیح گوینده۳ است,0,122,1,0.0525704579995363,None,178.99488470800134,179.0069193749987,180.99463308299892,181.01922583299893,,,825309,001,2024-07-01_20h41.28.338,5-26,2024.1.4,None,2024-07-01 20h41.33.325602 +0900,
Images/Speaker1.jpg,Images/Speaker2.jpg,Images/Speaker3.jpg,Images/Speaker4.jpg,Audio/Speaker2_En/P2-5-En.wav,Speaker2,گوینده۲,,,,,,,,,0,0,0,4,0,61,61,24,181.01922583299893,,,,,,,,,,,,,,,,,,,,,,,,,,,,,,,,,,,,,,,,,,,,,180.99558829099988,181.01922583299893,181.01922583299893,181.01922583299893,181.01922583299893,181.02703370833166,181.01922583299893,181.01922583299893,181.05629391600087,Incorrect! The correct answer is Speaker2. نادرست! پاسخ صحیح گوینده۲ است,0,124,1,0.035847833001753315,None,181.0601740409984,181.07270549999885,183.05588612499923,183.08061062499837,,,825309,001,2024-07-01_20h41.28.338,5-26,2024.1.4,None,2024-07-01 20h41.33.325602 +0900,
Images/Speaker1.jpg,Images/Speaker2.jpg,Images/Speaker3.jpg,Images/Speaker4.jpg,Audio/Speaker4_En/P4-19-En.wav,Speaker4,گوینده۴,,,,,,,,,0,0,0,4,0,62,62,78,183.08061062499837,,,,,,,,,,,,,,,,,,,,,,,,,,,,,,,,,,,,,,,,,,,,,183.0560944159988,183.08061062499837,183.08061062499837,183.08061062499837,183.08061062499837,183.08890654133262,183.08061062499837,183.08061062499837,183.38758733299983,Incorrect! The correct answer is Speaker4. نادرست! پاسخ صحیح گوینده۴ است,0,126,1,0.3035395000006247,None,183.39181429100063,183.40486370800136,185.38779883299867,185.4107890410014,,,825309,001,2024-07-01_20h41.28.338,5-26,2024.1.4,None,2024-07-01 20h41.33.325602 +0900,
Images/Speaker1.jpg,Images/Speaker2.jpg,Images/Speaker3.jpg,Images/Speaker4.jpg,Audio/Speaker4_En/P4-18-En.wav,Speaker4,گوینده۴,,,,,,,,,0,0,0,4,0,63,63,77,185.4107890410014,,,,,,,,,,,,,,,,,,,,,,,,,,,,,,,,,,,,,,,,,,,,,185.38798579099966,185.4107890410014,185.4107890410014,185.4107890410014,185.4107890410014,185.4208444993315,185.4107890410014,185.4107890410014,185.41141675000108,Incorrect! The correct answer is Speaker4. نادرست! پاسخ صحیح گوینده۴ است,0,128,1,2.287676583000575,None,185.41176970800007,185.42232633299864,187.41623824999988,,,,825309,001,2024-07-01_20h41.28.338,5-26,2024.1.4,None,2024-07-01 20h41.33.325602 +0900,
Images/Speaker1.jpg,Images/Speaker2.jpg,Images/Speaker3.jpg,Images/Speaker4.jpg,Audio/Speaker1_En/P1-18-En.wav,Speaker1,گوینده ۱,,,,,,,,,0,0,0,4,0,64,64,17,187.4419558749978,,,,,,,,,,,,,,,,,,,,,,,,,,,,,,,,,,,,,,,,,,,,,187.41685824999877,187.4419558749978,187.4419558749978,187.4419558749978,187.4419558749978,187.4493366663342,187.4419558749978,187.4419558749978,187.49156312500054,Correct! صحیح است,0,130,1,0.04694562499935273,None,187.4955267080004,187.50626587499937,189.49038091599868,189.51210775000072,,,825309,001,2024-07-01_20h41.28.338,5-26,2024.1.4,None,2024-07-01 20h41.33.325602 +0900,
Images/Speaker1.jpg,Images/Speaker2.jpg,Images/Speaker3.jpg,Images/Speaker4.jpg,Audio/Speaker3_En/P3-20-En.wav,Speaker3,گوینده۳,,,,,,,,,0,0,0,4,0,65,65,59,189.51210775000072,,,,,,,,,,,,,,,,,,,,,,,,,,,,,,,,,,,,,,,,,,,,,189.49053516599815,189.51210775000072,189.51210775000072,189.51210775000072,189.51210775000072,189.5067868746667,189.51210775000072,189.51210775000072,189.59462333299962,Incorrect! The correct answer is Speaker3. نادرست! پاسخ صحیح گوینده۳ است,0,132,1,0.08062720900124987,None,189.59838441600004,189.6112630409989,191.60042799999792,,,,825309,001,2024-07-01_20h41.28.338,5-26,2024.1.4,None,2024-07-01 20h41.33.325602 +0900,
Images/Speaker1.jpg,Images/Speaker2.jpg,Images/Speaker3.jpg,Images/Speaker4.jpg,Audio/Speaker2_En/P2-11-En.wav,Speaker2,گوینده۲,,,,,,,,,0,0,0,4,0,66,66,30,191.62652137500118,,,,,,,,,,,,,,,,,,,,,,,,,,,,,,,,,,,,,,,,,,,,,191.60102112499953,191.62652137500118,191.62652137500118,191.62652137500118,191.62652137500118,191.6336260833346,191.62652137500118,191.62652137500118,191.69849245799924,Incorrect! The correct answer is Speaker2. نادرست! پاسخ صحیح گوینده۲ است,0,134,1,0.06863429099757923,None,191.70245499999874,191.7145144999995,193.70794383300017,,,,825309,001,2024-07-01_20h41.28.338,5-26,2024.1.4,None,2024-07-01 20h41.33.325602 +0900,
Images/Speaker1.jpg,Images/Speaker2.jpg,Images/Speaker3.jpg,Images/Speaker4.jpg,Audio/Speaker1_En/P1-12-En.wav,Speaker1,گوینده ۱,,,,,,,,,0,0,0,4,0,67,67,11,193.73572941599923,,,,,,,,,,,,,,,,,,,,,,,,,,,,,,,,,,,,,,,,,,,,,193.7086602499985,193.73572941599923,193.73572941599923,193.73572941599923,193.73572941599923,193.74107408333344,193.73572941599923,193.73572941599923,193.81214366600034,Correct! صحیح است,0,136,1,0.07326608299990767,None,193.81590516600045,193.82692150000003,195.8100030409987,195.8324704580009,,,825309,001,2024-07-01_20h41.28.338,5-26,2024.1.4,None,2024-07-01 20h41.33.325602 +0900,
Images/Speaker1.jpg,Images/Speaker2.jpg,Images/Speaker3.jpg,Images/Speaker4.jpg,Audio/Speaker4_En/P4-20-En.wav,Speaker4,گوینده۴,,,,,,,,,0,0,0,4,0,68,68,79,195.8324704580009,,,,,,,,,,,,,,,,,,,,,,,,,,,,,,,,,,,,,,,,,,,,,195.81020916600028,195.8324704580009,195.8324704580009,195.8324704580009,195.8324704580009,195.82646179166503,195.8324704580009,195.8324704580009,196.01161137500094,Incorrect! The correct answer is Speaker4. نادرست! پاسخ صحیح گوینده۴ است,0,138,1,0.17707641599918134,None,196.0158988330004,196.0286306659982,198.01606283300134,198.03946116600127,,,825309,001,2024-07-01_20h41.28.338,5-26,2024.1.4,None,2024-07-01 20h41.33.325602 +0900,
Images/Speaker1.jpg,Images/Speaker2.jpg,Images/Speaker3.jpg,Images/Speaker4.jpg,Audio/Speaker1_En/P1-2-En.wav,Speaker1,گوینده ۱,,,,,,,,,0,0,0,4,0,69,69,1,198.03946116600127,,,,,,,,,,,,,,,,,,,,,,,,,,,,,,,,,,,,,,,,,,,,,198.01624745799927,198.03946116600127,198.03946116600127,198.03946116600127,198.03946116600127,198.04910133333448,198.03946116600127,198.03946116600127,198.14538504099983,Correct! صحیح است,0,140,1,0.10450079100337462,None,198.1493646659983,198.16047579099904,200.1435459159984,200.16845337500126,,,825309,001,2024-07-01_20h41.28.338,5-26,2024.1.4,None,2024-07-01 20h41.33.325602 +0900,
Images/Speaker1.jpg,Images/Speaker2.jpg,Images/Speaker3.jpg,Images/Speaker4.jpg,Audio/Speaker3_En/P3-2-En.wav,Speaker3,گوینده۳,,,,,,,,,0,0,0,4,0,70,70,41,200.16845337500126,,,,,,,,,,,,,,,,,,,,,,,,,,,,,,,,,,,,,,,,,,,,,200.14372212499802,200.16845337500126,200.16845337500126,200.16845337500126,200.16845337500126,200.17666908333246,200.16845337500126,200.16845337500126,200.33048454099844,Incorrect! The correct answer is Speaker3. نادرست! پاسخ صحیح گوینده۳ است,0,142,1,0.1589520839988836,None,200.334360249999,200.3468924580011,202.33494558299935,202.35912862500118,,,825309,001,2024-07-01_20h41.28.338,5-26,2024.1.4,None,2024-07-01 20h41.33.325602 +0900,
Images/Speaker1.jpg,Images/Speaker2.jpg,Images/Speaker3.jpg,Images/Speaker4.jpg,Audio/Speaker4_En/P4-8-En.wav,Speaker4,گوینده۴,,,,,,,,,0,0,0,4,0,71,71,67,202.35912862500118,,,,,,,,,,,,,,,,,,,,,,,,,,,,,,,,,,,,,,,,,,,,,202.3359200829982,202.35912862500118,202.35912862500118,202.35912862500118,202.35912862500118,202.36741654133272,202.35912862500118,202.35912862500118,202.59413912499804,Incorrect! The correct answer is Speaker4. نادرست! پاسخ صحیح گوینده۴ است,0,144,1,0.2194152080010099,None,202.59833104100107,202.61173045800024,204.60206691599888,,,,825309,001,2024-07-01_20h41.28.338,5-26,2024.1.4,None,2024-07-01 20h41.33.325602 +0900,
Images/Speaker1.jpg,Images/Speaker2.jpg,Images/Speaker3.jpg,Images/Speaker4.jpg,Audio/Speaker2_En/P2-19-En.wav,Speaker2,گوینده۲,,,,,,,,,0,0,0,4,0,72,72,38,204.6280856250014,,,,,,,,,,,,,,,,,,,,,,,,,,,,,,,,,,,,,,,,,,,,,204.60280691599837,204.6280856250014,204.6280856250014,204.6280856250014,204.6280856250014,204.6352452083343,204.6280856250014,204.6280856250014,204.7943374159986,Incorrect! The correct answer is Speaker2. نادرست! پاسخ صحیح گوینده۲ است,0,146,1,0.16495949999807635,None,204.79844916599905,204.8108109579989,206.79672562500127,206.81897829100126,,,825309,001,2024-07-01_20h41.28.338,5-26,2024.1.4,None,2024-07-01 20h41.33.325602 +0900,
Images/Speaker1.jpg,Images/Speaker2.jpg,Images/Speaker3.jpg,Images/Speaker4.jpg,Audio/Speaker4_En/P4-16-En.wav,Speaker4,گوینده۴,,,,,,,,,0,0,0,4,0,73,73,75,206.81897829100126,,,,,,,,,,,,,,,,,,,,,,,,,,,,,,,,,,,,,,,,,,,,,206.79688208299922,206.81897829100126,206.81897829100126,206.81897829100126,206.81897829100126,206.813143874668,206.81897829100126,206.81897829100126,206.93062066600032,Incorrect! The correct answer is Speaker4. نادرست! پاسخ صحیح گوینده۴ است,0,148,1,0.104008000002068,None,206.9343912910008,206.94783533300142,208.94017183300093,,,,825309,001,2024-07-01_20h41.28.338,5-26,2024.1.4,None,2024-07-01 20h41.33.325602 +0900,
Images/Speaker1.jpg,Images/Speaker2.jpg,Images/Speaker3.jpg,Images/Speaker4.jpg,Audio/Speaker1_En/P1-8-En.wav,Speaker1,گوینده ۱,,,,,,,,,0,0,0,4,0,74,74,7,208.9641551249988,,,,,,,,,,,,,,,,,,,,,,,,,,,,,,,,,,,,,,,,,,,,,208.94083779100038,208.9641551249988,208.9641551249988,208.9641551249988,208.9641551249988,208.97336416633385,208.9641551249988,208.9641551249988,209.16596254099932,Correct! صحیح است,0,150,1,0.19732883400138235,None,209.1700352910011,209.18050604100063,211.16417604099843,211.19056920799994,,,825309,001,2024-07-01_20h41.28.338,5-26,2024.1.4,None,2024-07-01 20h41.33.325602 +0900,
Images/Speaker1.jpg,Images/Speaker2.jpg,Images/Speaker3.jpg,Images/Speaker4.jpg,Audio/Speaker3_En/P3-5-En.wav,Speaker3,گوینده۳,,,,,,,,,0,0,0,4,0,75,75,44,211.19056920799994,,,,,,,,,,,,,,,,,,,,,,,,,,,,,,,,,,,,,,,,,,,,,211.16475454099782,211.19056920799994,211.19056920799994,211.19056920799994,211.19056920799994,211.19699437433206,211.19056920799994,211.19056920799994,211.2400311249985,Incorrect! The correct answer is Speaker3. نادرست! پاسخ صحیح گوینده۳ است,0,152,1,0.045979541002452606,None,211.24380337500043,211.25637112500044,213.2500086250002,,,,825309,001,2024-07-01_20h41.28.338,5-26,2024.1.4,None,2024-07-01 20h41.33.325602 +0900,
Images/Speaker1.jpg,Images/Speaker2.jpg,Images/Speaker3.jpg,Images/Speaker4.jpg,Audio/Speaker4_En/P4-11-En.wav,Speaker4,گوینده۴,,,,,,,,,0,0,0,4,0,76,76,70,213.276779541,,,,,,,,,,,,,,,,,,,,,,,,,,,,,,,,,,,,,,,,,,,,,213.25058966600045,213.276779541,213.276779541,213.276779541,213.276779541,213.28315199933473,213.276779541,213.276779541,213.34987404099957,Incorrect! The correct answer is Speaker4. نادرست! پاسخ صحیح گوینده۴ است,0,154,1,0.06973970800027018,None,213.35381162499834,213.36639699999796,215.35801925000123,,,,825309,001,2024-07-01_20h41.28.338,5-26,2024.1.4,None,2024-07-01 20h41.33.325602 +0900,
Images/Speaker1.jpg,Images/Speaker2.jpg,Images/Speaker3.jpg,Images/Speaker4.jpg,Audio/Speaker3_En/P3-1-En.wav,Speaker3,گوینده۳,,,,,,,,,0,0,0,4,0,77,77,40,215.38508820800052,,,,,,,,,,,,,,,,,,,,,,,,,,,,,,,,,,,,,,,,,,,,,215.35867483299808,215.38508820800052,215.38508820800052,215.38508820800052,215.38508820800052,215.39114683333224,215.38508820800052,215.38508820800052,215.63125470799787,Incorrect! The correct answer is Speaker3. نادرست! پاسخ صحیح گوینده۳ است,0,156,1,0.23612016700280947,None,215.63542462500118,215.6476538329989,217.63578858300025,,,,825309,001,2024-07-01_20h41.28.338,5-26,2024.1.4,None,2024-07-01 20h41.33.325602 +0900,
Images/Speaker1.jpg,Images/Speaker2.jpg,Images/Speaker3.jpg,Images/Speaker4.jpg,Audio/Speaker2_En/P2-1-En.wav,Speaker2,گوینده۲,,,,,,,,,0,0,0,4,0,78,78,20,217.66359937499874,,,,,,,,,,,,,,,,,,,,,,,,,,,,,,,,,,,,,,,,,,,,,217.63653654099835,217.66359937499874,217.66359937499874,217.66359937499874,217.66359937499874,217.6689296663322,217.66359937499874,217.66359937499874,218.63060595799834,Incorrect! The correct answer is Speaker2. نادرست! پاسخ صحیح گوینده۲ است,0,158,1,0.9621215000006487,None,218.63446512500013,218.6480302079981,220.6318782499984,220.65481504099807,,,825309,001,2024-07-01_20h41.28.338,5-26,2024.1.4,None,2024-07-01 20h41.33.325602 +0900,
Images/Speaker1.jpg,Images/Speaker2.jpg,Images/Speaker3.jpg,Images/Speaker4.jpg,Audio/Speaker1_En/P1-4-En.wav,Speaker1,گوینده ۱,,,,,,,,,0,0,0,4,0,79,79,3,220.65481504099807,,,,,,,,,,,,,,,,,,,,,,,,,,,,,,,,,,,,,,,,,,,,,220.6328414999989,220.65481504099807,220.65481504099807,220.65481504099807,220.65481504099807,220.66433129133344,220.65481504099807,220.65481504099807,221.4779744160005,Correct! صحیح است,0,160,1,0.8182594170029915,None,221.48199145800027,221.4947589580006,223.48643454099874,,,,825309,001,2024-07-01_20h41.28.338,5-26,2024.1.4,None,2024-07-01 20h41.33.325602 +0900,
Images/Speaker1.jpg,Images/Speaker2.jpg,Images/Speaker3.jpg,Images/Speaker4.jpg,Audio/Speaker1_En/P1-5-En.wav,Speaker1,گوینده ۱,,,,,,,,,0,0,0,4,,,,,,,,,,,,,,,,,,,,,,,,,,,,,,,,,,,,,,,,,,,,,,,,,,,,,,,,,,,,,,,,,,,,,223.48671208299857,223.487584874998,825309,001,2024-07-01_20h41.28.338,5-26,2024.1.4,None,2024-07-01 20h41.33.325602 +0900,
Images/Speaker1.jpg,Images/Speaker2.jpg,Images/Speaker3.jpg,Images/Speaker4.jpg,Audio/Speaker4_En/P4-4-En.wav,Speaker4,گوینده۴,,,,,,,,,0,1,1,64,0,0,0,63,223.52960229100063,,,,,,,,,,,,,,,,,,,,,,,,,,,,,,,,,,,,,,,,,,,,,223.50769070800015,223.52960229100063,223.52960229100063,223.52960229100063,223.52960229100063,223.5362855829997,223.52960229100063,223.52960229100063,227.34022750000076,Correct! صحیح است,0,3,4,3.8047657080023782,None,227.3444779579986,227.3560636660004,229.34969937500136,,,,825309,001,2024-07-01_20h41.28.338,5-26,2024.1.4,None,2024-07-01 20h41.33.325602 +0900,
Images/Speaker1.jpg,Images/Speaker2.jpg,Images/Speaker3.jpg,Images/Speaker4.jpg,Audio/Speaker1_En/P1-13-En.wav,Speaker1,گوینده ۱,,,,,,,,,0,1,1,64,0,1,1,12,229.37478225000086,,,,,,,,,,,,,,,,,,,,,,,,,,,,,,,,,,,,,,,,,,,,,229.35039099999995,229.37478225000086,229.37478225000086,229.37478225000086,229.37478225000086,229.38284066633474,229.37478225000086,229.37478225000086,231.03553783299867,Correct! صحیح است,0,5,1,1.6508405839995248,None,231.03955441599828,231.04861562500082,233.04031595799825,,,,825309,001,2024-07-01_20h41.28.338,5-26,2024.1.4,None,2024-07-01 20h41.33.325602 +0900,
Images/Speaker1.jpg,Images/Speaker2.jpg,Images/Speaker3.jpg,Images/Speaker4.jpg,Audio/Speaker1_En/P1-11-En.wav,Speaker1,گوینده ۱,,,,,,,,,0,1,1,64,0,2,2,10,233.06412208300026,,,,,,,,,,,,,,,,,,,,,,,,,,,,,,,,,,,,,,,,,,,,,233.04107945799842,233.06412208300026,233.06412208300026,233.06412208300026,233.06412208300026,233.07349037433283,233.06412208300026,233.06412208300026,234.66986254099902,Correct! صحیح است,0,7,1,1.6039895419999084,None,234.673922416001,234.6847022080001,236.66783837500043,236.68926729099985,,,825309,001,2024-07-01_20h41.28.338,5-26,2024.1.4,None,2024-07-01 20h41.33.325602 +0900,
Images/Speaker1.jpg,Images/Speaker2.jpg,Images/Speaker3.jpg,Images/Speaker4.jpg,Audio/Speaker2_En/P2-15-En.wav,Speaker2,گوینده۲,,,,,,,,,0,1,1,64,0,3,3,34,236.68926729099985,,,,,,,,,,,,,,,,,,,,,,,,,,,,,,,,,,,,,,,,,,,,,236.668020582998,236.68926729099985,236.68926729099985,236.68926729099985,236.68926729099985,236.6842763326679,236.68926729099985,236.68926729099985,237.63410183299857,Correct! صحیح است,0,9,2,0.9411058330006199,None,237.63803766599813,237.6493259159979,239.6360261660011,239.65824341600091,,,825309,001,2024-07-01_20h41.28.338,5-26,2024.1.4,None,2024-07-01 20h41.33.325602 +0900,
Images/Speaker1.jpg,Images/Speaker2.jpg,Images/Speaker3.jpg,Images/Speaker4.jpg,Audio/Speaker4_En/P4-3-En.wav,Speaker4,گوینده۴,,,,,,,,,0,1,1,64,0,4,4,62,239.65824341600091,,,,,,,,,,,,,,,,,,,,,,,,,,,,,,,,,,,,,,,,,,,,,239.63620166599867,239.65824341600091,239.65824341600091,239.65824341600091,239.65824341600091,239.65237691666724,239.65824341600091,239.65824341600091,241.190881874998,Correct! صحیح است,0,11,4,1.5315036249994591,None,241.1949123330014,241.20631074999983,243.2002200829993,,,,825309,001,2024-07-01_20h41.28.338,5-26,2024.1.4,None,2024-07-01 20h41.33.325602 +0900,
Images/Speaker1.jpg,Images/Speaker2.jpg,Images/Speaker3.jpg,Images/Speaker4.jpg,Audio/Speaker3_En/P3-18-En.wav,Speaker3,گوینده۳,,,,,,,,,0,1,1,64,0,5,5,57,243.22104858300008,,,,,,,,,,,,,,,,,,,,,,,,,,,,,,,,,,,,,,,,,,,,,243.20039129100041,243.22104858300008,243.22104858300008,243.22104858300008,243.22104858300008,243.216842207665,243.22104858300008,243.22104858300008,244.4081907079999,Correct! صحیح است,0,13,3,1.174591666997003,None,244.41212670800087,244.42341820799993,246.40732308299994,246.43000737499824,,,825309,001,2024-07-01_20h41.28.338,5-26,2024.1.4,None,2024-07-01 20h41.33.325602 +0900,
Images/Speaker1.jpg,Images/Speaker2.jpg,Images/Speaker3.jpg,Images/Speaker4.jpg,Audio/Speaker4_En/P4-2-En.wav,Speaker4,گوینده۴,,,,,,,,,0,1,1,64,0,6,6,61,246.43000737499824,,,,,,,,,,,,,,,,,,,,,,,,,,,,,,,,,,,,,,,,,,,,,246.40818779099936,246.43000737499824,246.43000737499824,246.43000737499824,246.43000737499824,246.4397318333327,246.43000737499824,246.43000737499824,247.73195833299906,Correct! صحیح است,0,15,4,1.3000366669984942,None,247.73619691600106,247.74807058299848,249.73128308299783,249.75325829099893,,,825309,001,2024-07-01_20h41.28.338,5-26,2024.1.4,None,2024-07-01 20h41.33.325602 +0900,
Images/Speaker1.jpg,Images/Speaker2.jpg,Images/Speaker3.jpg,Images/Speaker4.jpg,Audio/Speaker3_En/P3-6-En.wav,Speaker3,گوینده۳,,,,,,,,,0,1,1,64,0,7,7,45,249.75325829099893,,,,,,,,,,,,,,,,,,,,,,,,,,,,,,,,,,,,,,,,,,,,,249.73144945799868,249.75325829099893,249.75325829099893,249.75325829099893,249.75325829099893,249.74760079166688,249.75325829099893,249.75325829099893,251.0202384160002,Correct! صحیح است,0,17,3,1.2658760410013201,None,251.02402841599906,251.03502174999812,253.01920933300062,253.03940633299862,,,825309,001,2024-07-01_20h41.28.338,5-26,2024.1.4,None,2024-07-01 20h41.33.325602 +0900,
Images/Speaker1.jpg,Images/Speaker2.jpg,Images/Speaker3.jpg,Images/Speaker4.jpg,Audio/Speaker2_En/P2-20-En.wav,Speaker2,گوینده۲,,,,,,,,,0,1,1,64,0,8,8,39,253.03940633299862,,,,,,,,,,,,,,,,,,,,,,,,,,,,,,,,,,,,,,,,,,,,,253.01936566600125,253.03940633299862,253.03940633299862,253.03940633299862,253.03940633299862,253.03553008266707,253.03940633299862,253.03940633299862,254.28384054100025,Correct! صحیح است,0,19,2,1.2401427919976413,None,254.2881225409983,254.29957387499962,256.2831646659979,256.3059238749993,,,825309,001,2024-07-01_20h41.28.338,5-26,2024.1.4,None,2024-07-01 20h41.33.325602 +0900,
Images/Speaker1.jpg,Images/Speaker2.jpg,Images/Speaker3.jpg,Images/Speaker4.jpg,Audio/Speaker3_En/P3-17-En.wav,Speaker3,گوینده۳,,,,,,,,,0,1,1,64,0,9,9,56,256.3059238749993,,,,,,,,,,,,,,,,,,,,,,,,,,,,,,,,,,,,,,,,,,,,,256.28372633300023,256.3059238749993,256.3059238749993,256.3059238749993,256.3059238749993,256.31540445833207,256.3059238749993,256.3059238749993,257.8174467079989,Correct! صحیح است,0,21,3,1.502484042001015,None,257.82133079100095,257.8328615829996,259.82481354099946,,,,825309,001,2024-07-01_20h41.28.338,5-26,2024.1.4,None,2024-07-01 20h41.33.325602 +0900,
Images/Speaker1.jpg,Images/Speaker2.jpg,Images/Speaker3.jpg,Images/Speaker4.jpg,Audio/Speaker3_En/P3-9-En.wav,Speaker3,گوینده۳,,,,,,,,,0,1,1,64,0,10,10,48,259.8483415829978,,,,,,,,,,,,,,,,,,,,,,,,,,,,,,,,,,,,,,,,,,,,,259.82539845800056,259.8483415829978,259.8483415829978,259.8483415829978,259.8483415829978,259.85797079133454,259.8483415829978,259.8483415829978,261.04294749999826,Correct! صحیح است,0,23,3,1.185203790999367,None,261.0472134160009,261.0584080410008,263.0455061249995,263.0668426660013,,,825309,001,2024-07-01_20h41.28.338,5-26,2024.1.4,None,2024-07-01 20h41.33.325602 +0900,
Images/Speaker1.jpg,Images/Speaker2.jpg,Images/Speaker3.jpg,Images/Speaker4.jpg,Audio/Speaker1_En/P1-6-En.wav,Speaker1,گوینده ۱,,,,,,,,,0,1,1,64,0,11,11,5,263.0668426660013,,,,,,,,,,,,,,,,,,,,,,,,,,,,,,,,,,,,,,,,,,,,,263.04567312499785,263.0668426660013,263.0668426660013,263.0668426660013,263.0668426660013,263.0618591666646,263.0668426660013,263.0668426660013,264.31952016599826,Correct! صحیح است,0,25,1,1.2398561669979244,None,264.3234762909997,264.335464374999,266.32520920800016,,,,825309,001,2024-07-01_20h41.28.338,5-26,2024.1.4,None,2024-07-01 20h41.33.325602 +0900,
Images/Speaker1.jpg,Images/Speaker2.jpg,Images/Speaker3.jpg,Images/Speaker4.jpg,Audio/Speaker2_En/P2-16-En.wav,Speaker2,گوینده۲,,,,,,,,,0,1,1,64,0,12,12,35,266.3461868330014,,,,,,,,,,,,,,,,,,,,,,,,,,,,,,,,,,,,,,,,,,,,,266.32538145799845,266.3461868330014,266.3461868330014,266.3461868330014,266.3461868330014,266.34183470766607,266.3461868330014,266.3461868330014,267.5033221249978,Correct! صحیح است,0,27,2,1.1529047080002783,None,267.5075260829981,267.51870129099916,269.5095509579987,,,,825309,001,2024-07-01_20h41.28.338,5-26,2024.1.4,None,2024-07-01 20h41.33.325602 +0900,
Images/Speaker1.jpg,Images/Speaker2.jpg,Images/Speaker3.jpg,Images/Speaker4.jpg,Audio/Speaker4_En/P4-11-En.wav,Speaker4,گوینده۴,,,,,,,,,0,1,1,64,0,13,13,70,269.53266537499803,,,,,,,,,,,,,,,,,,,,,,,,,,,,,,,,,,,,,,,,,,,,,269.51014558300085,269.53266537499803,269.53266537499803,269.53266537499803,269.53266537499803,269.5427389993315,269.53266537499803,269.53266537499803,271.0367419159993,Correct! صحیح است,0,29,4,1.5012927909992868,None,271.04085508299977,271.0517809999983,273.0393544159997,273.06066287499925,,,825309,001,2024-07-01_20h41.28.338,5-26,2024.1.4,None,2024-07-01 20h41.33.325602 +0900,
Images/Speaker1.jpg,Images/Speaker2.jpg,Images/Speaker3.jpg,Images/Speaker4.jpg,Audio/Speaker3_En/P3-3-En.wav,Speaker3,گوینده۳,,,,,,,,,0,1,1,64,0,14,14,42,273.06066287499925,,,,,,,,,,,,,,,,,,,,,,,,,,,,,,,,,,,,,,,,,,,,,273.03954537499885,273.06066287499925,273.06066287499925,273.06066287499925,273.06066287499925,273.05568729166794,273.06066287499925,273.06066287499925,275.64353145800123,Correct! صحیح است,0,31,3,2.5733007920025557,None,275.64854812499834,275.66109320800024,277.6461510000008,277.667483833,,,825309,001,2024-07-01_20h41.28.338,5-26,2024.1.4,None,2024-07-01 20h41.33.325602 +0900,
Images/Speaker1.jpg,Images/Speaker2.jpg,Images/Speaker3.jpg,Images/Speaker4.jpg,Audio/Speaker2_En/P2-7-En.wav,Speaker2,گوینده۲,,,,,,,,,0,1,1,64,0,15,15,26,277.667483833,,,,,,,,,,,,,,,,,,,,,,,,,,,,,,,,,,,,,,,,,,,,,277.6463181660001,277.667483833,277.667483833,277.667483833,277.667483833,277.66251579166806,277.667483833,277.667483833,278.7199760000003,Correct! صحیح است,0,33,2,1.0473168750031618,None,278.7238307080006,278.7351400410007,280.7210235829989,280.74203962499814,,,825309,001,2024-07-01_20h41.28.338,5-26,2024.1.4,None,2024-07-01 20h41.33.325602 +0900,
Images/Speaker1.jpg,Images/Speaker2.jpg,Images/Speaker3.jpg,Images/Speaker4.jpg,Audio/Speaker4_En/P4-16-En.wav,Speaker4,گوینده۴,,,,,,,,,0,1,1,64,0,16,16,75,280.74203962499814,,,,,,,,,,,,,,,,,,,,,,,,,,,,,,,,,,,,,,,,,,,,,280.72123075000127,280.74203962499814,280.74203962499814,280.74203962499814,280.74203962499814,280.73745862466626,280.74203962499814,280.74203962499814,282.79095341599896,Correct! صحیح است,0,35,4,2.0469533750001574,None,282.7951045830014,282.807072874999,284.79335462499876,284.8147568329987,,,825309,001,2024-07-01_20h41.28.338,5-26,2024.1.4,None,2024-07-01 20h41.33.325602 +0900,
Images/Speaker1.jpg,Images/Speaker2.jpg,Images/Speaker3.jpg,Images/Speaker4.jpg,Audio/Speaker4_En/P4-8-En.wav,Speaker4,گوینده۴,,,,,,,,,0,1,1,64,0,17,17,67,284.8147568329987,,,,,,,,,,,,,,,,,,,,,,,,,,,,,,,,,,,,,,,,,,,,,284.7935218329985,284.8147568329987,284.8147568329987,284.8147568329987,284.8147568329987,284.80978820766563,284.8147568329987,284.8147568329987,286.3085059160003,Correct! صحیح است,0,37,4,1.490244291999261,None,286.31253629099956,286.3239050410011,288.3074144159982,288.3298423749984,,,825309,001,2024-07-01_20h41.28.338,5-26,2024.1.4,None,2024-07-01 20h41.33.325602 +0900,
Images/Speaker1.jpg,Images/Speaker2.jpg,Images/Speaker3.jpg,Images/Speaker4.jpg,Audio/Speaker2_En/P2-2-En.wav,Speaker2,گوینده۲,,,,,,,,,0,1,1,64,0,18,18,21,288.3298423749984,,,,,,,,,,,,,,,,,,,,,,,,,,,,,,,,,,,,,,,,,,,,,288.3083090830005,288.3298423749984,288.3298423749984,288.3298423749984,288.3298423749984,288.3397619163338,288.3298423749984,288.3298423749984,289.63660666600117,Correct! صحیح است,0,39,2,1.3051297909987625,None,289.64075270800095,289.6517142909979,291.64063824999903,291.6623803330003,,,825309,001,2024-07-01_20h41.28.338,5-26,2024.1.4,None,2024-07-01 20h41.33.325602 +0900,
Images/Speaker1.jpg,Images/Speaker2.jpg,Images/Speaker3.jpg,Images/Speaker4.jpg,Audio/Speaker4_En/P4-5-En.wav,Speaker4,گوینده۴,,,,,,,,,0,1,1,64,0,19,19,64,291.6623803330003,,,,,,,,,,,,,,,,,,,,,,,,,,,,,,,,,,,,,,,,,,,,,291.64079866599786,291.6623803330003,291.6623803330003,291.6623803330003,291.6623803330003,291.6569707496676,291.6623803330003,291.6623803330003,293.52750087499953,Correct! صحیح است,0,41,4,1.8591249580022122,None,293.5317377079991,293.5426335000011,295.5342080829978,,,,825309,001,2024-07-01_20h41.28.338,5-26,2024.1.4,None,2024-07-01 20h41.33.325602 +0900,
Images/Speaker1.jpg,Images/Speaker2.jpg,Images/Speaker3.jpg,Images/Speaker4.jpg,Audio/Speaker3_En/P3-7-En.wav,Speaker3,گوینده۳,,,,,,,,,0,1,1,64,0,20,20,46,295.559305499999,,,,,,,,,,,,,,,,,,,,,,,,,,,,,,,,,,,,,,,,,,,,,295.53482441600136,295.559305499999,295.559305499999,295.559305499999,295.559305499999,295.5673573333338,295.559305499999,295.559305499999,297.16499991599994,Correct! صحیح است,0,43,3,1.6010563329982688,None,297.1692513329981,297.1805975829993,299.1762272909982,,,,825309,001,2024-07-01_20h41.28.338,5-26,2024.1.4,None,2024-07-01 20h41.33.325602 +0900,
Images/Speaker1.jpg,Images/Speaker2.jpg,Images/Speaker3.jpg,Images/Speaker4.jpg,Audio/Speaker1_En/P1-2-En.wav,Speaker1,گوینده ۱,,,,,,,,,0,1,1,64,0,21,21,1,299.2019807079996,,,,,,,,,,,,,,,,,,,,,,,,,,,,,,,,,,,,,,,,,,,,,299.1768697080006,299.2019807079996,299.2019807079996,299.2019807079996,299.2019807079996,299.20939879133266,299.2019807079996,299.2019807079996,299.956639,Correct! صحیح است,0,45,1,0.7421933750010794,None,299.9605409579999,299.97002237500055,301.958167165998,301.9793373749999,,,825309,001,2024-07-01_20h41.28.338,5-26,2024.1.4,None,2024-07-01 20h41.33.325602 +0900,
Images/Speaker1.jpg,Images/Speaker2.jpg,Images/Speaker3.jpg,Images/Speaker4.jpg,Audio/Speaker2_En/P2-4-En.wav,Speaker2,گوینده۲,,,,,,,,,0,1,1,64,0,22,22,23,301.9793373749999,,,,,,,,,,,,,,,,,,,,,,,,,,,,,,,,,,,,,,,,,,,,,301.95834020799884,301.9793373749999,301.9793373749999,301.9793373749999,301.9793373749999,301.974544957666,301.9793373749999,301.9793373749999,303.17538270799923,Correct! صحیح است,0,47,2,1.1938808750019234,None,303.18056333300046,303.1926122500008,305.17764783299936,305.1992256659978,,,825309,001,2024-07-01_20h41.28.338,5-26,2024.1.4,None,2024-07-01 20h41.33.325602 +0900,
Images/Speaker1.jpg,Images/Speaker2.jpg,Images/Speaker3.jpg,Images/Speaker4.jpg,Audio/Speaker3_En/P3-10-En.wav,Speaker3,گوینده۳,,,,,,,,,0,1,1,64,0,23,23,49,305.1992256659978,,,,,,,,,,,,,,,,,,,,,,,,,,,,,,,,,,,,,,,,,,,,,305.17784958300035,305.1992256659978,305.1992256659978,305.1992256659978,305.1992256659978,305.19395249966715,305.1992256659978,305.1992256659978,306.9314955830014,Correct! صحیح است,0,49,3,1.7280605419982749,None,306.93542162499944,306.9463465410008,308.93116141599967,308.9530003330001,,,825309,001,2024-07-01_20h41.28.338,5-26,2024.1.4,None,2024-07-01 20h41.33.325602 +0900,
Images/Speaker1.jpg,Images/Speaker2.jpg,Images/Speaker3.jpg,Images/Speaker4.jpg,Audio/Speaker1_En/P1-7-En.wav,Speaker1,گوینده ۱,,,,,,,,,0,1,1,64,0,24,24,6,308.9530003330001,,,,,,,,,,,,,,,,,,,,,,,,,,,,,,,,,,,,,,,,,,,,,308.93136225000126,308.9530003330001,308.9530003330001,308.9530003330001,308.9530003330001,308.9474973746658,308.9530003330001,308.9530003330001,310.1739642499997,Correct! صحیح است,0,51,1,1.2139211249996151,None,310.17876316600086,310.1916038329982,312.1764664580005,312.199278707998,,,825309,001,2024-07-01_20h41.28.338,5-26,2024.1.4,None,2024-07-01 20h41.33.325602 +0900,
Images/Speaker1.jpg,Images/Speaker2.jpg,Images/Speaker3.jpg,Images/Speaker4.jpg,Audio/Speaker4_En/P4-19-En.wav,Speaker4,گوینده۴,,,,,,,,,0,1,1,64,0,25,25,78,312.199278707998,,,,,,,,,,,,,,,,,,,,,,,,,,,,,,,,,,,,,,,,,,,,,312.1766722499997,312.199278707998,312.199278707998,312.199278707998,312.199278707998,312.1929089166663,312.199278707998,312.199278707998,313.32927979099986,Correct! صحیح است,0,53,4,1.1227215830003843,None,313.33353262499804,313.342715666,315.33228600000075,315.3561462079997,,,825309,001,2024-07-01_20h41.28.338,5-26,2024.1.4,None,2024-07-01 20h41.33.325602 +0900,
Images/Speaker1.jpg,Images/Speaker2.jpg,Images/Speaker3.jpg,Images/Speaker4.jpg,Audio/Speaker3_En/P3-1-En.wav,Speaker3,گوینده۳,,,,,,,,,0,1,1,64,0,26,26,40,315.3561462079997,,,,,,,,,,,,,,,,,,,,,,,,,,,,,,,,,,,,,,,,,,,,,315.33333395799855,315.3561462079997,315.3561462079997,315.3561462079997,315.3561462079997,315.3646744163311,315.3561462079997,315.3561462079997,316.58676795800056,Correct! صحیح است,0,55,3,1.2260753339978692,None,316.5905750409984,316.60243816599905,318.5901487080009,318.61131187499996,,,825309,001,2024-07-01_20h41.28.338,5-26,2024.1.4,None,2024-07-01 20h41.33.325602 +0900,
Images/Speaker1.jpg,Images/Speaker2.jpg,Images/Speaker3.jpg,Images/Speaker4.jpg,Audio/Speaker4_En/P4-6-En.wav,Speaker4,گوینده۴,,,,,,,,,0,1,1,64,0,27,27,65,318.61131187499996,,,,,,,,,,,,,,,,,,,,,,,,,,,,,,,,,,,,,,,,,,,,,318.5903131249979,318.61131187499996,318.61131187499996,318.61131187499996,318.61131187499996,318.60659520766444,318.61131187499996,318.61131187499996,320.3098180409979,Correct! صحیح است,0,57,4,1.6884407920006197,None,320.31469079100134,320.3275573329993,322.31523829100115,,,,825309,001,2024-07-01_20h41.28.338,5-26,2024.1.4,None,2024-07-01 20h41.33.325602 +0900,
Images/Speaker1.jpg,Images/Speaker2.jpg,Images/Speaker3.jpg,Images/Speaker4.jpg,Audio/Speaker2_En/P2-10-En.wav,Speaker2,گوینده۲,,,,,,,,,0,1,1,64,0,28,28,29,322.3359707499985,,,,,,,,,,,,,,,,,,,,,,,,,,,,,,,,,,,,,,,,,,,,,322.3154110830001,322.3359707499985,322.3359707499985,322.3359707499985,322.3359707499985,322.3318737496668,322.3359707499985,322.3359707499985,323.45817404099944,Correct! صحیح است,0,59,2,1.114863916998729,None,323.4624867079983,323.47346333300084,325.4586222910002,325.4798898330009,,,825309,001,2024-07-01_20h41.28.338,5-26,2024.1.4,None,2024-07-01 20h41.33.325602 +0900,
Images/Speaker1.jpg,Images/Speaker2.jpg,Images/Speaker3.jpg,Images/Speaker4.jpg,Audio/Speaker1_En/P1-3-En.wav,Speaker1,گوینده ۱,,,,,,,,,0,1,1,64,0,29,29,2,325.4798898330009,,,,,,,,,,,,,,,,,,,,,,,,,,,,,,,,,,,,,,,,,,,,,325.45879941599924,325.4798898330009,325.4798898330009,325.4798898330009,325.4798898330009,325.47487712466705,325.4798898330009,325.4798898330009,326.66254995800045,Correct! صحیح است,0,61,1,1.1798869999984163,None,326.66647250000096,326.67770729100084,328.6616983749991,328.68366445799984,,,825309,001,2024-07-01_20h41.28.338,5-26,2024.1.4,None,2024-07-01 20h41.33.325602 +0900,
Images/Speaker1.jpg,Images/Speaker2.jpg,Images/Speaker3.jpg,Images/Speaker4.jpg,Audio/Speaker3_En/P3-4-En.wav,Speaker3,گوینده۳,,,,,,,,,0,1,1,64,0,30,30,43,328.68366445799984,,,,,,,,,,,,,,,,,,,,,,,,,,,,,,,,,,,,,,,,,,,,,328.66187020800135,328.68366445799984,328.68366445799984,328.68366445799984,328.68366445799984,328.6781317076677,328.68366445799984,328.68366445799984,329.92328949999865,Correct! صحیح است,0,63,3,1.227547834001598,None,329.92724333300066,329.93579908299944,331.9190361660003,331.94037633300104,,,825309,001,2024-07-01_20h41.28.338,5-26,2024.1.4,None,2024-07-01 20h41.33.325602 +0900,
Images/Speaker1.jpg,Images/Speaker2.jpg,Images/Speaker3.jpg,Images/Speaker4.jpg,Audio/Speaker1_En/P1-5-En.wav,Speaker1,گوینده ۱,,,,,,,,,0,1,1,64,0,31,31,4,331.94037633300104,,,,,,,,,,,,,,,,,,,,,,,,,,,,,,,,,,,,,,,,,,,,,331.91921666599956,331.94037633300104,331.94037633300104,331.94037633300104,331.94037633300104,331.9354870416648,331.94037633300104,331.94037633300104,333.19801245800045,Correct! صحیح است,0,65,1,1.2526603329970385,None,333.20195791600054,333.2136070409979,335.19805545800045,335.2192484160005,,,825309,001,2024-07-01_20h41.28.338,5-26,2024.1.4,None,2024-07-01 20h41.33.325602 +0900,
Images/Speaker1.jpg,Images/Speaker2.jpg,Images/Speaker3.jpg,Images/Speaker4.jpg,Audio/Speaker4_En/P4-12-En.wav,Speaker4,گوینده۴,,,,,,,,,0,1,1,64,0,32,32,71,335.2192484160005,,,,,,,,,,,,,,,,,,,,,,,,,,,,,,,,,,,,,,,,,,,,,335.198219124999,335.2192484160005,335.2192484160005,335.2192484160005,335.2192484160005,335.21448183266716,335.2192484160005,335.2192484160005,336.92372025000077,Correct! صحیح است,0,67,4,1.7034470840007998,None,336.9278732499988,336.9391396659994,338.93315645799885,,,,825309,001,2024-07-01_20h41.28.338,5-26,2024.1.4,None,2024-07-01 20h41.33.325602 +0900,
Images/Speaker1.jpg,Images/Speaker2.jpg,Images/Speaker3.jpg,Images/Speaker4.jpg,Audio/Speaker3_En/P3-13-En.wav,Speaker3,گوینده۳,,,,,,,,,0,1,1,64,0,33,33,52,338.95709995799916,,,,,,,,,,,,,,,,,,,,,,,,,,,,,,,,,,,,,,,,,,,,,338.9337942079983,338.95709995799916,338.95709995799916,338.95709995799916,338.95709995799916,338.96629674933183,338.95709995799916,338.95709995799916,341.05896991600093,Correct! صحیح است,0,69,3,2.0991369580005994,None,341.06290858300054,341.07426312499956,343.06117908300075,343.08698300000106,,,825309,001,2024-07-01_20h41.28.338,5-26,2024.1.4,None,2024-07-01 20h41.33.325602 +0900,
Images/Speaker1.jpg,Images/Speaker2.jpg,Images/Speaker3.jpg,Images/Speaker4.jpg,Audio/Speaker2_En/P2-1-En.wav,Speaker2,گوینده۲,,,,,,,,,0,1,1,64,0,34,34,20,343.08698300000106,,,,,,,,,,,,,,,,,,,,,,,,,,,,,,,,,,,,,,,,,,,,,343.0621357909986,343.08698300000106,343.08698300000106,343.08698300000106,343.08698300000106,343.0934794993341,343.08698300000106,343.08698300000106,344.4823225,Correct! صحیح است,0,71,2,1.3877079999983835,None,344.4876457909995,344.4998161250005,346.4827865410007,346.50350691600033,,,825309,001,2024-07-01_20h41.28.338,5-26,2024.1.4,None,2024-07-01 20h41.33.325602 +0900,
Images/Speaker1.jpg,Images/Speaker2.jpg,Images/Speaker3.jpg,Images/Speaker4.jpg,Audio/Speaker1_En/P1-20-En.wav,Speaker1,گوینده ۱,,,,,,,,,0,1,1,64,0,35,35,19,346.50350691600033,,,,,,,,,,,,,,,,,,,,,,,,,,,,,,,,,,,,,,,,,,,,,346.4829777499981,346.50350691600033,346.50350691600033,346.50350691600033,346.50350691600033,346.49921783266495,346.50350691600033,346.50350691600033,347.6863662079995,Correct! صحیح است,0,73,1,1.1779710419978073,None,347.69009654099864,347.7010062500012,349.68954770799974,349.7102360829995,,,825309,001,2024-07-01_20h41.28.338,5-26,2024.1.4,None,2024-07-01 20h41.33.325602 +0900,
Images/Speaker1.jpg,Images/Speaker2.jpg,Images/Speaker3.jpg,Images/Speaker4.jpg,Audio/Speaker2_En/P2-3-En.wav,Speaker2,گوینده۲,,,,,,,,,0,1,1,64,0,36,36,22,349.7102360829995,,,,,,,,,,,,,,,,,,,,,,,,,,,,,,,,,,,,,,,,,,,,,349.6897438749984,349.7102360829995,349.7102360829995,349.7102360829995,349.7102360829995,349.7058947496664,349.7102360829995,349.7102360829995,351.5874057910005,Correct! صحیح است,0,75,2,1.86691616600001,None,351.5917144160012,351.6009304580002,353.5886716249988,353.6105537080002,,,825309,001,2024-07-01_20h41.28.338,5-26,2024.1.4,None,2024-07-01 20h41.33.325602 +0900,
Images/Speaker1.jpg,Images/Speaker2.jpg,Images/Speaker3.jpg,Images/Speaker4.jpg,Audio/Speaker4_En/P4-15-En.wav,Speaker4,گوینده۴,,,,,,,,,0,1,1,64,0,37,37,74,353.6105537080002,,,,,,,,,,,,,,,,,,,,,,,,,,,,,,,,,,,,,,,,,,,,,353.58883895799954,353.6105537080002,353.6105537080002,353.6105537080002,353.6105537080002,353.60505104166464,353.6105537080002,353.6105537080002,354.97393137499967,Correct! صحیح است,0,77,4,1.3511321669975587,None,354.97888458300076,354.9913002079993,356.97505662500043,356.9963106659998,,,825309,001,2024-07-01_20h41.28.338,5-26,2024.1.4,None,2024-07-01 20h41.33.325602 +0900,
Images/Speaker1.jpg,Images/Speaker2.jpg,Images/Speaker3.jpg,Images/Speaker4.jpg,Audio/Speaker1_En/P1-10-En.wav,Speaker1,گوینده ۱,,,,,,,,,0,1,1,64,0,38,38,9,356.9963106659998,,,,,,,,,,,,,,,,,,,,,,,,,,,,,,,,,,,,,,,,,,,,,356.9752491250001,356.9963106659998,356.9963106659998,356.9963106659998,356.9963106659998,356.99135370766476,356.9963106659998,356.9963106659998,358.2484333749999,Correct! صحیح است,0,79,1,1.2455769580010383,None,358.2523576249987,358.26382170799843,360.2521645409979,360.27405808299955,,,825309,001,2024-07-01_20h41.28.338,5-26,2024.1.4,None,2024-07-01 20h41.33.325602 +0900,
Images/Speaker1.jpg,Images/Speaker2.jpg,Images/Speaker3.jpg,Images/Speaker4.jpg,Audio/Speaker4_En/P4-1-En.wav,Speaker4,گوینده۴,,,,,,,,,0,1,1,64,0,39,39,60,360.27405808299955,,,,,,,,,,,,,,,,,,,,,,,,,,,,,,,,,,,,,,,,,,,,,360.2523497080001,360.27405808299955,360.27405808299955,360.27405808299955,360.27405808299955,360.26857258266705,360.27405808299955,360.27405808299955,362.15872158300044,Correct! صحیح است,0,81,4,1.8771331669995561,None,362.16290500000105,362.1711613330008,364.157008457998,364.1786696249983,,,825309,001,2024-07-01_20h41.28.338,5-26,2024.1.4,None,2024-07-01 20h41.33.325602 +0900,
Images/Speaker1.jpg,Images/Speaker2.jpg,Images/Speaker3.jpg,Images/Speaker4.jpg,Audio/Speaker3_En/P3-2-En.wav,Speaker3,گوینده۳,,,,,,,,,0,1,1,64,0,40,40,41,364.1786696249983,,,,,,,,,,,,,,,,,,,,,,,,,,,,,,,,,,,,,,,,,,,,,364.1572114160008,364.1786696249983,364.1786696249983,364.1786696249983,364.1786696249983,364.1734388326661,364.1786696249983,364.1786696249983,366.00738958299917,Correct! صحیح است,0,83,3,1.8204099579998,None,366.0114536250003,366.02277683300053,368.016178124999,,,,825309,001,2024-07-01_20h41.28.338,5-26,2024.1.4,None,2024-07-01 20h41.33.325602 +0900,
Images/Speaker1.jpg,Images/Speaker2.jpg,Images/Speaker3.jpg,Images/Speaker4.jpg,Audio/Speaker1_En/P1-17-En.wav,Speaker1,گوینده ۱,,,,,,,,,0,1,1,64,0,41,41,16,368.03707404099987,,,,,,,,,,,,,,,,,,,,,,,,,,,,,,,,,,,,,,,,,,,,,368.0164062500007,368.03707404099987,368.03707404099987,368.03707404099987,368.03707404099987,368.0327834576676,368.03707404099987,368.03707404099987,369.4681848330001,Correct! صحیح است,0,85,1,1.4298682080006984,None,369.4724252909982,369.48453604099996,371.4736037500006,,,,825309,001,2024-07-01_20h41.28.338,5-26,2024.1.4,None,2024-07-01 20h41.33.325602 +0900,
Images/Speaker1.jpg,Images/Speaker2.jpg,Images/Speaker3.jpg,Images/Speaker4.jpg,Audio/Speaker1_En/P1-8-En.wav,Speaker1,گوینده ۱,,,,,,,,,0,1,1,64,0,42,42,7,371.4952392499981,,,,,,,,,,,,,,,,,,,,,,,,,,,,,,,,,,,,,,,,,,,,,371.4737812079984,371.4952392499981,371.4952392499981,371.4952392499981,371.4952392499981,371.4902310826658,371.4952392499981,371.4952392499981,372.89927016599904,Correct! صحیح است,0,87,1,1.3978617079992546,None,372.90305591599827,372.9144419160002,374.9062715,,,,825309,001,2024-07-01_20h41.28.338,5-26,2024.1.4,None,2024-07-01 20h41.33.325602 +0900,
Images/Speaker1.jpg,Images/Speaker2.jpg,Images/Speaker3.jpg,Images/Speaker4.jpg,Audio/Speaker3_En/P3-15-En.wav,Speaker3,گوینده۳,,,,,,,,,0,1,1,64,0,43,43,54,374.9297794999984,,,,,,,,,,,,,,,,,,,,,,,,,,,,,,,,,,,,,,,,,,,,,374.90645349999977,374.9297794999984,374.9297794999984,374.9297794999984,374.9297794999984,374.93957379133326,374.9297794999984,374.9297794999984,377.03159049999886,Correct! صحیح است,0,89,3,2.0992871249982272,None,377.03582720800114,377.0470903329988,379.030357874999,379.05420766599855,,,825309,001,2024-07-01_20h41.28.338,5-26,2024.1.4,None,2024-07-01 20h41.33.325602 +0900,
Images/Speaker1.jpg,Images/Speaker2.jpg,Images/Speaker3.jpg,Images/Speaker4.jpg,Audio/Speaker4_En/P4-14-En.wav,Speaker4,گوینده۴,,,,,,,,,0,1,1,64,0,44,44,73,379.05420766599855,,,,,,,,,,,,,,,,,,,,,,,,,,,,,,,,,,,,,,,,,,,,,379.0305438329997,379.05420766599855,379.05420766599855,379.05420766599855,379.05420766599855,379.06335279133464,379.05420766599855,379.05420766599855,380.37062466600037,Correct! صحیح است,0,91,4,1.3109885410012794,None,380.37464075000025,380.386036666001,382.37382666600024,382.3965490829978,,,825309,001,2024-07-01_20h41.28.338,5-26,2024.1.4,None,2024-07-01 20h41.33.325602 +0900,
Images/Speaker1.jpg,Images/Speaker2.jpg,Images/Speaker3.jpg,Images/Speaker4.jpg,Audio/Speaker1_En/P1-4-En.wav,Speaker1,گوینده ۱,,,,,,,,,0,1,1,64,0,45,45,3,382.3965490829978,,,,,,,,,,,,,,,,,,,,,,,,,,,,,,,,,,,,,,,,,,,,,382.37478358299995,382.3965490829978,382.3965490829978,382.3965490829978,382.3965490829978,382.4061707083315,382.3965490829978,382.3965490829978,383.64267679099794,Correct! صحیح است,0,93,1,1.2376079999994545,None,383.64685483300127,383.655336374999,385.64135591599916,385.66215708299933,,,825309,001,2024-07-01_20h41.28.338,5-26,2024.1.4,None,2024-07-01 20h41.33.325602 +0900,
Images/Speaker1.jpg,Images/Speaker2.jpg,Images/Speaker3.jpg,Images/Speaker4.jpg,Audio/Speaker2_En/P2-12-En.wav,Speaker2,گوینده۲,,,,,,,,,0,1,1,64,0,46,46,31,385.66215708299933,,,,,,,,,,,,,,,,,,,,,,,,,,,,,,,,,,,,,,,,,,,,,385.6415212079992,385.66215708299933,385.66215708299933,385.66215708299933,385.66215708299933,385.6576557076662,385.66215708299933,385.66215708299933,387.5160282079996,Correct! صحیح است,0,95,2,1.850746041000093,None,387.52029895799933,387.5329588329987,389.518718583,389.54017833299804,,,825309,001,2024-07-01_20h41.28.338,5-26,2024.1.4,None,2024-07-01 20h41.33.325602 +0900,
Images/Speaker1.jpg,Images/Speaker2.jpg,Images/Speaker3.jpg,Images/Speaker4.jpg,Audio/Speaker3_En/P3-19-En.wav,Speaker3,گوینده۳,,,,,,,,,0,1,1,64,0,47,47,58,389.54017833299804,,,,,,,,,,,,,,,,,,,,,,,,,,,,,,,,,,,,,,,,,,,,,389.518915790999,389.54017833299804,389.54017833299804,389.54017833299804,389.54017833299804,389.53515220766735,389.54017833299804,389.54017833299804,391.8650594999999,Correct! صحیح است,0,97,3,2.3184163330006413,None,391.86938770800043,391.880297290998,393.8683335829992,393.89014675,,,825309,001,2024-07-01_20h41.28.338,5-26,2024.1.4,None,2024-07-01 20h41.33.325602 +0900,
Images/Speaker1.jpg,Images/Speaker2.jpg,Images/Speaker3.jpg,Images/Speaker4.jpg,Audio/Speaker4_En/P4-9-En.wav,Speaker4,گوینده۴,,,,,,,,,0,1,1,64,0,48,48,68,393.89014675,,,,,,,,,,,,,,,,,,,,,,,,,,,,,,,,,,,,,,,,,,,,,393.8693647079999,393.89014675,393.89014675,393.89014675,393.89014675,393.90070724933366,393.89014675,393.89014675,395.2033554160007,Correct! صحیح است,0,99,4,1.311251874998561,None,395.2072193749991,395.21859233299983,397.20303837499887,397.22517579099804,,,825309,001,2024-07-01_20h41.28.338,5-26,2024.1.4,None,2024-07-01 20h41.33.325602 +0900,
Images/Speaker1.jpg,Images/Speaker2.jpg,Images/Speaker3.jpg,Images/Speaker4.jpg,Audio/Speaker2_En/P2-13-En.wav,Speaker2,گوینده۲,,,,,,,,,0,1,1,64,0,49,49,32,397.22517579099804,,,,,,,,,,,,,,,,,,,,,,,,,,,,,,,,,,,,,,,,,,,,,397.20321183299893,397.22517579099804,397.22517579099804,397.22517579099804,397.22517579099804,397.2193559576665,397.22517579099804,397.22517579099804,398.83204037500036,Correct! صحیح است,0,101,2,1.5987519170012092,None,398.83689879099984,398.8501511249997,400.8403799999978,,,,825309,001,2024-07-01_20h41.28.338,5-26,2024.1.4,None,2024-07-01 20h41.33.325602 +0900,
Images/Speaker1.jpg,Images/Speaker2.jpg,Images/Speaker3.jpg,Images/Speaker4.jpg,Audio/Speaker1_En/P1-12-En.wav,Speaker1,گوینده ۱,,,,,,,,,0,1,1,64,0,50,50,11,400.86336908299927,,,,,,,,,,,,,,,,,,,,,,,,,,,,,,,,,,,,,,,,,,,,,400.84094837500015,400.86336908299927,400.86336908299927,400.86336908299927,400.86336908299927,400.8569112076659,400.86336908299927,400.86336908299927,401.9068013750002,Correct! صحیح است,0,103,1,1.0352543330009212,None,401.91069145800066,401.9219244579981,403.9153015000011,,,,825309,001,2024-07-01_20h41.28.338,5-26,2024.1.4,None,2024-07-01 20h41.33.325602 +0900,
Images/Speaker1.jpg,Images/Speaker2.jpg,Images/Speaker3.jpg,Images/Speaker4.jpg,Audio/Speaker2_En/P2-8-En.wav,Speaker2,گوینده۲,,,,,,,,,0,1,1,64,0,51,51,27,403.9367194160004,,,,,,,,,,,,,,,,,,,,,,,,,,,,,,,,,,,,,,,,,,,,,403.9154691250005,403.9367194160004,403.9367194160004,403.9367194160004,403.9367194160004,403.93193658266705,403.9367194160004,403.9367194160004,405.18044762499994,Correct! صحیح است,0,105,2,1.2407277079983032,None,405.1844969160011,405.1962068749999,407.18956854099815,,,,825309,001,2024-07-01_20h41.28.338,5-26,2024.1.4,None,2024-07-01 20h41.33.325602 +0900,
Images/Speaker1.jpg,Images/Speaker2.jpg,Images/Speaker3.jpg,Images/Speaker4.jpg,Audio/Speaker4_En/P4-13-En.wav,Speaker4,گوینده۴,,,,,,,,,0,1,1,64,0,52,52,72,407.2110801659983,,,,,,,,,,,,,,,,,,,,,,,,,,,,,,,,,,,,,,,,,,,,,407.1897338329982,407.2110801659983,407.2110801659983,407.2110801659983,407.2110801659983,407.20620220766455,407.2110801659983,407.2110801659983,409.06518349999897,Correct! صحیح است,0,107,4,1.85260554100023,None,409.06948833299975,409.08084574999884,411.07422849999784,,,,825309,001,2024-07-01_20h41.28.338,5-26,2024.1.4,None,2024-07-01 20h41.33.325602 +0900,
Images/Speaker1.jpg,Images/Speaker2.jpg,Images/Speaker3.jpg,Images/Speaker4.jpg,Audio/Speaker4_En/P4-7-En.wav,Speaker4,گوینده۴,,,,,,,,,0,1,1,64,0,53,53,66,411.095635624999,,,,,,,,,,,,,,,,,,,,,,,,,,,,,,,,,,,,,,,,,,,,,411.074433875001,411.095635624999,411.095635624999,411.095635624999,411.095635624999,411.09085741666445,411.095635624999,411.095635624999,412.98772504099907,Correct! صحیح است,0,109,4,1.884603624999727,None,412.99211195799944,413.0031567500009,414.99233874999845,415.0177582079996,,,825309,001,2024-07-01_20h41.28.338,5-26,2024.1.4,None,2024-07-01 20h41.33.325602 +0900,
Images/Speaker1.jpg,Images/Speaker2.jpg,Images/Speaker3.jpg,Images/Speaker4.jpg,Audio/Speaker4_En/P4-10-En.wav,Speaker4,گوینده۴,,,,,,,,,0,1,1,64,0,54,54,69,415.0177582079996,,,,,,,,,,,,,,,,,,,,,,,,,,,,,,,,,,,,,,,,,,,,,414.9929739580002,415.0177582079996,415.0177582079996,415.0177582079996,415.0177582079996,415.0247216243338,415.0177582079996,415.0177582079996,417.04914633299995,Correct! صحیح است,0,111,4,2.030305167001643,None,417.05298845799916,417.0645338329996,419.0486898329982,419.0696199160011,,,825309,001,2024-07-01_20h41.28.338,5-26,2024.1.4,None,2024-07-01 20h41.33.325602 +0900,
Images/Speaker1.jpg,Images/Speaker2.jpg,Images/Speaker3.jpg,Images/Speaker4.jpg,Audio/Speaker2_En/P2-11-En.wav,Speaker2,گوینده۲,,,,,,,,,0,1,1,64,0,55,55,30,419.0696199160011,,,,,,,,,,,,,,,,,,,,,,,,,,,,,,,,,,,,,,,,,,,,,419.04885537500013,419.0696199160011,419.0696199160011,419.0696199160011,419.0696199160011,419.06512195766504,419.0696199160011,419.0696199160011,420.74132816600104,Correct! صحیح است,0,113,2,1.6669585000017832,None,420.7464442909986,420.75899845800086,422.7506104999993,,,,825309,001,2024-07-01_20h41.28.338,5-26,2024.1.4,None,2024-07-01 20h41.33.325602 +0900,
Images/Speaker1.jpg,Images/Speaker2.jpg,Images/Speaker3.jpg,Images/Speaker4.jpg,Audio/Speaker1_En/P1-19-En.wav,Speaker1,گوینده ۱,,,,,,,,,0,1,1,64,0,56,56,18,422.7744495000006,,,,,,,,,,,,,,,,,,,,,,,,,,,,,,,,,,,,,,,,,,,,,422.75127200000134,422.7744495000006,422.7744495000006,422.7744495000006,422.7744495000006,422.78378608333196,422.7744495000006,422.7744495000006,423.9005800410014,Correct! صحیح است,0,115,1,1.1196593329987081,None,423.90456354100024,423.9163230000013,425.90130345799844,425.92218762500124,,,825309,001,2024-07-01_20h41.28.338,5-26,2024.1.4,None,2024-07-01 20h41.33.325602 +0900,
Images/Speaker1.jpg,Images/Speaker2.jpg,Images/Speaker3.jpg,Images/Speaker4.jpg,Audio/Speaker2_En/P2-19-En.wav,Speaker2,گوینده۲,,,,,,,,,0,1,1,64,0,57,57,38,425.92218762500124,,,,,,,,,,,,,,,,,,,,,,,,,,,,,,,,,,,,,,,,,,,,,425.90146687499873,425.92218762500124,425.92218762500124,425.92218762500124,425.92218762500124,425.91772779166445,425.92218762500124,425.92218762500124,427.17862166600025,Correct! صحیح است,0,117,2,1.2553078340024513,None,427.18227058299817,427.19327633300054,429.1826776659982,,,,825309,001,2024-07-01_20h41.28.338,5-26,2024.1.4,None,2024-07-01 20h41.33.325602 +0900,
Images/Speaker1.jpg,Images/Speaker2.jpg,Images/Speaker3.jpg,Images/Speaker4.jpg,Audio/Speaker2_En/P2-18-En.wav,Speaker2,گوینده۲,,,,,,,,,0,1,1,64,0,58,58,37,429.20312645800004,,,,,,,,,,,,,,,,,,,,,,,,,,,,,,,,,,,,,,,,,,,,,429.18286420799996,429.20312645800004,429.20312645800004,429.20312645800004,429.20312645800004,429.1992865416653,429.20312645800004,429.20312645800004,431.01721175000057,Correct! صحیح است,0,119,2,1.8020002500015835,None,431.02114399999846,431.0326344999994,433.01950012499947,433.0413299159991,,,825309,001,2024-07-01_20h41.28.338,5-26,2024.1.4,None,2024-07-01 20h41.33.325602 +0900,
Images/Speaker1.jpg,Images/Speaker2.jpg,Images/Speaker3.jpg,Images/Speaker4.jpg,Audio/Speaker2_En/P2-5-En.wav,Speaker2,گوینده۲,,,,,,,,,0,1,1,64,0,59,59,24,433.0413299159991,,,,,,,,,,,,,,,,,,,,,,,,,,,,,,,,,,,,,,,,,,,,,433.01969466599985,433.0413299159991,433.0413299159991,433.0413299159991,433.0413299159991,433.03591904166774,433.0413299159991,433.0413299159991,434.49914262499806,Correct! صحیح است,0,121,2,1.447338417001447,None,434.50303087499924,434.5137989579998,436.5089612499978,,,,825309,001,2024-07-01_20h41.28.338,5-26,2024.1.4,None,2024-07-01 20h41.33.325602 +0900,
Images/Speaker1.jpg,Images/Speaker2.jpg,Images/Speaker3.jpg,Images/Speaker4.jpg,Audio/Speaker1_En/P1-15-En.wav,Speaker1,گوینده ۱,,,,,,,,,0,1,1,64,0,60,60,14,436.5347440000005,,,,,,,,,,,,,,,,,,,,,,,,,,,,,,,,,,,,,,,,,,,,,436.5095948749986,436.5347440000005,436.5347440000005,436.5347440000005,436.5347440000005,436.5421011243311,436.5347440000005,436.5347440000005,437.63269466600104,Correct! صحیح است,0,123,1,1.0946937920016353,None,437.63650479100033,437.6474437500001,439.63416716600113,439.65929833300106,,,825309,001,2024-07-01_20h41.28.338,5-26,2024.1.4,None,2024-07-01 20h41.33.325602 +0900,
Images/Speaker1.jpg,Images/Speaker2.jpg,Images/Speaker3.jpg,Images/Speaker4.jpg,Audio/Speaker1_En/P1-1-En.wav,Speaker1,گوینده ۱,,,,,,,,,0,1,1,64,0,61,61,0,439.65929833300106,,,,,,,,,,,,,,,,,,,,,,,,,,,,,,,,,,,,,,,,,,,,,439.6348273750009,439.65929833300106,439.65929833300106,439.65929833300106,439.65929833300106,439.66646254133275,439.65929833300106,439.65929833300106,441.2787252909984,Correct! صحیح است,0,125,1,1.6164439999993192,None,441.2830876250009,441.29498054099895,443.281980249998,443.30634120800096,,,825309,001,2024-07-01_20h41.28.338,5-26,2024.1.4,None,2024-07-01 20h41.33.325602 +0900,
Images/Speaker1.jpg,Images/Speaker2.jpg,Images/Speaker3.jpg,Images/Speaker4.jpg,Audio/Speaker1_En/P1-4-En.wav,Speaker1,گوینده ۱,,,,,,,,,0,1,1,64,0,62,62,13,443.30634120800096,,,,,,,,,,,,,,,,,,,,,,,,,,,,,,,,,,,,,,,,,,,,,443.28247937500055,443.30634120800096,443.30634120800096,443.30634120800096,443.30634120800096,443.31468499933226,443.30634120800096,443.30634120800096,444.4472164580002,Correct! صحیح است,0,127,1,1.1360402079990308,None,444.45149333299923,444.46296399999846,446.44757441600086,446.4688967910006,,,825309,001,2024-07-01_20h41.28.338,5-26,2024.1.4,None,2024-07-01 20h41.33.325602 +0900,
Images/Speaker1.jpg,Images/Speaker2.jpg,Images/Speaker3.jpg,Images/Speaker4.jpg,Audio/Speaker3_En/P3-16-En.wav,Speaker3,گوینده۳,,,,,,,,,0,1,1,64,0,63,63,55,446.4688967910006,,,,,,,,,,,,,,,,,,,,,,,,,,,,,,,,,,,,,,,,,,,,,446.44774970800063,446.4688967910006,446.4688967910006,446.4688967910006,446.4688967910006,446.4639008326669,446.4688967910006,446.4688967910006,447.96395808300076,Correct! صحیح است,0,129,3,1.4909362500002317,None,447.96805616599886,447.9792197909992,449.9673511250003,449.9925718330014,,,825309,001,2024-07-01_20h41.28.338,5-26,2024.1.4,None,2024-07-01 20h41.33.325602 +0900,
Images/Speaker1.jpg,Images/Speaker2.jpg,Images/Speaker3.jpg,Images/Speaker4.jpg,Audio/Speaker1_En/P1-9-En.wav,Speaker1,گوینده ۱,,,,,,,,,0,1,1,64,0,64,64,8,449.9925718330014,,,,,,,,,,,,,,,,,,,,,,,,,,,,,,,,,,,,,,,,,,,,,449.96818441600044,449.9925718330014,449.9925718330014,449.9925718330014,449.9925718330014,449.999511458333,449.9925718330014,449.9925718330014,451.6239802079981,Correct! صحیح است,0,131,1,1.6286556249979185,None,451.62782279100065,451.6391877499991,453.63397887500105,,,,825309,001,2024-07-01_20h41.28.338,5-26,2024.1.4,None,2024-07-01 20h41.33.325602 +0900,
Images/Speaker1.jpg,Images/Speaker2.jpg,Images/Speaker3.jpg,Images/Speaker4.jpg,Audio/Speaker3_En/P3-11-En.wav,Speaker3,گوینده۳,,,,,,,,,0,1,1,64,0,65,65,50,453.6583276249985,,,,,,,,,,,,,,,,,,,,,,,,,,,,,,,,,,,,,,,,,,,,,453.6345450830013,453.6583276249985,453.6583276249985,453.6583276249985,453.6583276249985,453.6671571243319,453.6583276249985,453.6583276249985,455.0896231250008,Correct! صحیح است,0,133,3,1.42906524999853,None,455.09342970799844,455.1046401659987,457.09409754100125,,,,825309,001,2024-07-01_20h41.28.338,5-26,2024.1.4,None,2024-07-01 20h41.33.325602 +0900,
Images/Speaker1.jpg,Images/Speaker2.jpg,Images/Speaker3.jpg,Images/Speaker4.jpg,Audio/Speaker2_En/P2-6-En.wav,Speaker2,گوینده۲,,,,,,,,,0,1,1,64,0,66,66,25,457.1203310409983,,,,,,,,,,,,,,,,,,,,,,,,,,,,,,,,,,,,,,,,,,,,,457.09487404099855,457.1203310409983,457.1203310409983,457.1203310409983,457.1203310409983,457.1272468333341,457.1203310409983,457.1203310409983,458.42576095799814,Correct! صحیح است,0,135,2,1.2938878339991788,None,458.4300299159986,458.44191299999875,460.4307726250008,,,,825309,001,2024-07-01_20h41.28.338,5-26,2024.1.4,None,2024-07-01 20h41.33.325602 +0900,
Images/Speaker1.jpg,Images/Speaker2.jpg,Images/Speaker3.jpg,Images/Speaker4.jpg,Audio/Speaker2_En/P2-14-En.wav,Speaker2,گوینده۲,,,,,,,,,0,1,1,64,0,67,67,33,460.45264779100035,,,,,,,,,,,,,,,,,,,,,,,,,,,,,,,,,,,,,,,,,,,,,460.4309577499989,460.45264779100035,460.45264779100035,460.45264779100035,460.45264779100035,460.4473951246657,460.45264779100035,460.45264779100035,462.8627653330004,Correct! صحیح است,0,137,2,2.4069242920013494,None,462.8673326249991,462.8806686249991,464.8672657909992,464.8895421249981,,,825309,001,2024-07-01_20h41.28.338,5-26,2024.1.4,None,2024-07-01 20h41.33.325602 +0900,
Images/Speaker1.jpg,Images/Speaker2.jpg,Images/Speaker3.jpg,Images/Speaker4.jpg,Audio/Speaker2_En/P2-17-En.wav,Speaker2,گوینده۲,,,,,,,,,0,1,1,64,0,68,68,36,464.8895421249981,,,,,,,,,,,,,,,,,,,,,,,,,,,,,,,,,,,,,,,,,,,,,464.86792016599793,464.8895421249981,464.8895421249981,464.8895421249981,464.8895421249981,464.8996166243346,464.8895421249981,464.8895421249981,466.36090933299784,Correct! صحیح است,0,139,2,1.4666783749999013,None,466.36476525000035,466.3760243329998,468.3666717499982,,,,825309,001,2024-07-01_20h41.28.338,5-26,2024.1.4,None,2024-07-01 20h41.33.325602 +0900,
Images/Speaker1.jpg,Images/Speaker2.jpg,Images/Speaker3.jpg,Images/Speaker4.jpg,Audio/Speaker1_En/P1-18-En.wav,Speaker1,گوینده ۱,,,,,,,,,0,1,1,64,0,69,69,17,468.391855124999,,,,,,,,,,,,,,,,,,,,,,,,,,,,,,,,,,,,,,,,,,,,,468.3672734159991,468.391855124999,468.391855124999,468.391855124999,468.391855124999,468.39981383333406,468.391855124999,468.391855124999,470.03932799999893,Correct! صحیح است,0,141,1,1.6455107500005397,None,470.0431681660011,470.0547770410012,472.03806245799933,472.05910975000006,,,825309,001,2024-07-01_20h41.28.338,5-26,2024.1.4,None,2024-07-01 20h41.33.325602 +0900,
Images/Speaker1.jpg,Images/Speaker2.jpg,Images/Speaker3.jpg,Images/Speaker4.jpg,Audio/Speaker4_En/P4-18-En.wav,Speaker4,گوینده۴,,,,,,,,,0,1,1,64,0,70,70,77,472.05910975000006,,,,,,,,,,,,,,,,,,,,,,,,,,,,,,,,,,,,,,,,,,,,,472.03826354099874,472.05910975000006,472.05910975000006,472.05910975000006,472.05910975000006,472.0543812076651,472.05910975000006,472.05910975000006,473.6163761659991,Correct! صحیح است,0,143,4,1.5480153339995013,None,473.62011537500075,473.628750625001,475.6127448750012,475.6344516659992,,,825309,001,2024-07-01_20h41.28.338,5-26,2024.1.4,None,2024-07-01 20h41.33.325602 +0900,
Images/Speaker1.jpg,Images/Speaker2.jpg,Images/Speaker3.jpg,Images/Speaker4.jpg,Audio/Speaker3_En/P3-5-En.wav,Speaker3,گوینده۳,,,,,,,,,0,1,1,64,0,71,71,44,475.6344516659992,,,,,,,,,,,,,,,,,,,,,,,,,,,,,,,,,,,,,,,,,,,,,475.6129107079978,475.6344516659992,475.6344516659992,475.6344516659992,475.6344516659992,475.6290284166646,475.6344516659992,475.6344516659992,477.62123241600057,Correct! صحیح است,0,145,3,1.9800090419994376,None,477.6252553330014,477.6372139160012,479.6333362910009,,,,825309,001,2024-07-01_20h41.28.338,5-26,2024.1.4,None,2024-07-01 20h41.33.325602 +0900,
Images/Speaker1.jpg,Images/Speaker2.jpg,Images/Speaker3.jpg,Images/Speaker4.jpg,Audio/Speaker3_En/P3-12-En.wav,Speaker3,گوینده۳,,,,,,,,,0,1,1,64,0,72,72,51,479.6542147500004,,,,,,,,,,,,,,,,,,,,,,,,,,,,,,,,,,,,,,,,,,,,,479.6335247909992,479.6542147500004,479.6542147500004,479.6542147500004,479.6542147500004,479.6499601246653,479.6542147500004,479.6542147500004,480.95173375000013,Correct! صحیح است,0,147,3,1.2930321659987385,None,480.9557547910008,480.96720754099806,482.9583428750011,,,,825309,001,2024-07-01_20h41.28.338,5-26,2024.1.4,None,2024-07-01 20h41.33.325602 +0900,
Images/Speaker1.jpg,Images/Speaker2.jpg,Images/Speaker3.jpg,Images/Speaker4.jpg,Audio/Speaker3_En/P3-20-En.wav,Speaker3,گوینده۳,,,,,,,,,0,1,1,64,0,73,73,59,482.9810814579978,,,,,,,,,,,,,,,,,,,,,,,,,,,,,,,,,,,,,,,,,,,,,482.9590310409985,482.9810814579978,482.9810814579978,482.9810814579978,482.9810814579978,482.9747920826669,482.9810814579978,482.9810814579978,484.0890947500011,Correct! صحیح است,0,149,3,1.1037155829981202,None,484.0936535410001,484.1070797079992,486.09171729100126,486.11495991599804,,,825309,001,2024-07-01_20h41.28.338,5-26,2024.1.4,None,2024-07-01 20h41.33.325602 +0900,
Images/Speaker1.jpg,Images/Speaker2.jpg,Images/Speaker3.jpg,Images/Speaker4.jpg,Audio/Speaker3_En/P3-8-En.wav,Speaker3,گوینده۳,,,,,,,,,0,1,1,64,0,74,74,47,486.11495991599804,,,,,,,,,,,,,,,,,,,,,,,,,,,,,,,,,,,,,,,,,,,,,486.0922706659985,486.11495991599804,486.11495991599804,486.11495991599804,486.11495991599804,486.1246339993345,486.11495991599804,486.11495991599804,487.7250235829997,Correct! صحیح است,0,151,3,1.6022630840016063,None,487.7302259579992,487.7429067499979,489.7310589580011,,,,825309,001,2024-07-01_20h41.28.338,5-26,2024.1.4,None,2024-07-01 20h41.33.325602 +0900,
Images/Speaker1.jpg,Images/Speaker2.jpg,Images/Speaker3.jpg,Images/Speaker4.jpg,Audio/Speaker1_En/P1-16-En.wav,Speaker1,گوینده ۱,,,,,,,,,0,1,1,64,0,75,75,15,489.75220058299965,,,,,,,,,,,,,,,,,,,,,,,,,,,,,,,,,,,,,,,,,,,,,489.731234750001,489.75220058299965,489.75220058299965,489.75220058299965,489.75220058299965,489.7476918746654,489.75220058299965,489.75220058299965,491.07990566599983,Correct! صحیح است,0,153,1,1.3265528749980149,None,491.0843376660014,491.09574687499844,493.0802031659987,493.1025735000003,,,825309,001,2024-07-01_20h41.28.338,5-26,2024.1.4,None,2024-07-01 20h41.33.325602 +0900,
Images/Speaker1.jpg,Images/Speaker2.jpg,Images/Speaker3.jpg,Images/Speaker4.jpg,Audio/Speaker3_En/P3-14-En.wav,Speaker3,گوینده۳,,,,,,,,,0,1,1,64,0,76,76,53,493.1025735000003,,,,,,,,,,,,,,,,,,,,,,,,,,,,,,,,,,,,,,,,,,,,,493.0804010409993,493.1025735000003,493.1025735000003,493.1025735000003,493.1025735000003,493.0966398326675,493.1025735000003,493.1025735000003,495.09209295799883,Correct! صحیح است,0,155,3,1.9873119160001806,None,495.09615358299925,495.10816416599846,497.0933726660005,497.11410237499877,,,825309,001,2024-07-01_20h41.28.338,5-26,2024.1.4,None,2024-07-01 20h41.33.325602 +0900,
