SpeakerImage1,SpeakerImage2,SpeakerImage3,SpeakerImage4,TrainingSound,EnglishCorrectAnswer,PersianCorrectAnswer,repeated_TrainingloopGroup1.thisRepN,repeated_TrainingloopGroup1.thisTrialN,repeated_TrainingloopGroup1.thisN,repeated_TrainingloopGroup1.thisIndex,TrainingLoopGroup1.thisRepN,TrainingLoopGroup1.thisTrialN,TrainingLoopGroup1.thisN,TrainingLoopGroup1.thisIndex,thisRow.t,notes,trial.started,trial.stopped,GroupSelection.started,GroupInstructions.started,key_resp.started,GroupSelection.stopped,key_resp.keys,key_resp.rt,key_resp.duration,Introduction.started,text_2.started,image.started,sound_7.started,text_4.started,text_2.stopped,sound_8.started,image.stopped,text_4.stopped,image_7.started,sound_9.started,text_5.started,sound_10.started,image_7.stopped,text_5.stopped,image_8.started,sound_11.started,text_6.started,sound_12.started,image_8.stopped,text_6.stopped,image_9.started,sound_13.started,text_7.started,sound_14.started,image_9.stopped,text_7.stopped,Introduction.stopped,Instructions.started,InstructionText.started,InstructionText.stopped,Instructions.stopped,InitializeExperiment.started,InitializeExperiment.stopped,CheckAccuracy1.started,accuracy_group1,proceed_to_test,CheckAccuracy1.stopped,participant,session,date,expName,psychopyVersion,frameRate,expStart,
,,,,,,,,,,,,,,,,,0.009844042000622721,0.010241750000204775,,,,,,,,,,,,,,,,,,,,,,,,,,,,,,,,,,,,,,,,,,,,,,830432,001,2024-07-03_12h47.24.910,5-all in one,2024.1.4,None,2024-07-03 12h47.30.149188 +0900,
,,,,,,,,,,,,,,,,,,,0.010255958999550785,0.015035042000818066,0.015035042000818066,1.3343792089999624,2,1.2805486249999376,None,,,,,,,,,,,,,,,,,,,,,,,,,,,,,,,,,,,,,,,830432,001,2024-07-03_12h47.24.910,5-all in one,2024.1.4,None,2024-07-03 12h47.30.149188 +0900,
,,,,,,,,,,,,,,,,,,,,,,,,,,1.3344148340001993,1.3910438340008113,6.327819834001275,6.33403979166748,6.327819834001275,6.387865750000856,11.33619395866687,16.31720520900126,16.31720520900126,16.330980875000023,16.333871875667924,16.330980875000023,21.334290166667657,26.32973850000053,26.32973850000053,26.32973850000053,26.338928625666327,26.32973850000053,31.341036000667614,36.31847045900031,36.31847045900031,36.33318862499982,36.335137125666975,36.33318862499982,41.33426487566636,46.33213716700084,46.33213716700084,46.31950804200096,,,,,,,,,,,830432,001,2024-07-03_12h47.24.910,5-all in one,2024.1.4,None,2024-07-03 12h47.30.149188 +0900,
,,,,,,,,,,,,,,,,,,,,,,,,,,,,,,,,,,,,,,,,,,,,,,,,,,,,,,46.319584250000844,46.33213716700084,73.23001124999973,47.31945262500085,,,,,,,830432,001,2024-07-03_12h47.24.910,5-all in one,2024.1.4,None,2024-07-03 12h47.30.149188 +0900,
,,,,,,,,,,,,,,,,,,,,,,,,,,,,,,,,,,,,,,,,,,,,,,,,,,,,,,,,,,47.319464625001274,47.319610292001016,,,,,830432,001,2024-07-03_12h47.24.910,5-all in one,2024.1.4,None,2024-07-03 12h47.30.149188 +0900,
Images/Speaker1.jpg,Images/Speaker2.jpg,Images/Speaker3.jpg,Images/Speaker4.jpg,Audio/Speaker1_Per/P1-10-Per.wav,Speaker1,گوینده ۱,0,0,0,9,,,,,73.23001124999973,,,,,,,,,,,,,,,,,,,,,,,,,,,,,,,,,,,,,,,,,,,,,47.3736973340001,0.0,False,47.374034709000625,830432,001,2024-07-03_12h47.24.910,5-all in one,2024.1.4,None,2024-07-03 12h47.30.149188 +0900,
Images/Speaker1.jpg,Images/Speaker2.jpg,Images/Speaker3.jpg,Images/Speaker4.jpg,Audio/Speaker1_Per/P1-18-Per.wav,Speaker1,گوینده ۱,0,1,1,17,,,,,73.23001124999973,,,,,,,,,,,,,,,,,,,,,,,,,,,,,,,,,,,,,,,,,,,,,47.39254920900021,0.0,False,47.392787959001,830432,001,2024-07-03_12h47.24.910,5-all in one,2024.1.4,None,2024-07-03 12h47.30.149188 +0900,
Images/Speaker1.jpg,Images/Speaker2.jpg,Images/Speaker3.jpg,Images/Speaker4.jpg,Audio/Speaker2_Per/P2-18-Per.wav,Speaker2,گوینده۲,0,2,2,37,,,,,73.23001124999973,,,,,,,,,,,,,,,,,,,,,,,,,,,,,,,,,,,,,,,,,,,,,47.41023049999967,0.0,False,47.41045174999999,830432,001,2024-07-03_12h47.24.910,5-all in one,2024.1.4,None,2024-07-03 12h47.30.149188 +0900,
Images/Speaker1.jpg,Images/Speaker2.jpg,Images/Speaker3.jpg,Images/Speaker4.jpg,Audio/Speaker2_Per/P2-12-Per.wav,Speaker2,گوینده۲,0,3,3,31,,,,,73.23001124999973,,,,,,,,,,,,,,,,,,,,,,,,,,,,,,,,,,,,,,,,,,,,,47.4272728750002,0.0,False,47.42750329199953,830432,001,2024-07-03_12h47.24.910,5-all in one,2024.1.4,None,2024-07-03 12h47.30.149188 +0900,
Images/Speaker1.jpg,Images/Speaker2.jpg,Images/Speaker3.jpg,Images/Speaker4.jpg,Audio/Speaker2_Per/P2-3-Per.wav,Speaker2,گوینده۲,0,4,4,22,,,,,73.23001124999973,,,,,,,,,,,,,,,,,,,,,,,,,,,,,,,,,,,,,,,,,,,,,47.44337025000095,0.0,False,47.44356445900121,830432,001,2024-07-03_12h47.24.910,5-all in one,2024.1.4,None,2024-07-03 12h47.30.149188 +0900,
Images/Speaker1.jpg,Images/Speaker2.jpg,Images/Speaker3.jpg,Images/Speaker4.jpg,Audio/Speaker4_Per/P4-11-Per.wav,Speaker4,گوینده۴,0,5,5,70,,,,,73.23001124999973,,,,,,,,,,,,,,,,,,,,,,,,,,,,,,,,,,,,,,,,,,,,,47.459364792001,0.0,False,47.459560167000745,830432,001,2024-07-03_12h47.24.910,5-all in one,2024.1.4,None,2024-07-03 12h47.30.149188 +0900,
Images/Speaker1.jpg,Images/Speaker2.jpg,Images/Speaker3.jpg,Images/Speaker4.jpg,Audio/Speaker1_Per/P1-6-Per.wav,Speaker1,گوینده ۱,0,6,6,5,,,,,73.23001124999973,,,,,,,,,,,,,,,,,,,,,,,,,,,,,,,,,,,,,,,,,,,,,47.4753510419996,0.0,False,47.47553854200123,830432,001,2024-07-03_12h47.24.910,5-all in one,2024.1.4,None,2024-07-03 12h47.30.149188 +0900,
Images/Speaker1.jpg,Images/Speaker2.jpg,Images/Speaker3.jpg,Images/Speaker4.jpg,Audio/Speaker1_Per/P1-13-Per.wav,Speaker1,گوینده ۱,0,7,7,12,,,,,73.23001124999973,,,,,,,,,,,,,,,,,,,,,,,,,,,,,,,,,,,,,,,,,,,,,47.49151154200081,0.0,False,47.49170866700115,830432,001,2024-07-03_12h47.24.910,5-all in one,2024.1.4,None,2024-07-03 12h47.30.149188 +0900,
Images/Speaker1.jpg,Images/Speaker2.jpg,Images/Speaker3.jpg,Images/Speaker4.jpg,Audio/Speaker3_Per/P3-4-Per.wav,Speaker3,گوینده۳,0,8,8,43,,,,,73.23001124999973,,,,,,,,,,,,,,,,,,,,,,,,,,,,,,,,,,,,,,,,,,,,,47.50741258400012,0.0,False,47.50757700000031,830432,001,2024-07-03_12h47.24.910,5-all in one,2024.1.4,None,2024-07-03 12h47.30.149188 +0900,
Images/Speaker1.jpg,Images/Speaker2.jpg,Images/Speaker3.jpg,Images/Speaker4.jpg,Audio/Speaker3_Per/P3-6-Per.wav,Speaker3,گوینده۳,0,9,9,45,,,,,73.23001124999973,,,,,,,,,,,,,,,,,,,,,,,,,,,,,,,,,,,,,,,,,,,,,47.52322729200023,0.0,False,47.52342958400004,830432,001,2024-07-03_12h47.24.910,5-all in one,2024.1.4,None,2024-07-03 12h47.30.149188 +0900,
Images/Speaker1.jpg,Images/Speaker2.jpg,Images/Speaker3.jpg,Images/Speaker4.jpg,Audio/Speaker3_Per/P3-11-Per.wav,Speaker3,گوینده۳,0,10,10,50,,,,,73.23001124999973,,,,,,,,,,,,,,,,,,,,,,,,,,,,,,,,,,,,,,,,,,,,,47.53911074999996,0.0,False,47.53935450000063,830432,001,2024-07-03_12h47.24.910,5-all in one,2024.1.4,None,2024-07-03 12h47.30.149188 +0900,
Images/Speaker1.jpg,Images/Speaker2.jpg,Images/Speaker3.jpg,Images/Speaker4.jpg,Audio/Speaker4_Per/P4-9-Per.wav,Speaker4,گوینده۴,0,11,11,68,,,,,73.23001124999973,,,,,,,,,,,,,,,,,,,,,,,,,,,,,,,,,,,,,,,,,,,,,47.55526337500123,0.0,False,47.55542562499977,830432,001,2024-07-03_12h47.24.910,5-all in one,2024.1.4,None,2024-07-03 12h47.30.149188 +0900,
Images/Speaker1.jpg,Images/Speaker2.jpg,Images/Speaker3.jpg,Images/Speaker4.jpg,Audio/Speaker2_Per/P2-20-Per.wav,Speaker2,گوینده۲,0,12,12,39,,,,,73.23001124999973,,,,,,,,,,,,,,,,,,,,,,,,,,,,,,,,,,,,,,,,,,,,,47.57108975000119,0.0,False,47.57126595900081,830432,001,2024-07-03_12h47.24.910,5-all in one,2024.1.4,None,2024-07-03 12h47.30.149188 +0900,
Images/Speaker1.jpg,Images/Speaker2.jpg,Images/Speaker3.jpg,Images/Speaker4.jpg,Audio/Speaker2_Per/P2-6-Per.wav,Speaker2,گوینده۲,0,13,13,25,,,,,73.23001124999973,,,,,,,,,,,,,,,,,,,,,,,,,,,,,,,,,,,,,,,,,,,,,47.58746770899961,0.0,False,47.587654541999655,830432,001,2024-07-03_12h47.24.910,5-all in one,2024.1.4,None,2024-07-03 12h47.30.149188 +0900,
Images/Speaker1.jpg,Images/Speaker2.jpg,Images/Speaker3.jpg,Images/Speaker4.jpg,Audio/Speaker1_Per/P1-9-Per.wav,Speaker1,گوینده ۱,0,14,14,8,,,,,73.23001124999973,,,,,,,,,,,,,,,,,,,,,,,,,,,,,,,,,,,,,,,,,,,,,47.603273167000225,0.0,False,47.60344929200073,830432,001,2024-07-03_12h47.24.910,5-all in one,2024.1.4,None,2024-07-03 12h47.30.149188 +0900,
Images/Speaker1.jpg,Images/Speaker2.jpg,Images/Speaker3.jpg,Images/Speaker4.jpg,Audio/Speaker4_Per/P4-12-Per.wav,Speaker4,گوینده۴,0,15,15,71,,,,,73.23001124999973,,,,,,,,,,,,,,,,,,,,,,,,,,,,,,,,,,,,,,,,,,,,,47.61951245900127,0.0,False,47.619716709001295,830432,001,2024-07-03_12h47.24.910,5-all in one,2024.1.4,None,2024-07-03 12h47.30.149188 +0900,
Images/Speaker1.jpg,Images/Speaker2.jpg,Images/Speaker3.jpg,Images/Speaker4.jpg,Audio/Speaker4_Per/P4-17-Per.wav,Speaker4,گوینده۴,0,16,16,76,,,,,73.23001124999973,,,,,,,,,,,,,,,,,,,,,,,,,,,,,,,,,,,,,,,,,,,,,47.63555600000109,0.0,False,47.635795084001074,830432,001,2024-07-03_12h47.24.910,5-all in one,2024.1.4,None,2024-07-03 12h47.30.149188 +0900,
Images/Speaker1.jpg,Images/Speaker2.jpg,Images/Speaker3.jpg,Images/Speaker4.jpg,Audio/Speaker2_Per/P2-19-Per.wav,Speaker2,گوینده۲,0,17,17,38,,,,,73.23001124999973,,,,,,,,,,,,,,,,,,,,,,,,,,,,,,,,,,,,,,,,,,,,,47.65145558400036,0.0,False,47.65166712500104,830432,001,2024-07-03_12h47.24.910,5-all in one,2024.1.4,None,2024-07-03 12h47.30.149188 +0900,
Images/Speaker1.jpg,Images/Speaker2.jpg,Images/Speaker3.jpg,Images/Speaker4.jpg,Audio/Speaker2_Per/P2-5-Per.wav,Speaker2,گوینده۲,0,18,18,24,,,,,73.23001124999973,,,,,,,,,,,,,,,,,,,,,,,,,,,,,,,,,,,,,,,,,,,,,47.66723316699972,0.0,False,47.66740700000082,830432,001,2024-07-03_12h47.24.910,5-all in one,2024.1.4,None,2024-07-03 12h47.30.149188 +0900,
Images/Speaker1.jpg,Images/Speaker2.jpg,Images/Speaker3.jpg,Images/Speaker4.jpg,Audio/Speaker1_Per/P1-2-Per.wav,Speaker1,گوینده ۱,0,19,19,1,,,,,73.23001124999973,,,,,,,,,,,,,,,,,,,,,,,,,,,,,,,,,,,,,,,,,,,,,47.683441875000426,0.0,False,47.683668249999755,830432,001,2024-07-03_12h47.24.910,5-all in one,2024.1.4,None,2024-07-03 12h47.30.149188 +0900,
Images/Speaker1.jpg,Images/Speaker2.jpg,Images/Speaker3.jpg,Images/Speaker4.jpg,Audio/Speaker4_Per/P4-18-Per.wav,Speaker4,گوینده۴,0,20,20,77,,,,,73.23001124999973,,,,,,,,,,,,,,,,,,,,,,,,,,,,,,,,,,,,,,,,,,,,,47.69951450000008,0.0,False,47.6996966250008,830432,001,2024-07-03_12h47.24.910,5-all in one,2024.1.4,None,2024-07-03 12h47.30.149188 +0900,
Images/Speaker1.jpg,Images/Speaker2.jpg,Images/Speaker3.jpg,Images/Speaker4.jpg,Audio/Speaker3_Per/P3-3-Per.wav,Speaker3,گوینده۳,0,21,21,42,,,,,73.23001124999973,,,,,,,,,,,,,,,,,,,,,,,,,,,,,,,,,,,,,,,,,,,,,47.71540900000036,0.0,False,47.71565250000094,830432,001,2024-07-03_12h47.24.910,5-all in one,2024.1.4,None,2024-07-03 12h47.30.149188 +0900,
Images/Speaker1.jpg,Images/Speaker2.jpg,Images/Speaker3.jpg,Images/Speaker4.jpg,Audio/Speaker4_Per/P4-20-Per.wav,Speaker4,گوینده۴,0,22,22,79,,,,,73.23001124999973,,,,,,,,,,,,,,,,,,,,,,,,,,,,,,,,,,,,,,,,,,,,,47.73158916700049,0.0,False,47.7318112920002,830432,001,2024-07-03_12h47.24.910,5-all in one,2024.1.4,None,2024-07-03 12h47.30.149188 +0900,
Images/Speaker1.jpg,Images/Speaker2.jpg,Images/Speaker3.jpg,Images/Speaker4.jpg,Audio/Speaker3_Per/P3-12-Per.wav,Speaker3,گوینده۳,0,23,23,51,,,,,73.23001124999973,,,,,,,,,,,,,,,,,,,,,,,,,,,,,,,,,,,,,,,,,,,,,47.74792950000119,0.0,False,47.748117417000685,830432,001,2024-07-03_12h47.24.910,5-all in one,2024.1.4,None,2024-07-03 12h47.30.149188 +0900,
Images/Speaker1.jpg,Images/Speaker2.jpg,Images/Speaker3.jpg,Images/Speaker4.jpg,Audio/Speaker3_Per/P3-13-Per.wav,Speaker3,گوینده۳,0,24,24,52,,,,,73.23001124999973,,,,,,,,,,,,,,,,,,,,,,,,,,,,,,,,,,,,,,,,,,,,,47.763979542000015,0.0,False,47.76417708400004,830432,001,2024-07-03_12h47.24.910,5-all in one,2024.1.4,None,2024-07-03 12h47.30.149188 +0900,
Images/Speaker1.jpg,Images/Speaker2.jpg,Images/Speaker3.jpg,Images/Speaker4.jpg,Audio/Speaker1_Per/P1-5-Per.wav,Speaker1,گوینده ۱,0,25,25,4,,,,,73.23001124999973,,,,,,,,,,,,,,,,,,,,,,,,,,,,,,,,,,,,,,,,,,,,,47.77981708399966,0.0,False,47.780007458999535,830432,001,2024-07-03_12h47.24.910,5-all in one,2024.1.4,None,2024-07-03 12h47.30.149188 +0900,
Images/Speaker1.jpg,Images/Speaker2.jpg,Images/Speaker3.jpg,Images/Speaker4.jpg,Audio/Speaker3_Per/P3-14-Per.wav,Speaker3,گوینده۳,0,26,26,53,,,,,73.23001124999973,,,,,,,,,,,,,,,,,,,,,,,,,,,,,,,,,,,,,,,,,,,,,47.79574129200046,0.0,False,47.79592645900084,830432,001,2024-07-03_12h47.24.910,5-all in one,2024.1.4,None,2024-07-03 12h47.30.149188 +0900,
Images/Speaker1.jpg,Images/Speaker2.jpg,Images/Speaker3.jpg,Images/Speaker4.jpg,Audio/Speaker2_Per/P2-17-Per.wav,Speaker2,گوینده۲,0,27,27,36,,,,,73.23001124999973,,,,,,,,,,,,,,,,,,,,,,,,,,,,,,,,,,,,,,,,,,,,,47.81249295900125,0.0,False,47.81271491699954,830432,001,2024-07-03_12h47.24.910,5-all in one,2024.1.4,None,2024-07-03 12h47.30.149188 +0900,
Images/Speaker1.jpg,Images/Speaker2.jpg,Images/Speaker3.jpg,Images/Speaker4.jpg,Audio/Speaker1_Per/P1-4-Per.wav,Speaker1,گوینده ۱,0,28,28,3,,,,,73.23001124999973,,,,,,,,,,,,,,,,,,,,,,,,,,,,,,,,,,,,,,,,,,,,,47.828451125000356,0.0,False,47.82863550000002,830432,001,2024-07-03_12h47.24.910,5-all in one,2024.1.4,None,2024-07-03 12h47.30.149188 +0900,
Images/Speaker1.jpg,Images/Speaker2.jpg,Images/Speaker3.jpg,Images/Speaker4.jpg,Audio/Speaker3_Per/P3-8-Per.wav,Speaker3,گوینده۳,0,29,29,47,,,,,73.23001124999973,,,,,,,,,,,,,,,,,,,,,,,,,,,,,,,,,,,,,,,,,,,,,47.844191459000285,0.0,False,47.844378042000244,830432,001,2024-07-03_12h47.24.910,5-all in one,2024.1.4,None,2024-07-03 12h47.30.149188 +0900,
Images/Speaker1.jpg,Images/Speaker2.jpg,Images/Speaker3.jpg,Images/Speaker4.jpg,Audio/Speaker3_Per/P3-7-Per.wav,Speaker3,گوینده۳,0,30,30,46,,,,,73.23001124999973,,,,,,,,,,,,,,,,,,,,,,,,,,,,,,,,,,,,,,,,,,,,,47.860012500001176,0.0,False,47.86022225000124,830432,001,2024-07-03_12h47.24.910,5-all in one,2024.1.4,None,2024-07-03 12h47.30.149188 +0900,
Images/Speaker1.jpg,Images/Speaker2.jpg,Images/Speaker3.jpg,Images/Speaker4.jpg,Audio/Speaker4_Per/P4-14-Per.wav,Speaker4,گوینده۴,0,31,31,73,,,,,73.23001124999973,,,,,,,,,,,,,,,,,,,,,,,,,,,,,,,,,,,,,,,,,,,,,47.876258084001165,0.0,False,47.87644941700091,830432,001,2024-07-03_12h47.24.910,5-all in one,2024.1.4,None,2024-07-03 12h47.30.149188 +0900,
Images/Speaker1.jpg,Images/Speaker2.jpg,Images/Speaker3.jpg,Images/Speaker4.jpg,Audio/Speaker3_Per/P3-1-Per.wav,Speaker3,گوینده۳,0,32,32,40,,,,,73.23001124999973,,,,,,,,,,,,,,,,,,,,,,,,,,,,,,,,,,,,,,,,,,,,,47.892141583999546,0.0,False,47.89235016699968,830432,001,2024-07-03_12h47.24.910,5-all in one,2024.1.4,None,2024-07-03 12h47.30.149188 +0900,
Images/Speaker1.jpg,Images/Speaker2.jpg,Images/Speaker3.jpg,Images/Speaker4.jpg,Audio/Speaker2_Per/P2-8-Per.wav,Speaker2,گوینده۲,0,33,33,27,,,,,73.23001124999973,,,,,,,,,,,,,,,,,,,,,,,,,,,,,,,,,,,,,,,,,,,,,47.90809787500075,0.0,False,47.908325709000565,830432,001,2024-07-03_12h47.24.910,5-all in one,2024.1.4,None,2024-07-03 12h47.30.149188 +0900,
Images/Speaker1.jpg,Images/Speaker2.jpg,Images/Speaker3.jpg,Images/Speaker4.jpg,Audio/Speaker4_Per/P4-10-Per.wav,Speaker4,گوینده۴,0,34,34,69,,,,,73.23001124999973,,,,,,,,,,,,,,,,,,,,,,,,,,,,,,,,,,,,,,,,,,,,,47.923978167000314,0.0,False,47.92420341700017,830432,001,2024-07-03_12h47.24.910,5-all in one,2024.1.4,None,2024-07-03 12h47.30.149188 +0900,
Images/Speaker1.jpg,Images/Speaker2.jpg,Images/Speaker3.jpg,Images/Speaker4.jpg,Audio/Speaker1_Per/P1-11-Per.wav,Speaker1,گوینده ۱,0,35,35,10,,,,,73.23001124999973,,,,,,,,,,,,,,,,,,,,,,,,,,,,,,,,,,,,,,,,,,,,,47.94031591699968,0.0,False,47.94048562500029,830432,001,2024-07-03_12h47.24.910,5-all in one,2024.1.4,None,2024-07-03 12h47.30.149188 +0900,
Images/Speaker1.jpg,Images/Speaker2.jpg,Images/Speaker3.jpg,Images/Speaker4.jpg,Audio/Speaker4_Per/P4-5-Per.wav,Speaker4,گوینده۴,0,36,36,64,,,,,73.23001124999973,,,,,,,,,,,,,,,,,,,,,,,,,,,,,,,,,,,,,,,,,,,,,47.95624012500048,0.0,False,47.956407417001174,830432,001,2024-07-03_12h47.24.910,5-all in one,2024.1.4,None,2024-07-03 12h47.30.149188 +0900,
Images/Speaker1.jpg,Images/Speaker2.jpg,Images/Speaker3.jpg,Images/Speaker4.jpg,Audio/Speaker3_Per/P3-19-Per.wav,Speaker3,گوینده۳,0,37,37,58,,,,,73.23001124999973,,,,,,,,,,,,,,,,,,,,,,,,,,,,,,,,,,,,,,,,,,,,,47.972154291999686,0.0,False,47.972324667000066,830432,001,2024-07-03_12h47.24.910,5-all in one,2024.1.4,None,2024-07-03 12h47.30.149188 +0900,
Images/Speaker1.jpg,Images/Speaker2.jpg,Images/Speaker3.jpg,Images/Speaker4.jpg,Audio/Speaker2_Per/P2-16-Per.wav,Speaker2,گوینده۲,0,38,38,35,,,,,73.23001124999973,,,,,,,,,,,,,,,,,,,,,,,,,,,,,,,,,,,,,,,,,,,,,47.987888958999974,0.0,False,47.9880681249997,830432,001,2024-07-03_12h47.24.910,5-all in one,2024.1.4,None,2024-07-03 12h47.30.149188 +0900,
Images/Speaker1.jpg,Images/Speaker2.jpg,Images/Speaker3.jpg,Images/Speaker4.jpg,Audio/Speaker2_Per/P2-13-Per.wav,Speaker2,گوینده۲,0,39,39,32,,,,,73.23001124999973,,,,,,,,,,,,,,,,,,,,,,,,,,,,,,,,,,,,,,,,,,,,,48.00448754200079,0.0,False,48.0046711670002,830432,001,2024-07-03_12h47.24.910,5-all in one,2024.1.4,None,2024-07-03 12h47.30.149188 +0900,
Images/Speaker1.jpg,Images/Speaker2.jpg,Images/Speaker3.jpg,Images/Speaker4.jpg,Audio/Speaker4_Per/P4-1-Per.wav,Speaker4,گوینده۴,0,40,40,60,,,,,73.23001124999973,,,,,,,,,,,,,,,,,,,,,,,,,,,,,,,,,,,,,,,,,,,,,48.02033816699986,0.0,False,48.02050983400113,830432,001,2024-07-03_12h47.24.910,5-all in one,2024.1.4,None,2024-07-03 12h47.30.149188 +0900,
Images/Speaker1.jpg,Images/Speaker2.jpg,Images/Speaker3.jpg,Images/Speaker4.jpg,Audio/Speaker1_Per/P1-3-Per.wav,Speaker1,گوینده ۱,0,41,41,2,,,,,73.23001124999973,,,,,,,,,,,,,,,,,,,,,,,,,,,,,,,,,,,,,,,,,,,,,48.03610270900026,0.0,False,48.03626570900087,830432,001,2024-07-03_12h47.24.910,5-all in one,2024.1.4,None,2024-07-03 12h47.30.149188 +0900,
Images/Speaker1.jpg,Images/Speaker2.jpg,Images/Speaker3.jpg,Images/Speaker4.jpg,Audio/Speaker4_Per/P4-6-Per.wav,Speaker4,گوینده۴,0,42,42,65,,,,,73.23001124999973,,,,,,,,,,,,,,,,,,,,,,,,,,,,,,,,,,,,,,,,,,,,,48.05185150000034,0.0,False,48.05203162500038,830432,001,2024-07-03_12h47.24.910,5-all in one,2024.1.4,None,2024-07-03 12h47.30.149188 +0900,
Images/Speaker1.jpg,Images/Speaker2.jpg,Images/Speaker3.jpg,Images/Speaker4.jpg,Audio/Speaker4_Per/P4-19-Per.wav,Speaker4,گوینده۴,0,43,43,78,,,,,73.23001124999973,,,,,,,,,,,,,,,,,,,,,,,,,,,,,,,,,,,,,,,,,,,,,48.068049334000534,0.0,False,48.06823841699952,830432,001,2024-07-03_12h47.24.910,5-all in one,2024.1.4,None,2024-07-03 12h47.30.149188 +0900,
Images/Speaker1.jpg,Images/Speaker2.jpg,Images/Speaker3.jpg,Images/Speaker4.jpg,Audio/Speaker2_Per/P2-14-Per.wav,Speaker2,گوینده۲,0,44,44,33,,,,,73.23001124999973,,,,,,,,,,,,,,,,,,,,,,,,,,,,,,,,,,,,,,,,,,,,,48.08405975000096,0.0,False,48.08423487500113,830432,001,2024-07-03_12h47.24.910,5-all in one,2024.1.4,None,2024-07-03 12h47.30.149188 +0900,
Images/Speaker1.jpg,Images/Speaker2.jpg,Images/Speaker3.jpg,Images/Speaker4.jpg,Audio/Speaker3_Per/P3-9-Per.wav,Speaker3,گوینده۳,0,45,45,48,,,,,73.23001124999973,,,,,,,,,,,,,,,,,,,,,,,,,,,,,,,,,,,,,,,,,,,,,48.099920000000566,0.0,False,48.10008570900027,830432,001,2024-07-03_12h47.24.910,5-all in one,2024.1.4,None,2024-07-03 12h47.30.149188 +0900,
Images/Speaker1.jpg,Images/Speaker2.jpg,Images/Speaker3.jpg,Images/Speaker4.jpg,Audio/Speaker1_Per/P1-20-Per.wav,Speaker1,گوینده ۱,0,46,46,19,,,,,73.23001124999973,,,,,,,,,,,,,,,,,,,,,,,,,,,,,,,,,,,,,,,,,,,,,48.11614275000102,0.0,False,48.116311959000086,830432,001,2024-07-03_12h47.24.910,5-all in one,2024.1.4,None,2024-07-03 12h47.30.149188 +0900,
Images/Speaker1.jpg,Images/Speaker2.jpg,Images/Speaker3.jpg,Images/Speaker4.jpg,Audio/Speaker1_Per/P1-1-Per.wav,Speaker1,گوینده ۱,0,47,47,0,,,,,73.23001124999973,,,,,,,,,,,,,,,,,,,,,,,,,,,,,,,,,,,,,,,,,,,,,48.13231783400079,0.0,False,48.13250141699973,830432,001,2024-07-03_12h47.24.910,5-all in one,2024.1.4,None,2024-07-03 12h47.30.149188 +0900,
Images/Speaker1.jpg,Images/Speaker2.jpg,Images/Speaker3.jpg,Images/Speaker4.jpg,Audio/Speaker1_Per/P1-12-Per.wav,Speaker1,گوینده ۱,0,48,48,11,,,,,73.23001124999973,,,,,,,,,,,,,,,,,,,,,,,,,,,,,,,,,,,,,,,,,,,,,48.1481445419995,0.0,False,48.148317584000324,830432,001,2024-07-03_12h47.24.910,5-all in one,2024.1.4,None,2024-07-03 12h47.30.149188 +0900,
Images/Speaker1.jpg,Images/Speaker2.jpg,Images/Speaker3.jpg,Images/Speaker4.jpg,Audio/Speaker3_Per/P3-20-Per.wav,Speaker3,گوینده۳,0,49,49,59,,,,,73.23001124999973,,,,,,,,,,,,,,,,,,,,,,,,,,,,,,,,,,,,,,,,,,,,,48.163961375001236,0.0,False,48.164139624999734,830432,001,2024-07-03_12h47.24.910,5-all in one,2024.1.4,None,2024-07-03 12h47.30.149188 +0900,
Images/Speaker1.jpg,Images/Speaker2.jpg,Images/Speaker3.jpg,Images/Speaker4.jpg,Audio/Speaker4_Per/P4-3-Per.wav,Speaker4,گوینده۴,0,50,50,62,,,,,73.23001124999973,,,,,,,,,,,,,,,,,,,,,,,,,,,,,,,,,,,,,,,,,,,,,48.17973808399984,0.0,False,48.17990375000045,830432,001,2024-07-03_12h47.24.910,5-all in one,2024.1.4,None,2024-07-03 12h47.30.149188 +0900,
Images/Speaker1.jpg,Images/Speaker2.jpg,Images/Speaker3.jpg,Images/Speaker4.jpg,Audio/Speaker2_Per/P2-4-Per.wav,Speaker2,گوینده۲,0,51,51,23,,,,,73.23001124999973,,,,,,,,,,,,,,,,,,,,,,,,,,,,,,,,,,,,,,,,,,,,,48.196138000001156,0.0,False,48.19630433400016,830432,001,2024-07-03_12h47.24.910,5-all in one,2024.1.4,None,2024-07-03 12h47.30.149188 +0900,
Images/Speaker1.jpg,Images/Speaker2.jpg,Images/Speaker3.jpg,Images/Speaker4.jpg,Audio/Speaker2_Per/P2-1-Per.wav,Speaker2,گوینده۲,0,52,52,20,,,,,73.23001124999973,,,,,,,,,,,,,,,,,,,,,,,,,,,,,,,,,,,,,,,,,,,,,48.212021375000404,0.0,False,48.21218341700114,830432,001,2024-07-03_12h47.24.910,5-all in one,2024.1.4,None,2024-07-03 12h47.30.149188 +0900,
Images/Speaker1.jpg,Images/Speaker2.jpg,Images/Speaker3.jpg,Images/Speaker4.jpg,Audio/Speaker1_Per/P1-4-Per.wav,Speaker1,گوینده ۱,0,53,53,13,,,,,73.23001124999973,,,,,,,,,,,,,,,,,,,,,,,,,,,,,,,,,,,,,,,,,,,,,48.227865374999965,0.0,False,48.2281075840001,830432,001,2024-07-03_12h47.24.910,5-all in one,2024.1.4,None,2024-07-03 12h47.30.149188 +0900,
Images/Speaker1.jpg,Images/Speaker2.jpg,Images/Speaker3.jpg,Images/Speaker4.jpg,Audio/Speaker2_Per/P2-7-Per.wav,Speaker2,گوینده۲,0,54,54,26,,,,,73.23001124999973,,,,,,,,,,,,,,,,,,,,,,,,,,,,,,,,,,,,,,,,,,,,,48.243940125001245,0.0,False,48.24410141699991,830432,001,2024-07-03_12h47.24.910,5-all in one,2024.1.4,None,2024-07-03 12h47.30.149188 +0900,
Images/Speaker1.jpg,Images/Speaker2.jpg,Images/Speaker3.jpg,Images/Speaker4.jpg,Audio/Speaker4_Per/P4-2-Per.wav,Speaker4,گوینده۴,0,55,55,61,,,,,73.23001124999973,,,,,,,,,,,,,,,,,,,,,,,,,,,,,,,,,,,,,,,,,,,,,48.26022291700065,0.0,False,48.26041295899995,830432,001,2024-07-03_12h47.24.910,5-all in one,2024.1.4,None,2024-07-03 12h47.30.149188 +0900,
Images/Speaker1.jpg,Images/Speaker2.jpg,Images/Speaker3.jpg,Images/Speaker4.jpg,Audio/Speaker1_Per/P1-7-Per.wav,Speaker1,گوینده ۱,0,56,56,6,,,,,73.23001124999973,,,,,,,,,,,,,,,,,,,,,,,,,,,,,,,,,,,,,,,,,,,,,48.27615024999977,0.0,False,48.276321250001274,830432,001,2024-07-03_12h47.24.910,5-all in one,2024.1.4,None,2024-07-03 12h47.30.149188 +0900,
Images/Speaker1.jpg,Images/Speaker2.jpg,Images/Speaker3.jpg,Images/Speaker4.jpg,Audio/Speaker3_Per/P3-16-Per.wav,Speaker3,گوینده۳,0,57,57,55,,,,,73.23001124999973,,,,,,,,,,,,,,,,,,,,,,,,,,,,,,,,,,,,,,,,,,,,,48.29193304200089,0.0,False,48.29211270900123,830432,001,2024-07-03_12h47.24.910,5-all in one,2024.1.4,None,2024-07-03 12h47.30.149188 +0900,
Images/Speaker1.jpg,Images/Speaker2.jpg,Images/Speaker3.jpg,Images/Speaker4.jpg,Audio/Speaker3_Per/P3-15-Per.wav,Speaker3,گوینده۳,0,58,58,54,,,,,73.23001124999973,,,,,,,,,,,,,,,,,,,,,,,,,,,,,,,,,,,,,,,,,,,,,48.30810691700026,0.0,False,48.30828983399988,830432,001,2024-07-03_12h47.24.910,5-all in one,2024.1.4,None,2024-07-03 12h47.30.149188 +0900,
Images/Speaker1.jpg,Images/Speaker2.jpg,Images/Speaker3.jpg,Images/Speaker4.jpg,Audio/Speaker4_Per/P4-15-Per.wav,Speaker4,گوینده۴,0,59,59,74,,,,,73.23001124999973,,,,,,,,,,,,,,,,,,,,,,,,,,,,,,,,,,,,,,,,,,,,,48.32450220899955,0.0,False,48.324706084000354,830432,001,2024-07-03_12h47.24.910,5-all in one,2024.1.4,None,2024-07-03 12h47.30.149188 +0900,
Images/Speaker1.jpg,Images/Speaker2.jpg,Images/Speaker3.jpg,Images/Speaker4.jpg,Audio/Speaker1_Per/P1-17-Per.wav,Speaker1,گوینده ۱,0,60,60,16,,,,,73.23001124999973,,,,,,,,,,,,,,,,,,,,,,,,,,,,,,,,,,,,,,,,,,,,,48.340352958999574,0.0,False,48.34054779200051,830432,001,2024-07-03_12h47.24.910,5-all in one,2024.1.4,None,2024-07-03 12h47.30.149188 +0900,
Images/Speaker1.jpg,Images/Speaker2.jpg,Images/Speaker3.jpg,Images/Speaker4.jpg,Audio/Speaker3_Per/P3-17-Per.wav,Speaker3,گوینده۳,0,61,61,56,,,,,73.23001124999973,,,,,,,,,,,,,,,,,,,,,,,,,,,,,,,,,,,,,,,,,,,,,48.3560878340013,0.0,False,48.35626116700041,830432,001,2024-07-03_12h47.24.910,5-all in one,2024.1.4,None,2024-07-03 12h47.30.149188 +0900,
Images/Speaker1.jpg,Images/Speaker2.jpg,Images/Speaker3.jpg,Images/Speaker4.jpg,Audio/Speaker3_Per/P3-18-Per.wav,Speaker3,گوینده۳,0,62,62,57,,,,,73.23001124999973,,,,,,,,,,,,,,,,,,,,,,,,,,,,,,,,,,,,,,,,,,,,,48.371846084000936,0.0,False,48.372080459001154,830432,001,2024-07-03_12h47.24.910,5-all in one,2024.1.4,None,2024-07-03 12h47.30.149188 +0900,
Images/Speaker1.jpg,Images/Speaker2.jpg,Images/Speaker3.jpg,Images/Speaker4.jpg,Audio/Speaker4_Per/P4-16-Per.wav,Speaker4,گوینده۴,0,63,63,75,,,,,73.23001124999973,,,,,,,,,,,,,,,,,,,,,,,,,,,,,,,,,,,,,,,,,,,,,48.436898042000394,0.0,False,48.437185417000364,830432,001,2024-07-03_12h47.24.910,5-all in one,2024.1.4,None,2024-07-03 12h47.30.149188 +0900,
Images/Speaker1.jpg,Images/Speaker2.jpg,Images/Speaker3.jpg,Images/Speaker4.jpg,Audio/Speaker1_Per/P1-16-Per.wav,Speaker1,گوینده ۱,0,64,64,15,,,,,73.23001124999973,,,,,,,,,,,,,,,,,,,,,,,,,,,,,,,,,,,,,,,,,,,,,48.45322862499961,0.0,False,48.45343166699968,830432,001,2024-07-03_12h47.24.910,5-all in one,2024.1.4,None,2024-07-03 12h47.30.149188 +0900,
Images/Speaker1.jpg,Images/Speaker2.jpg,Images/Speaker3.jpg,Images/Speaker4.jpg,Audio/Speaker4_Per/P4-8-Per.wav,Speaker4,گوینده۴,0,65,65,67,,,,,73.23001124999973,,,,,,,,,,,,,,,,,,,,,,,,,,,,,,,,,,,,,,,,,,,,,48.46917087499969,0.0,False,48.46942104200025,830432,001,2024-07-03_12h47.24.910,5-all in one,2024.1.4,None,2024-07-03 12h47.30.149188 +0900,
Images/Speaker1.jpg,Images/Speaker2.jpg,Images/Speaker3.jpg,Images/Speaker4.jpg,Audio/Speaker2_Per/P2-9-Per.wav,Speaker2,گوینده۲,0,66,66,28,,,,,73.23001124999973,,,,,,,,,,,,,,,,,,,,,,,,,,,,,,,,,,,,,,,,,,,,,48.48563500000091,0.0,False,48.485827667000194,830432,001,2024-07-03_12h47.24.910,5-all in one,2024.1.4,None,2024-07-03 12h47.30.149188 +0900,
Images/Speaker1.jpg,Images/Speaker2.jpg,Images/Speaker3.jpg,Images/Speaker4.jpg,Audio/Speaker2_Per/P2-10-Per.wav,Speaker2,گوینده۲,0,67,67,29,,,,,73.23001124999973,,,,,,,,,,,,,,,,,,,,,,,,,,,,,,,,,,,,,,,,,,,,,48.50141749999966,0.0,False,48.50159225000061,830432,001,2024-07-03_12h47.24.910,5-all in one,2024.1.4,None,2024-07-03 12h47.30.149188 +0900,
Images/Speaker1.jpg,Images/Speaker2.jpg,Images/Speaker3.jpg,Images/Speaker4.jpg,Audio/Speaker1_Per/P1-8-Per.wav,Speaker1,گوینده ۱,0,68,68,7,,,,,73.23001124999973,,,,,,,,,,,,,,,,,,,,,,,,,,,,,,,,,,,,,,,,,,,,,48.51711824999984,0.0,False,48.51736141699985,830432,001,2024-07-03_12h47.24.910,5-all in one,2024.1.4,None,2024-07-03 12h47.30.149188 +0900,
Images/Speaker1.jpg,Images/Speaker2.jpg,Images/Speaker3.jpg,Images/Speaker4.jpg,Audio/Speaker1_Per/P1-15-Per.wav,Speaker1,گوینده ۱,0,69,69,14,,,,,73.23001124999973,,,,,,,,,,,,,,,,,,,,,,,,,,,,,,,,,,,,,,,,,,,,,48.532973209001284,0.0,False,48.53314750000027,830432,001,2024-07-03_12h47.24.910,5-all in one,2024.1.4,None,2024-07-03 12h47.30.149188 +0900,
Images/Speaker1.jpg,Images/Speaker2.jpg,Images/Speaker3.jpg,Images/Speaker4.jpg,Audio/Speaker2_Per/P2-2-Per.wav,Speaker2,گوینده۲,0,70,70,21,,,,,73.23001124999973,,,,,,,,,,,,,,,,,,,,,,,,,,,,,,,,,,,,,,,,,,,,,48.54926862499997,0.0,False,48.54947495899978,830432,001,2024-07-03_12h47.24.910,5-all in one,2024.1.4,None,2024-07-03 12h47.30.149188 +0900,
Images/Speaker1.jpg,Images/Speaker2.jpg,Images/Speaker3.jpg,Images/Speaker4.jpg,Audio/Speaker3_Per/P3-2-Per.wav,Speaker3,گوینده۳,0,71,71,41,,,,,73.23001124999973,,,,,,,,,,,,,,,,,,,,,,,,,,,,,,,,,,,,,,,,,,,,,48.565305250000165,0.0,False,48.565517541999725,830432,001,2024-07-03_12h47.24.910,5-all in one,2024.1.4,None,2024-07-03 12h47.30.149188 +0900,
Images/Speaker1.jpg,Images/Speaker2.jpg,Images/Speaker3.jpg,Images/Speaker4.jpg,Audio/Speaker2_Per/P2-15-Per.wav,Speaker2,گوینده۲,0,72,72,34,,,,,73.23001124999973,,,,,,,,,,,,,,,,,,,,,,,,,,,,,,,,,,,,,,,,,,,,,48.58115550000002,0.0,False,48.581327125000826,830432,001,2024-07-03_12h47.24.910,5-all in one,2024.1.4,None,2024-07-03 12h47.30.149188 +0900,
Images/Speaker1.jpg,Images/Speaker2.jpg,Images/Speaker3.jpg,Images/Speaker4.jpg,Audio/Speaker3_Per/P3-10-Per.wav,Speaker3,گوینده۳,0,73,73,49,,,,,73.23001124999973,,,,,,,,,,,,,,,,,,,,,,,,,,,,,,,,,,,,,,,,,,,,,48.59737816699999,0.0,False,48.59758737500124,830432,001,2024-07-03_12h47.24.910,5-all in one,2024.1.4,None,2024-07-03 12h47.30.149188 +0900,
Images/Speaker1.jpg,Images/Speaker2.jpg,Images/Speaker3.jpg,Images/Speaker4.jpg,Audio/Speaker4_Per/P4-13-Per.wav,Speaker4,گوینده۴,0,74,74,72,,,,,73.23001124999973,,,,,,,,,,,,,,,,,,,,,,,,,,,,,,,,,,,,,,,,,,,,,48.61376137499974,0.0,False,48.61398462500074,830432,001,2024-07-03_12h47.24.910,5-all in one,2024.1.4,None,2024-07-03 12h47.30.149188 +0900,
Images/Speaker1.jpg,Images/Speaker2.jpg,Images/Speaker3.jpg,Images/Speaker4.jpg,Audio/Speaker1_Per/P1-19-Per.wav,Speaker1,گوینده ۱,0,75,75,18,,,,,73.23001124999973,,,,,,,,,,,,,,,,,,,,,,,,,,,,,,,,,,,,,,,,,,,,,48.62953941700107,0.0,False,48.629721000001155,830432,001,2024-07-03_12h47.24.910,5-all in one,2024.1.4,None,2024-07-03 12h47.30.149188 +0900,
Images/Speaker1.jpg,Images/Speaker2.jpg,Images/Speaker3.jpg,Images/Speaker4.jpg,Audio/Speaker2_Per/P2-11-Per.wav,Speaker2,گوینده۲,0,76,76,30,,,,,73.23001124999973,,,,,,,,,,,,,,,,,,,,,,,,,,,,,,,,,,,,,,,,,,,,,48.645284000000174,0.0,False,48.64548400000058,830432,001,2024-07-03_12h47.24.910,5-all in one,2024.1.4,None,2024-07-03 12h47.30.149188 +0900,
Images/Speaker1.jpg,Images/Speaker2.jpg,Images/Speaker3.jpg,Images/Speaker4.jpg,Audio/Speaker4_Per/P4-7-Per.wav,Speaker4,گوینده۴,0,77,77,66,,,,,73.23001124999973,,,,,,,,,,,,,,,,,,,,,,,,,,,,,,,,,,,,,,,,,,,,,48.66123266700015,0.0,False,48.661385458999575,830432,001,2024-07-03_12h47.24.910,5-all in one,2024.1.4,None,2024-07-03 12h47.30.149188 +0900,
Images/Speaker1.jpg,Images/Speaker2.jpg,Images/Speaker3.jpg,Images/Speaker4.jpg,Audio/Speaker4_Per/P4-4-Per.wav,Speaker4,گوینده۴,0,78,78,63,,,,,73.23001124999973,,,,,,,,,,,,,,,,,,,,,,,,,,,,,,,,,,,,,,,,,,,,,48.678140084000916,0.0,False,48.67831649999971,830432,001,2024-07-03_12h47.24.910,5-all in one,2024.1.4,None,2024-07-03 12h47.30.149188 +0900,
Images/Speaker1.jpg,Images/Speaker2.jpg,Images/Speaker3.jpg,Images/Speaker4.jpg,Audio/Speaker3_Per/P3-5-Per.wav,Speaker3,گوینده۳,0,79,79,44,,,,,73.23001124999973,,,,,,,,,,,,,,,,,,,,,,,,,,,,,,,,,,,,,,,,,,,,,48.6938842920008,0.0,False,48.69406262499979,830432,001,2024-07-03_12h47.24.910,5-all in one,2024.1.4,None,2024-07-03 12h47.30.149188 +0900,
Images/Speaker1.jpg,Images/Speaker2.jpg,Images/Speaker3.jpg,Images/Speaker4.jpg,Audio/Speaker3_Per/P3-13-Per.wav,Speaker3,گوینده۳,1,0,80,52,,,,,73.23001124999973,,,,,,,,,,,,,,,,,,,,,,,,,,,,,,,,,,,,,,,,,,,,,48.709619084000224,0.0,False,48.709826375001285,830432,001,2024-07-03_12h47.24.910,5-all in one,2024.1.4,None,2024-07-03 12h47.30.149188 +0900,
Images/Speaker1.jpg,Images/Speaker2.jpg,Images/Speaker3.jpg,Images/Speaker4.jpg,Audio/Speaker1_Per/P1-17-Per.wav,Speaker1,گوینده ۱,1,1,81,16,,,,,73.23001124999973,,,,,,,,,,,,,,,,,,,,,,,,,,,,,,,,,,,,,,,,,,,,,48.7255556250002,0.0,False,48.72574420900128,830432,001,2024-07-03_12h47.24.910,5-all in one,2024.1.4,None,2024-07-03 12h47.30.149188 +0900,
Images/Speaker1.jpg,Images/Speaker2.jpg,Images/Speaker3.jpg,Images/Speaker4.jpg,Audio/Speaker4_Per/P4-2-Per.wav,Speaker4,گوینده۴,1,2,82,61,,,,,73.23001124999973,,,,,,,,,,,,,,,,,,,,,,,,,,,,,,,,,,,,,,,,,,,,,48.74208841700056,0.0,False,48.742289249999885,830432,001,2024-07-03_12h47.24.910,5-all in one,2024.1.4,None,2024-07-03 12h47.30.149188 +0900,
Images/Speaker1.jpg,Images/Speaker2.jpg,Images/Speaker3.jpg,Images/Speaker4.jpg,Audio/Speaker3_Per/P3-18-Per.wav,Speaker3,گوینده۳,1,3,83,57,,,,,73.23001124999973,,,,,,,,,,,,,,,,,,,,,,,,,,,,,,,,,,,,,,,,,,,,,48.75793695900029,0.0,False,48.75813500000004,830432,001,2024-07-03_12h47.24.910,5-all in one,2024.1.4,None,2024-07-03 12h47.30.149188 +0900,
Images/Speaker1.jpg,Images/Speaker2.jpg,Images/Speaker3.jpg,Images/Speaker4.jpg,Audio/Speaker4_Per/P4-9-Per.wav,Speaker4,گوینده۴,1,4,84,68,,,,,73.23001124999973,,,,,,,,,,,,,,,,,,,,,,,,,,,,,,,,,,,,,,,,,,,,,48.77376529200046,0.0,False,48.77392987500025,830432,001,2024-07-03_12h47.24.910,5-all in one,2024.1.4,None,2024-07-03 12h47.30.149188 +0900,
Images/Speaker1.jpg,Images/Speaker2.jpg,Images/Speaker3.jpg,Images/Speaker4.jpg,Audio/Speaker1_Per/P1-10-Per.wav,Speaker1,گوینده ۱,1,5,85,9,,,,,73.23001124999973,,,,,,,,,,,,,,,,,,,,,,,,,,,,,,,,,,,,,,,,,,,,,48.78973320899968,0.0,False,48.7899572919996,830432,001,2024-07-03_12h47.24.910,5-all in one,2024.1.4,None,2024-07-03 12h47.30.149188 +0900,
Images/Speaker1.jpg,Images/Speaker2.jpg,Images/Speaker3.jpg,Images/Speaker4.jpg,Audio/Speaker4_Per/P4-15-Per.wav,Speaker4,گوینده۴,1,6,86,74,,,,,73.23001124999973,,,,,,,,,,,,,,,,,,,,,,,,,,,,,,,,,,,,,,,,,,,,,48.80646295900078,0.0,False,48.806642584000656,830432,001,2024-07-03_12h47.24.910,5-all in one,2024.1.4,None,2024-07-03 12h47.30.149188 +0900,
Images/Speaker1.jpg,Images/Speaker2.jpg,Images/Speaker3.jpg,Images/Speaker4.jpg,Audio/Speaker2_Per/P2-4-Per.wav,Speaker2,گوینده۲,1,7,87,23,,,,,73.23001124999973,,,,,,,,,,,,,,,,,,,,,,,,,,,,,,,,,,,,,,,,,,,,,48.82225458399989,0.0,False,48.82245229200089,830432,001,2024-07-03_12h47.24.910,5-all in one,2024.1.4,None,2024-07-03 12h47.30.149188 +0900,
Images/Speaker1.jpg,Images/Speaker2.jpg,Images/Speaker3.jpg,Images/Speaker4.jpg,Audio/Speaker1_Per/P1-12-Per.wav,Speaker1,گوینده ۱,1,8,88,11,,,,,73.23001124999973,,,,,,,,,,,,,,,,,,,,,,,,,,,,,,,,,,,,,,,,,,,,,48.837992167000266,0.0,False,48.83821116699983,830432,001,2024-07-03_12h47.24.910,5-all in one,2024.1.4,None,2024-07-03 12h47.30.149188 +0900,
Images/Speaker1.jpg,Images/Speaker2.jpg,Images/Speaker3.jpg,Images/Speaker4.jpg,Audio/Speaker2_Per/P2-6-Per.wav,Speaker2,گوینده۲,1,9,89,25,,,,,73.23001124999973,,,,,,,,,,,,,,,,,,,,,,,,,,,,,,,,,,,,,,,,,,,,,48.85379041700071,0.0,False,48.8539807090001,830432,001,2024-07-03_12h47.24.910,5-all in one,2024.1.4,None,2024-07-03 12h47.30.149188 +0900,
Images/Speaker1.jpg,Images/Speaker2.jpg,Images/Speaker3.jpg,Images/Speaker4.jpg,Audio/Speaker2_Per/P2-5-Per.wav,Speaker2,گوینده۲,1,10,90,24,,,,,73.23001124999973,,,,,,,,,,,,,,,,,,,,,,,,,,,,,,,,,,,,,,,,,,,,,48.87026745900039,0.0,False,48.87043633400026,830432,001,2024-07-03_12h47.24.910,5-all in one,2024.1.4,None,2024-07-03 12h47.30.149188 +0900,
Images/Speaker1.jpg,Images/Speaker2.jpg,Images/Speaker3.jpg,Images/Speaker4.jpg,Audio/Speaker2_Per/P2-12-Per.wav,Speaker2,گوینده۲,1,11,91,31,,,,,73.23001124999973,,,,,,,,,,,,,,,,,,,,,,,,,,,,,,,,,,,,,,,,,,,,,48.88603491700087,0.0,False,48.88620625000112,830432,001,2024-07-03_12h47.24.910,5-all in one,2024.1.4,None,2024-07-03 12h47.30.149188 +0900,
Images/Speaker1.jpg,Images/Speaker2.jpg,Images/Speaker3.jpg,Images/Speaker4.jpg,Audio/Speaker4_Per/P4-1-Per.wav,Speaker4,گوینده۴,1,12,92,60,,,,,73.23001124999973,,,,,,,,,,,,,,,,,,,,,,,,,,,,,,,,,,,,,,,,,,,,,48.901942333999614,0.0,False,48.902112708999994,830432,001,2024-07-03_12h47.24.910,5-all in one,2024.1.4,None,2024-07-03 12h47.30.149188 +0900,
Images/Speaker1.jpg,Images/Speaker2.jpg,Images/Speaker3.jpg,Images/Speaker4.jpg,Audio/Speaker4_Per/P4-16-Per.wav,Speaker4,گوینده۴,1,13,93,75,,,,,73.23001124999973,,,,,,,,,,,,,,,,,,,,,,,,,,,,,,,,,,,,,,,,,,,,,48.9177691670011,0.0,False,48.91797483400114,830432,001,2024-07-03_12h47.24.910,5-all in one,2024.1.4,None,2024-07-03 12h47.30.149188 +0900,
Images/Speaker1.jpg,Images/Speaker2.jpg,Images/Speaker3.jpg,Images/Speaker4.jpg,Audio/Speaker3_Per/P3-19-Per.wav,Speaker3,گوینده۳,1,14,94,58,,,,,73.23001124999973,,,,,,,,,,,,,,,,,,,,,,,,,,,,,,,,,,,,,,,,,,,,,48.934226041999864,0.0,False,48.934387708999566,830432,001,2024-07-03_12h47.24.910,5-all in one,2024.1.4,None,2024-07-03 12h47.30.149188 +0900,
Images/Speaker1.jpg,Images/Speaker2.jpg,Images/Speaker3.jpg,Images/Speaker4.jpg,Audio/Speaker3_Per/P3-8-Per.wav,Speaker3,گوینده۳,1,15,95,47,,,,,73.23001124999973,,,,,,,,,,,,,,,,,,,,,,,,,,,,,,,,,,,,,,,,,,,,,48.950069542001074,0.0,False,48.95024854199983,830432,001,2024-07-03_12h47.24.910,5-all in one,2024.1.4,None,2024-07-03 12h47.30.149188 +0900,
Images/Speaker1.jpg,Images/Speaker2.jpg,Images/Speaker3.jpg,Images/Speaker4.jpg,Audio/Speaker4_Per/P4-18-Per.wav,Speaker4,گوینده۴,1,16,96,77,,,,,73.23001124999973,,,,,,,,,,,,,,,,,,,,,,,,,,,,,,,,,,,,,,,,,,,,,48.965973292000854,0.0,False,48.96614158400007,830432,001,2024-07-03_12h47.24.910,5-all in one,2024.1.4,None,2024-07-03 12h47.30.149188 +0900,
Images/Speaker1.jpg,Images/Speaker2.jpg,Images/Speaker3.jpg,Images/Speaker4.jpg,Audio/Speaker1_Per/P1-15-Per.wav,Speaker1,گوینده ۱,1,17,97,14,,,,,73.23001124999973,,,,,,,,,,,,,,,,,,,,,,,,,,,,,,,,,,,,,,,,,,,,,48.98185929200008,0.0,False,48.982094750001124,830432,001,2024-07-03_12h47.24.910,5-all in one,2024.1.4,None,2024-07-03 12h47.30.149188 +0900,
Images/Speaker1.jpg,Images/Speaker2.jpg,Images/Speaker3.jpg,Images/Speaker4.jpg,Audio/Speaker2_Per/P2-15-Per.wav,Speaker2,گوینده۲,1,18,98,34,,,,,73.23001124999973,,,,,,,,,,,,,,,,,,,,,,,,,,,,,,,,,,,,,,,,,,,,,48.998554584000885,0.0,False,48.998750500000824,830432,001,2024-07-03_12h47.24.910,5-all in one,2024.1.4,None,2024-07-03 12h47.30.149188 +0900,
Images/Speaker1.jpg,Images/Speaker2.jpg,Images/Speaker3.jpg,Images/Speaker4.jpg,Audio/Speaker4_Per/P4-14-Per.wav,Speaker4,گوینده۴,1,19,99,73,,,,,73.23001124999973,,,,,,,,,,,,,,,,,,,,,,,,,,,,,,,,,,,,,,,,,,,,,49.01437179200002,0.0,False,49.0145847090007,830432,001,2024-07-03_12h47.24.910,5-all in one,2024.1.4,None,2024-07-03 12h47.30.149188 +0900,
Images/Speaker1.jpg,Images/Speaker2.jpg,Images/Speaker3.jpg,Images/Speaker4.jpg,Audio/Speaker2_Per/P2-14-Per.wav,Speaker2,گوینده۲,1,20,100,33,,,,,73.23001124999973,,,,,,,,,,,,,,,,,,,,,,,,,,,,,,,,,,,,,,,,,,,,,49.03026208400115,0.0,False,49.030419750000874,830432,001,2024-07-03_12h47.24.910,5-all in one,2024.1.4,None,2024-07-03 12h47.30.149188 +0900,
Images/Speaker1.jpg,Images/Speaker2.jpg,Images/Speaker3.jpg,Images/Speaker4.jpg,Audio/Speaker1_Per/P1-1-Per.wav,Speaker1,گوینده ۱,1,21,101,0,,,,,73.23001124999973,,,,,,,,,,,,,,,,,,,,,,,,,,,,,,,,,,,,,,,,,,,,,49.0463472499996,0.0,False,49.04656299999988,830432,001,2024-07-03_12h47.24.910,5-all in one,2024.1.4,None,2024-07-03 12h47.30.149188 +0900,
Images/Speaker1.jpg,Images/Speaker2.jpg,Images/Speaker3.jpg,Images/Speaker4.jpg,Audio/Speaker1_Per/P1-5-Per.wav,Speaker1,گوینده ۱,1,22,102,4,,,,,73.23001124999973,,,,,,,,,,,,,,,,,,,,,,,,,,,,,,,,,,,,,,,,,,,,,49.0630141670008,0.0,False,49.063195917000485,830432,001,2024-07-03_12h47.24.910,5-all in one,2024.1.4,None,2024-07-03 12h47.30.149188 +0900,
Images/Speaker1.jpg,Images/Speaker2.jpg,Images/Speaker3.jpg,Images/Speaker4.jpg,Audio/Speaker3_Per/P3-1-Per.wav,Speaker3,گوینده۳,1,23,103,40,,,,,73.23001124999973,,,,,,,,,,,,,,,,,,,,,,,,,,,,,,,,,,,,,,,,,,,,,49.07879833399966,0.0,False,49.07900004200019,830432,001,2024-07-03_12h47.24.910,5-all in one,2024.1.4,None,2024-07-03 12h47.30.149188 +0900,
Images/Speaker1.jpg,Images/Speaker2.jpg,Images/Speaker3.jpg,Images/Speaker4.jpg,Audio/Speaker3_Per/P3-7-Per.wav,Speaker3,گوینده۳,1,24,104,46,,,,,73.23001124999973,,,,,,,,,,,,,,,,,,,,,,,,,,,,,,,,,,,,,,,,,,,,,49.095076167001025,0.0,False,49.09531366699957,830432,001,2024-07-03_12h47.24.910,5-all in one,2024.1.4,None,2024-07-03 12h47.30.149188 +0900,
Images/Speaker1.jpg,Images/Speaker2.jpg,Images/Speaker3.jpg,Images/Speaker4.jpg,Audio/Speaker3_Per/P3-17-Per.wav,Speaker3,گوینده۳,1,25,105,56,,,,,73.23001124999973,,,,,,,,,,,,,,,,,,,,,,,,,,,,,,,,,,,,,,,,,,,,,49.11111629200059,0.0,False,49.1113184170008,830432,001,2024-07-03_12h47.24.910,5-all in one,2024.1.4,None,2024-07-03 12h47.30.149188 +0900,
Images/Speaker1.jpg,Images/Speaker2.jpg,Images/Speaker3.jpg,Images/Speaker4.jpg,Audio/Speaker1_Per/P1-4-Per.wav,Speaker1,گوینده ۱,1,26,106,13,,,,,73.23001124999973,,,,,,,,,,,,,,,,,,,,,,,,,,,,,,,,,,,,,,,,,,,,,49.1275993750005,0.0,False,49.127794792000714,830432,001,2024-07-03_12h47.24.910,5-all in one,2024.1.4,None,2024-07-03 12h47.30.149188 +0900,
Images/Speaker1.jpg,Images/Speaker2.jpg,Images/Speaker3.jpg,Images/Speaker4.jpg,Audio/Speaker2_Per/P2-10-Per.wav,Speaker2,گوینده۲,1,27,107,29,,,,,73.23001124999973,,,,,,,,,,,,,,,,,,,,,,,,,,,,,,,,,,,,,,,,,,,,,49.143604333999974,0.0,False,49.14380129200072,830432,001,2024-07-03_12h47.24.910,5-all in one,2024.1.4,None,2024-07-03 12h47.30.149188 +0900,
Images/Speaker1.jpg,Images/Speaker2.jpg,Images/Speaker3.jpg,Images/Speaker4.jpg,Audio/Speaker4_Per/P4-10-Per.wav,Speaker4,گوینده۴,1,28,108,69,,,,,73.23001124999973,,,,,,,,,,,,,,,,,,,,,,,,,,,,,,,,,,,,,,,,,,,,,49.159442666999894,0.0,False,49.159662000000026,830432,001,2024-07-03_12h47.24.910,5-all in one,2024.1.4,None,2024-07-03 12h47.30.149188 +0900,
Images/Speaker1.jpg,Images/Speaker2.jpg,Images/Speaker3.jpg,Images/Speaker4.jpg,Audio/Speaker4_Per/P4-4-Per.wav,Speaker4,گوینده۴,1,29,109,63,,,,,73.23001124999973,,,,,,,,,,,,,,,,,,,,,,,,,,,,,,,,,,,,,,,,,,,,,49.17527591700127,0.0,False,49.17550350000056,830432,001,2024-07-03_12h47.24.910,5-all in one,2024.1.4,None,2024-07-03 12h47.30.149188 +0900,
Images/Speaker1.jpg,Images/Speaker2.jpg,Images/Speaker3.jpg,Images/Speaker4.jpg,Audio/Speaker4_Per/P4-19-Per.wav,Speaker4,گوینده۴,1,30,110,78,,,,,73.23001124999973,,,,,,,,,,,,,,,,,,,,,,,,,,,,,,,,,,,,,,,,,,,,,49.19173604200114,0.0,False,49.191925625000295,830432,001,2024-07-03_12h47.24.910,5-all in one,2024.1.4,None,2024-07-03 12h47.30.149188 +0900,
Images/Speaker1.jpg,Images/Speaker2.jpg,Images/Speaker3.jpg,Images/Speaker4.jpg,Audio/Speaker3_Per/P3-2-Per.wav,Speaker3,گوینده۳,1,31,111,41,,,,,73.23001124999973,,,,,,,,,,,,,,,,,,,,,,,,,,,,,,,,,,,,,,,,,,,,,49.20757195900114,0.0,False,49.207761584000764,830432,001,2024-07-03_12h47.24.910,5-all in one,2024.1.4,None,2024-07-03 12h47.30.149188 +0900,
Images/Speaker1.jpg,Images/Speaker2.jpg,Images/Speaker3.jpg,Images/Speaker4.jpg,Audio/Speaker1_Per/P1-9-Per.wav,Speaker1,گوینده ۱,1,32,112,8,,,,,73.23001124999973,,,,,,,,,,,,,,,,,,,,,,,,,,,,,,,,,,,,,,,,,,,,,49.223331584000334,0.0,False,49.22350333400027,830432,001,2024-07-03_12h47.24.910,5-all in one,2024.1.4,None,2024-07-03 12h47.30.149188 +0900,
Images/Speaker1.jpg,Images/Speaker2.jpg,Images/Speaker3.jpg,Images/Speaker4.jpg,Audio/Speaker3_Per/P3-14-Per.wav,Speaker3,گوینده۳,1,33,113,53,,,,,73.23001124999973,,,,,,,,,,,,,,,,,,,,,,,,,,,,,,,,,,,,,,,,,,,,,49.23918729199977,0.0,False,49.239388709000195,830432,001,2024-07-03_12h47.24.910,5-all in one,2024.1.4,None,2024-07-03 12h47.30.149188 +0900,
Images/Speaker1.jpg,Images/Speaker2.jpg,Images/Speaker3.jpg,Images/Speaker4.jpg,Audio/Speaker2_Per/P2-2-Per.wav,Speaker2,گوینده۲,1,34,114,21,,,,,73.23001124999973,,,,,,,,,,,,,,,,,,,,,,,,,,,,,,,,,,,,,,,,,,,,,49.25565095900129,0.0,False,49.255850625000676,830432,001,2024-07-03_12h47.24.910,5-all in one,2024.1.4,None,2024-07-03 12h47.30.149188 +0900,
Images/Speaker1.jpg,Images/Speaker2.jpg,Images/Speaker3.jpg,Images/Speaker4.jpg,Audio/Speaker1_Per/P1-11-Per.wav,Speaker1,گوینده ۱,1,35,115,10,,,,,73.23001124999973,,,,,,,,,,,,,,,,,,,,,,,,,,,,,,,,,,,,,,,,,,,,,49.271562084000834,0.0,False,49.27172350000001,830432,001,2024-07-03_12h47.24.910,5-all in one,2024.1.4,None,2024-07-03 12h47.30.149188 +0900,
Images/Speaker1.jpg,Images/Speaker2.jpg,Images/Speaker3.jpg,Images/Speaker4.jpg,Audio/Speaker3_Per/P3-6-Per.wav,Speaker3,گوینده۳,1,36,116,45,,,,,73.23001124999973,,,,,,,,,,,,,,,,,,,,,,,,,,,,,,,,,,,,,,,,,,,,,49.28724520899959,0.0,False,49.28744437500063,830432,001,2024-07-03_12h47.24.910,5-all in one,2024.1.4,None,2024-07-03 12h47.30.149188 +0900,
Images/Speaker1.jpg,Images/Speaker2.jpg,Images/Speaker3.jpg,Images/Speaker4.jpg,Audio/Speaker2_Per/P2-3-Per.wav,Speaker2,گوینده۲,1,37,117,22,,,,,73.23001124999973,,,,,,,,,,,,,,,,,,,,,,,,,,,,,,,,,,,,,,,,,,,,,49.3030976250011,0.0,False,49.30327045900049,830432,001,2024-07-03_12h47.24.910,5-all in one,2024.1.4,None,2024-07-03 12h47.30.149188 +0900,
Images/Speaker1.jpg,Images/Speaker2.jpg,Images/Speaker3.jpg,Images/Speaker4.jpg,Audio/Speaker4_Per/P4-11-Per.wav,Speaker4,گوینده۴,1,38,118,70,,,,,73.23001124999973,,,,,,,,,,,,,,,,,,,,,,,,,,,,,,,,,,,,,,,,,,,,,49.319658583999626,0.0,False,49.319821667000724,830432,001,2024-07-03_12h47.24.910,5-all in one,2024.1.4,None,2024-07-03 12h47.30.149188 +0900,
Images/Speaker1.jpg,Images/Speaker2.jpg,Images/Speaker3.jpg,Images/Speaker4.jpg,Audio/Speaker2_Per/P2-16-Per.wav,Speaker2,گوینده۲,1,39,119,35,,,,,73.23001124999973,,,,,,,,,,,,,,,,,,,,,,,,,,,,,,,,,,,,,,,,,,,,,49.3355360000005,0.0,False,49.335701125000924,830432,001,2024-07-03_12h47.24.910,5-all in one,2024.1.4,None,2024-07-03 12h47.30.149188 +0900,
Images/Speaker1.jpg,Images/Speaker2.jpg,Images/Speaker3.jpg,Images/Speaker4.jpg,Audio/Speaker1_Per/P1-13-Per.wav,Speaker1,گوینده ۱,1,40,120,12,,,,,73.23001124999973,,,,,,,,,,,,,,,,,,,,,,,,,,,,,,,,,,,,,,,,,,,,,49.35121637500015,0.0,False,49.35137187500004,830432,001,2024-07-03_12h47.24.910,5-all in one,2024.1.4,None,2024-07-03 12h47.30.149188 +0900,
Images/Speaker1.jpg,Images/Speaker2.jpg,Images/Speaker3.jpg,Images/Speaker4.jpg,Audio/Speaker4_Per/P4-6-Per.wav,Speaker4,گوینده۴,1,41,121,65,,,,,73.23001124999973,,,,,,,,,,,,,,,,,,,,,,,,,,,,,,,,,,,,,,,,,,,,,49.36705774999973,0.0,False,49.36723941700075,830432,001,2024-07-03_12h47.24.910,5-all in one,2024.1.4,None,2024-07-03 12h47.30.149188 +0900,
Images/Speaker1.jpg,Images/Speaker2.jpg,Images/Speaker3.jpg,Images/Speaker4.jpg,Audio/Speaker4_Per/P4-17-Per.wav,Speaker4,گوینده۴,1,42,122,76,,,,,73.23001124999973,,,,,,,,,,,,,,,,,,,,,,,,,,,,,,,,,,,,,,,,,,,,,49.38345466700048,0.0,False,49.38368479200108,830432,001,2024-07-03_12h47.24.910,5-all in one,2024.1.4,None,2024-07-03 12h47.30.149188 +0900,
Images/Speaker1.jpg,Images/Speaker2.jpg,Images/Speaker3.jpg,Images/Speaker4.jpg,Audio/Speaker2_Per/P2-8-Per.wav,Speaker2,گوینده۲,1,43,123,27,,,,,73.23001124999973,,,,,,,,,,,,,,,,,,,,,,,,,,,,,,,,,,,,,,,,,,,,,49.399365459001274,0.0,False,49.39956024999992,830432,001,2024-07-03_12h47.24.910,5-all in one,2024.1.4,None,2024-07-03 12h47.30.149188 +0900,
Images/Speaker1.jpg,Images/Speaker2.jpg,Images/Speaker3.jpg,Images/Speaker4.jpg,Audio/Speaker2_Per/P2-20-Per.wav,Speaker2,گوینده۲,1,44,124,39,,,,,73.23001124999973,,,,,,,,,,,,,,,,,,,,,,,,,,,,,,,,,,,,,,,,,,,,,49.4152445840009,0.0,False,49.41545695900095,830432,001,2024-07-03_12h47.24.910,5-all in one,2024.1.4,None,2024-07-03 12h47.30.149188 +0900,
Images/Speaker1.jpg,Images/Speaker2.jpg,Images/Speaker3.jpg,Images/Speaker4.jpg,Audio/Speaker1_Per/P1-6-Per.wav,Speaker1,گوینده ۱,1,45,125,5,,,,,73.23001124999973,,,,,,,,,,,,,,,,,,,,,,,,,,,,,,,,,,,,,,,,,,,,,49.431104209001205,0.0,False,49.43133358399973,830432,001,2024-07-03_12h47.24.910,5-all in one,2024.1.4,None,2024-07-03 12h47.30.149188 +0900,
Images/Speaker1.jpg,Images/Speaker2.jpg,Images/Speaker3.jpg,Images/Speaker4.jpg,Audio/Speaker3_Per/P3-16-Per.wav,Speaker3,گوینده۳,1,46,126,55,,,,,73.23001124999973,,,,,,,,,,,,,,,,,,,,,,,,,,,,,,,,,,,,,,,,,,,,,49.44765333400028,0.0,False,49.447838792000766,830432,001,2024-07-03_12h47.24.910,5-all in one,2024.1.4,None,2024-07-03 12h47.30.149188 +0900,
Images/Speaker1.jpg,Images/Speaker2.jpg,Images/Speaker3.jpg,Images/Speaker4.jpg,Audio/Speaker3_Per/P3-3-Per.wav,Speaker3,گوینده۳,1,47,127,42,,,,,73.23001124999973,,,,,,,,,,,,,,,,,,,,,,,,,,,,,,,,,,,,,,,,,,,,,49.463509875000454,0.0,False,49.46369970900014,830432,001,2024-07-03_12h47.24.910,5-all in one,2024.1.4,None,2024-07-03 12h47.30.149188 +0900,
Images/Speaker1.jpg,Images/Speaker2.jpg,Images/Speaker3.jpg,Images/Speaker4.jpg,Audio/Speaker4_Per/P4-5-Per.wav,Speaker4,گوینده۴,1,48,128,64,,,,,73.23001124999973,,,,,,,,,,,,,,,,,,,,,,,,,,,,,,,,,,,,,,,,,,,,,49.479547750001075,0.0,False,49.47973958399962,830432,001,2024-07-03_12h47.24.910,5-all in one,2024.1.4,None,2024-07-03 12h47.30.149188 +0900,
Images/Speaker1.jpg,Images/Speaker2.jpg,Images/Speaker3.jpg,Images/Speaker4.jpg,Audio/Speaker2_Per/P2-19-Per.wav,Speaker2,گوینده۲,1,49,129,38,,,,,73.23001124999973,,,,,,,,,,,,,,,,,,,,,,,,,,,,,,,,,,,,,,,,,,,,,49.49543749999975,0.0,False,49.49561633400117,830432,001,2024-07-03_12h47.24.910,5-all in one,2024.1.4,None,2024-07-03 12h47.30.149188 +0900,
Images/Speaker1.jpg,Images/Speaker2.jpg,Images/Speaker3.jpg,Images/Speaker4.jpg,Audio/Speaker3_Per/P3-12-Per.wav,Speaker3,گوینده۳,1,50,130,51,,,,,73.23001124999973,,,,,,,,,,,,,,,,,,,,,,,,,,,,,,,,,,,,,,,,,,,,,49.511875792000865,0.0,False,49.51210220900066,830432,001,2024-07-03_12h47.24.910,5-all in one,2024.1.4,None,2024-07-03 12h47.30.149188 +0900,
Images/Speaker1.jpg,Images/Speaker2.jpg,Images/Speaker3.jpg,Images/Speaker4.jpg,Audio/Speaker1_Per/P1-8-Per.wav,Speaker1,گوینده ۱,1,51,131,7,,,,,73.23001124999973,,,,,,,,,,,,,,,,,,,,,,,,,,,,,,,,,,,,,,,,,,,,,49.52779345900126,0.0,False,49.527982334000626,830432,001,2024-07-03_12h47.24.910,5-all in one,2024.1.4,None,2024-07-03 12h47.30.149188 +0900,
Images/Speaker1.jpg,Images/Speaker2.jpg,Images/Speaker3.jpg,Images/Speaker4.jpg,Audio/Speaker2_Per/P2-17-Per.wav,Speaker2,گوینده۲,1,52,132,36,,,,,73.23001124999973,,,,,,,,,,,,,,,,,,,,,,,,,,,,,,,,,,,,,,,,,,,,,49.543772541999715,0.0,False,49.54395554199982,830432,001,2024-07-03_12h47.24.910,5-all in one,2024.1.4,None,2024-07-03 12h47.30.149188 +0900,
Images/Speaker1.jpg,Images/Speaker2.jpg,Images/Speaker3.jpg,Images/Speaker4.jpg,Audio/Speaker4_Per/P4-13-Per.wav,Speaker4,گوینده۴,1,53,133,72,,,,,73.23001124999973,,,,,,,,,,,,,,,,,,,,,,,,,,,,,,,,,,,,,,,,,,,,,49.55981025000074,0.0,False,49.55997445899993,830432,001,2024-07-03_12h47.24.910,5-all in one,2024.1.4,None,2024-07-03 12h47.30.149188 +0900,
Images/Speaker1.jpg,Images/Speaker2.jpg,Images/Speaker3.jpg,Images/Speaker4.jpg,Audio/Speaker4_Per/P4-8-Per.wav,Speaker4,گوینده۴,1,54,134,67,,,,,73.23001124999973,,,,,,,,,,,,,,,,,,,,,,,,,,,,,,,,,,,,,,,,,,,,,49.57620237500123,0.0,False,49.57636425000055,830432,001,2024-07-03_12h47.24.910,5-all in one,2024.1.4,None,2024-07-03 12h47.30.149188 +0900,
Images/Speaker1.jpg,Images/Speaker2.jpg,Images/Speaker3.jpg,Images/Speaker4.jpg,Audio/Speaker1_Per/P1-2-Per.wav,Speaker1,گوینده ۱,1,55,135,1,,,,,73.23001124999973,,,,,,,,,,,,,,,,,,,,,,,,,,,,,,,,,,,,,,,,,,,,,49.592066667000836,0.0,False,49.5922306249995,830432,001,2024-07-03_12h47.24.910,5-all in one,2024.1.4,None,2024-07-03 12h47.30.149188 +0900,
Images/Speaker1.jpg,Images/Speaker2.jpg,Images/Speaker3.jpg,Images/Speaker4.jpg,Audio/Speaker1_Per/P1-7-Per.wav,Speaker1,گوینده ۱,1,56,136,6,,,,,73.23001124999973,,,,,,,,,,,,,,,,,,,,,,,,,,,,,,,,,,,,,,,,,,,,,49.60819508399982,0.0,False,49.608436167000036,830432,001,2024-07-03_12h47.24.910,5-all in one,2024.1.4,None,2024-07-03 12h47.30.149188 +0900,
Images/Speaker1.jpg,Images/Speaker2.jpg,Images/Speaker3.jpg,Images/Speaker4.jpg,Audio/Speaker1_Per/P1-20-Per.wav,Speaker1,گوینده ۱,1,57,137,19,,,,,73.23001124999973,,,,,,,,,,,,,,,,,,,,,,,,,,,,,,,,,,,,,,,,,,,,,49.624183125000854,0.0,False,49.62436887500007,830432,001,2024-07-03_12h47.24.910,5-all in one,2024.1.4,None,2024-07-03 12h47.30.149188 +0900,
Images/Speaker1.jpg,Images/Speaker2.jpg,Images/Speaker3.jpg,Images/Speaker4.jpg,Audio/Speaker1_Per/P1-16-Per.wav,Speaker1,گوینده ۱,1,58,138,15,,,,,73.23001124999973,,,,,,,,,,,,,,,,,,,,,,,,,,,,,,,,,,,,,,,,,,,,,49.640700125000876,0.0,False,49.640852250000535,830432,001,2024-07-03_12h47.24.910,5-all in one,2024.1.4,None,2024-07-03 12h47.30.149188 +0900,
Images/Speaker1.jpg,Images/Speaker2.jpg,Images/Speaker3.jpg,Images/Speaker4.jpg,Audio/Speaker2_Per/P2-11-Per.wav,Speaker2,گوینده۲,1,59,139,30,,,,,73.23001124999973,,,,,,,,,,,,,,,,,,,,,,,,,,,,,,,,,,,,,,,,,,,,,49.65658891699968,0.0,False,49.65678766699966,830432,001,2024-07-03_12h47.24.910,5-all in one,2024.1.4,None,2024-07-03 12h47.30.149188 +0900,
Images/Speaker1.jpg,Images/Speaker2.jpg,Images/Speaker3.jpg,Images/Speaker4.jpg,Audio/Speaker3_Per/P3-5-Per.wav,Speaker3,گوینده۳,1,60,140,44,,,,,73.23001124999973,,,,,,,,,,,,,,,,,,,,,,,,,,,,,,,,,,,,,,,,,,,,,49.67248841699984,0.0,False,49.672651042001235,830432,001,2024-07-03_12h47.24.910,5-all in one,2024.1.4,None,2024-07-03 12h47.30.149188 +0900,
Images/Speaker1.jpg,Images/Speaker2.jpg,Images/Speaker3.jpg,Images/Speaker4.jpg,Audio/Speaker1_Per/P1-3-Per.wav,Speaker1,گوینده ۱,1,61,141,2,,,,,73.23001124999973,,,,,,,,,,,,,,,,,,,,,,,,,,,,,,,,,,,,,,,,,,,,,49.6882370000003,0.0,False,49.68843800000104,830432,001,2024-07-03_12h47.24.910,5-all in one,2024.1.4,None,2024-07-03 12h47.30.149188 +0900,
Images/Speaker1.jpg,Images/Speaker2.jpg,Images/Speaker3.jpg,Images/Speaker4.jpg,Audio/Speaker1_Per/P1-4-Per.wav,Speaker1,گوینده ۱,1,62,142,3,,,,,73.23001124999973,,,,,,,,,,,,,,,,,,,,,,,,,,,,,,,,,,,,,,,,,,,,,49.70474954200108,0.0,False,49.70494479199988,830432,001,2024-07-03_12h47.24.910,5-all in one,2024.1.4,None,2024-07-03 12h47.30.149188 +0900,
Images/Speaker1.jpg,Images/Speaker2.jpg,Images/Speaker3.jpg,Images/Speaker4.jpg,Audio/Speaker1_Per/P1-19-Per.wav,Speaker1,گوینده ۱,1,63,143,18,,,,,73.23001124999973,,,,,,,,,,,,,,,,,,,,,,,,,,,,,,,,,,,,,,,,,,,,,49.7205981670013,0.0,False,49.72083804199974,830432,001,2024-07-03_12h47.24.910,5-all in one,2024.1.4,None,2024-07-03 12h47.30.149188 +0900,
Images/Speaker1.jpg,Images/Speaker2.jpg,Images/Speaker3.jpg,Images/Speaker4.jpg,Audio/Speaker3_Per/P3-15-Per.wav,Speaker3,گوینده۳,1,64,144,54,,,,,73.23001124999973,,,,,,,,,,,,,,,,,,,,,,,,,,,,,,,,,,,,,,,,,,,,,49.73653041699981,0.0,False,49.736787125000774,830432,001,2024-07-03_12h47.24.910,5-all in one,2024.1.4,None,2024-07-03 12h47.30.149188 +0900,
Images/Speaker1.jpg,Images/Speaker2.jpg,Images/Speaker3.jpg,Images/Speaker4.jpg,Audio/Speaker4_Per/P4-20-Per.wav,Speaker4,گوینده۴,1,65,145,79,,,,,73.23001124999973,,,,,,,,,,,,,,,,,,,,,,,,,,,,,,,,,,,,,,,,,,,,,49.75258708399997,0.0,False,49.75277625000126,830432,001,2024-07-03_12h47.24.910,5-all in one,2024.1.4,None,2024-07-03 12h47.30.149188 +0900,
Images/Speaker1.jpg,Images/Speaker2.jpg,Images/Speaker3.jpg,Images/Speaker4.jpg,Audio/Speaker2_Per/P2-1-Per.wav,Speaker2,گوینده۲,1,66,146,20,,,,,73.23001124999973,,,,,,,,,,,,,,,,,,,,,,,,,,,,,,,,,,,,,,,,,,,,,49.76906791700094,0.0,False,49.76926779200039,830432,001,2024-07-03_12h47.24.910,5-all in one,2024.1.4,None,2024-07-03 12h47.30.149188 +0900,
Images/Speaker1.jpg,Images/Speaker2.jpg,Images/Speaker3.jpg,Images/Speaker4.jpg,Audio/Speaker2_Per/P2-18-Per.wav,Speaker2,گوینده۲,1,67,147,37,,,,,73.23001124999973,,,,,,,,,,,,,,,,,,,,,,,,,,,,,,,,,,,,,,,,,,,,,49.7848434589996,0.0,False,49.785028334001254,830432,001,2024-07-03_12h47.24.910,5-all in one,2024.1.4,None,2024-07-03 12h47.30.149188 +0900,
Images/Speaker1.jpg,Images/Speaker2.jpg,Images/Speaker3.jpg,Images/Speaker4.jpg,Audio/Speaker3_Per/P3-10-Per.wav,Speaker3,گوینده۳,1,68,148,49,,,,,73.23001124999973,,,,,,,,,,,,,,,,,,,,,,,,,,,,,,,,,,,,,,,,,,,,,49.80078354200123,0.0,False,49.800973334000446,830432,001,2024-07-03_12h47.24.910,5-all in one,2024.1.4,None,2024-07-03 12h47.30.149188 +0900,
Images/Speaker1.jpg,Images/Speaker2.jpg,Images/Speaker3.jpg,Images/Speaker4.jpg,Audio/Speaker4_Per/P4-3-Per.wav,Speaker4,گوینده۴,1,69,149,62,,,,,73.23001124999973,,,,,,,,,,,,,,,,,,,,,,,,,,,,,,,,,,,,,,,,,,,,,49.816490334000264,0.0,False,49.816643416999796,830432,001,2024-07-03_12h47.24.910,5-all in one,2024.1.4,None,2024-07-03 12h47.30.149188 +0900,
Images/Speaker1.jpg,Images/Speaker2.jpg,Images/Speaker3.jpg,Images/Speaker4.jpg,Audio/Speaker2_Per/P2-7-Per.wav,Speaker2,گوینده۲,1,70,150,26,,,,,73.23001124999973,,,,,,,,,,,,,,,,,,,,,,,,,,,,,,,,,,,,,,,,,,,,,49.832804042000134,0.0,False,49.83303145900027,830432,001,2024-07-03_12h47.24.910,5-all in one,2024.1.4,None,2024-07-03 12h47.30.149188 +0900,
Images/Speaker1.jpg,Images/Speaker2.jpg,Images/Speaker3.jpg,Images/Speaker4.jpg,Audio/Speaker4_Per/P4-12-Per.wav,Speaker4,گوینده۴,1,71,151,71,,,,,73.23001124999973,,,,,,,,,,,,,,,,,,,,,,,,,,,,,,,,,,,,,,,,,,,,,49.848851333999846,0.0,False,49.849018959001114,830432,001,2024-07-03_12h47.24.910,5-all in one,2024.1.4,None,2024-07-03 12h47.30.149188 +0900,
Images/Speaker1.jpg,Images/Speaker2.jpg,Images/Speaker3.jpg,Images/Speaker4.jpg,Audio/Speaker4_Per/P4-7-Per.wav,Speaker4,گوینده۴,1,72,152,66,,,,,73.23001124999973,,,,,,,,,,,,,,,,,,,,,,,,,,,,,,,,,,,,,,,,,,,,,49.864547334000235,0.0,False,49.864735541999835,830432,001,2024-07-03_12h47.24.910,5-all in one,2024.1.4,None,2024-07-03 12h47.30.149188 +0900,
Images/Speaker1.jpg,Images/Speaker2.jpg,Images/Speaker3.jpg,Images/Speaker4.jpg,Audio/Speaker2_Per/P2-13-Per.wav,Speaker2,گوینده۲,1,73,153,32,,,,,73.23001124999973,,,,,,,,,,,,,,,,,,,,,,,,,,,,,,,,,,,,,,,,,,,,,49.880716584000766,0.0,False,49.880896459000724,830432,001,2024-07-03_12h47.24.910,5-all in one,2024.1.4,None,2024-07-03 12h47.30.149188 +0900,
Images/Speaker1.jpg,Images/Speaker2.jpg,Images/Speaker3.jpg,Images/Speaker4.jpg,Audio/Speaker3_Per/P3-11-Per.wav,Speaker3,گوینده۳,1,74,154,50,,,,,73.23001124999973,,,,,,,,,,,,,,,,,,,,,,,,,,,,,,,,,,,,,,,,,,,,,49.89700833400093,0.0,False,49.897202792000826,830432,001,2024-07-03_12h47.24.910,5-all in one,2024.1.4,None,2024-07-03 12h47.30.149188 +0900,
Images/Speaker1.jpg,Images/Speaker2.jpg,Images/Speaker3.jpg,Images/Speaker4.jpg,Audio/Speaker2_Per/P2-9-Per.wav,Speaker2,گوینده۲,1,75,155,28,,,,,73.23001124999973,,,,,,,,,,,,,,,,,,,,,,,,,,,,,,,,,,,,,,,,,,,,,49.91292687500027,0.0,False,49.91311362499982,830432,001,2024-07-03_12h47.24.910,5-all in one,2024.1.4,None,2024-07-03 12h47.30.149188 +0900,
Images/Speaker1.jpg,Images/Speaker2.jpg,Images/Speaker3.jpg,Images/Speaker4.jpg,Audio/Speaker3_Per/P3-4-Per.wav,Speaker3,گوینده۳,1,76,156,43,,,,,73.23001124999973,,,,,,,,,,,,,,,,,,,,,,,,,,,,,,,,,,,,,,,,,,,,,49.92882112500047,0.0,False,49.929003209001166,830432,001,2024-07-03_12h47.24.910,5-all in one,2024.1.4,None,2024-07-03 12h47.30.149188 +0900,
Images/Speaker1.jpg,Images/Speaker2.jpg,Images/Speaker3.jpg,Images/Speaker4.jpg,Audio/Speaker1_Per/P1-18-Per.wav,Speaker1,گوینده ۱,1,77,157,17,,,,,73.23001124999973,,,,,,,,,,,,,,,,,,,,,,,,,,,,,,,,,,,,,,,,,,,,,49.944702333999885,0.0,False,49.94485654200071,830432,001,2024-07-03_12h47.24.910,5-all in one,2024.1.4,None,2024-07-03 12h47.30.149188 +0900,
Images/Speaker1.jpg,Images/Speaker2.jpg,Images/Speaker3.jpg,Images/Speaker4.jpg,Audio/Speaker3_Per/P3-20-Per.wav,Speaker3,گوینده۳,1,78,158,59,,,,,73.23001124999973,,,,,,,,,,,,,,,,,,,,,,,,,,,,,,,,,,,,,,,,,,,,,49.96135875000073,0.0,False,49.96159608400012,830432,001,2024-07-03_12h47.24.910,5-all in one,2024.1.4,None,2024-07-03 12h47.30.149188 +0900,
Images/Speaker1.jpg,Images/Speaker2.jpg,Images/Speaker3.jpg,Images/Speaker4.jpg,Audio/Speaker3_Per/P3-9-Per.wav,Speaker3,گوینده۳,1,79,159,48,,,,,73.23001124999973,,,,,,,,,,,,,,,,,,,,,,,,,,,,,,,,,,,,,,,,,,,,,49.97739166700012,0.0,False,49.97759608399974,830432,001,2024-07-03_12h47.24.910,5-all in one,2024.1.4,None,2024-07-03 12h47.30.149188 +0900,
Images/Speaker1.jpg,Images/Speaker2.jpg,Images/Speaker3.jpg,Images/Speaker4.jpg,Audio/Speaker2_Per/P2-7-Per.wav,Speaker2,گوینده۲,2,0,160,26,,,,,73.23001124999973,,,,,,,,,,,,,,,,,,,,,,,,,,,,,,,,,,,,,,,,,,,,,49.993154666999544,0.0,False,49.993381459000375,830432,001,2024-07-03_12h47.24.910,5-all in one,2024.1.4,None,2024-07-03 12h47.30.149188 +0900,
Images/Speaker1.jpg,Images/Speaker2.jpg,Images/Speaker3.jpg,Images/Speaker4.jpg,Audio/Speaker2_Per/P2-15-Per.wav,Speaker2,گوینده۲,2,1,161,34,,,,,73.23001124999973,,,,,,,,,,,,,,,,,,,,,,,,,,,,,,,,,,,,,,,,,,,,,50.00906849999956,0.0,False,50.00927008399958,830432,001,2024-07-03_12h47.24.910,5-all in one,2024.1.4,None,2024-07-03 12h47.30.149188 +0900,
Images/Speaker1.jpg,Images/Speaker2.jpg,Images/Speaker3.jpg,Images/Speaker4.jpg,Audio/Speaker2_Per/P2-4-Per.wav,Speaker2,گوینده۲,2,2,162,23,,,,,73.23001124999973,,,,,,,,,,,,,,,,,,,,,,,,,,,,,,,,,,,,,,,,,,,,,50.02567262500088,0.0,False,50.025861375001114,830432,001,2024-07-03_12h47.24.910,5-all in one,2024.1.4,None,2024-07-03 12h47.30.149188 +0900,
Images/Speaker1.jpg,Images/Speaker2.jpg,Images/Speaker3.jpg,Images/Speaker4.jpg,Audio/Speaker4_Per/P4-14-Per.wav,Speaker4,گوینده۴,2,3,163,73,,,,,73.23001124999973,,,,,,,,,,,,,,,,,,,,,,,,,,,,,,,,,,,,,,,,,,,,,50.041448459000094,0.0,False,50.041629917001046,830432,001,2024-07-03_12h47.24.910,5-all in one,2024.1.4,None,2024-07-03 12h47.30.149188 +0900,
Images/Speaker1.jpg,Images/Speaker2.jpg,Images/Speaker3.jpg,Images/Speaker4.jpg,Audio/Speaker2_Per/P2-20-Per.wav,Speaker2,گوینده۲,2,4,164,39,,,,,73.23001124999973,,,,,,,,,,,,,,,,,,,,,,,,,,,,,,,,,,,,,,,,,,,,,50.057340000001204,0.0,False,50.05751820899968,830432,001,2024-07-03_12h47.24.910,5-all in one,2024.1.4,None,2024-07-03 12h47.30.149188 +0900,
Images/Speaker1.jpg,Images/Speaker2.jpg,Images/Speaker3.jpg,Images/Speaker4.jpg,Audio/Speaker3_Per/P3-7-Per.wav,Speaker3,گوینده۳,2,5,165,46,,,,,73.23001124999973,,,,,,,,,,,,,,,,,,,,,,,,,,,,,,,,,,,,,,,,,,,,,50.073153792000085,0.0,False,50.07330187499974,830432,001,2024-07-03_12h47.24.910,5-all in one,2024.1.4,None,2024-07-03 12h47.30.149188 +0900,
Images/Speaker1.jpg,Images/Speaker2.jpg,Images/Speaker3.jpg,Images/Speaker4.jpg,Audio/Speaker3_Per/P3-13-Per.wav,Speaker3,گوینده۳,2,6,166,52,,,,,73.23001124999973,,,,,,,,,,,,,,,,,,,,,,,,,,,,,,,,,,,,,,,,,,,,,50.08965995899962,0.0,False,50.089851500000805,830432,001,2024-07-03_12h47.24.910,5-all in one,2024.1.4,None,2024-07-03 12h47.30.149188 +0900,
Images/Speaker1.jpg,Images/Speaker2.jpg,Images/Speaker3.jpg,Images/Speaker4.jpg,Audio/Speaker4_Per/P4-8-Per.wav,Speaker4,گوینده۴,2,7,167,67,,,,,73.23001124999973,,,,,,,,,,,,,,,,,,,,,,,,,,,,,,,,,,,,,,,,,,,,,50.105928375000076,0.0,False,50.106117458999506,830432,001,2024-07-03_12h47.24.910,5-all in one,2024.1.4,None,2024-07-03 12h47.30.149188 +0900,
Images/Speaker1.jpg,Images/Speaker2.jpg,Images/Speaker3.jpg,Images/Speaker4.jpg,Audio/Speaker1_Per/P1-11-Per.wav,Speaker1,گوینده ۱,2,8,168,10,,,,,73.23001124999973,,,,,,,,,,,,,,,,,,,,,,,,,,,,,,,,,,,,,,,,,,,,,50.121695375000854,0.0,False,50.12188937500105,830432,001,2024-07-03_12h47.24.910,5-all in one,2024.1.4,None,2024-07-03 12h47.30.149188 +0900,
Images/Speaker1.jpg,Images/Speaker2.jpg,Images/Speaker3.jpg,Images/Speaker4.jpg,Audio/Speaker2_Per/P2-6-Per.wav,Speaker2,گوینده۲,2,9,169,25,,,,,73.23001124999973,,,,,,,,,,,,,,,,,,,,,,,,,,,,,,,,,,,,,,,,,,,,,50.13742795899998,0.0,False,50.137614708999536,830432,001,2024-07-03_12h47.24.910,5-all in one,2024.1.4,None,2024-07-03 12h47.30.149188 +0900,
Images/Speaker1.jpg,Images/Speaker2.jpg,Images/Speaker3.jpg,Images/Speaker4.jpg,Audio/Speaker2_Per/P2-11-Per.wav,Speaker2,گوینده۲,2,10,170,30,,,,,73.23001124999973,,,,,,,,,,,,,,,,,,,,,,,,,,,,,,,,,,,,,,,,,,,,,50.15397862499958,0.0,False,50.15416758399988,830432,001,2024-07-03_12h47.24.910,5-all in one,2024.1.4,None,2024-07-03 12h47.30.149188 +0900,
Images/Speaker1.jpg,Images/Speaker2.jpg,Images/Speaker3.jpg,Images/Speaker4.jpg,Audio/Speaker3_Per/P3-5-Per.wav,Speaker3,گوینده۳,2,11,171,44,,,,,73.23001124999973,,,,,,,,,,,,,,,,,,,,,,,,,,,,,,,,,,,,,,,,,,,,,50.169754459000615,0.0,False,50.16996620899954,830432,001,2024-07-03_12h47.24.910,5-all in one,2024.1.4,None,2024-07-03 12h47.30.149188 +0900,
Images/Speaker1.jpg,Images/Speaker2.jpg,Images/Speaker3.jpg,Images/Speaker4.jpg,Audio/Speaker1_Per/P1-7-Per.wav,Speaker1,گوینده ۱,2,12,172,6,,,,,73.23001124999973,,,,,,,,,,,,,,,,,,,,,,,,,,,,,,,,,,,,,,,,,,,,,50.18548216700037,0.0,False,50.185664417000226,830432,001,2024-07-03_12h47.24.910,5-all in one,2024.1.4,None,2024-07-03 12h47.30.149188 +0900,
Images/Speaker1.jpg,Images/Speaker2.jpg,Images/Speaker3.jpg,Images/Speaker4.jpg,Audio/Speaker1_Per/P1-9-Per.wav,Speaker1,گوینده ۱,2,13,173,8,,,,,73.23001124999973,,,,,,,,,,,,,,,,,,,,,,,,,,,,,,,,,,,,,,,,,,,,,50.20136562500011,0.0,False,50.201546084001166,830432,001,2024-07-03_12h47.24.910,5-all in one,2024.1.4,None,2024-07-03 12h47.30.149188 +0900,
Images/Speaker1.jpg,Images/Speaker2.jpg,Images/Speaker3.jpg,Images/Speaker4.jpg,Audio/Speaker4_Per/P4-7-Per.wav,Speaker4,گوینده۴,2,14,174,66,,,,,73.23001124999973,,,,,,,,,,,,,,,,,,,,,,,,,,,,,,,,,,,,,,,,,,,,,50.21787083399977,0.0,False,50.21808037499977,830432,001,2024-07-03_12h47.24.910,5-all in one,2024.1.4,None,2024-07-03 12h47.30.149188 +0900,
Images/Speaker1.jpg,Images/Speaker2.jpg,Images/Speaker3.jpg,Images/Speaker4.jpg,Audio/Speaker1_Per/P1-20-Per.wav,Speaker1,گوینده ۱,2,15,175,19,,,,,73.23001124999973,,,,,,,,,,,,,,,,,,,,,,,,,,,,,,,,,,,,,,,,,,,,,50.23380379199989,0.0,False,50.23405500000081,830432,001,2024-07-03_12h47.24.910,5-all in one,2024.1.4,None,2024-07-03 12h47.30.149188 +0900,
Images/Speaker1.jpg,Images/Speaker2.jpg,Images/Speaker3.jpg,Images/Speaker4.jpg,Audio/Speaker4_Per/P4-5-Per.wav,Speaker4,گوینده۴,2,16,176,64,,,,,73.23001124999973,,,,,,,,,,,,,,,,,,,,,,,,,,,,,,,,,,,,,,,,,,,,,50.249650792000466,0.0,False,50.24984283400045,830432,001,2024-07-03_12h47.24.910,5-all in one,2024.1.4,None,2024-07-03 12h47.30.149188 +0900,
Images/Speaker1.jpg,Images/Speaker2.jpg,Images/Speaker3.jpg,Images/Speaker4.jpg,Audio/Speaker2_Per/P2-12-Per.wav,Speaker2,گوینده۲,2,17,177,31,,,,,73.23001124999973,,,,,,,,,,,,,,,,,,,,,,,,,,,,,,,,,,,,,,,,,,,,,50.26569987500079,0.0,False,50.265953709000314,830432,001,2024-07-03_12h47.24.910,5-all in one,2024.1.4,None,2024-07-03 12h47.30.149188 +0900,
Images/Speaker1.jpg,Images/Speaker2.jpg,Images/Speaker3.jpg,Images/Speaker4.jpg,Audio/Speaker3_Per/P3-10-Per.wav,Speaker3,گوینده۳,2,18,178,49,,,,,73.23001124999973,,,,,,,,,,,,,,,,,,,,,,,,,,,,,,,,,,,,,,,,,,,,,50.282106874999954,0.0,False,50.28229525000097,830432,001,2024-07-03_12h47.24.910,5-all in one,2024.1.4,None,2024-07-03 12h47.30.149188 +0900,
Images/Speaker1.jpg,Images/Speaker2.jpg,Images/Speaker3.jpg,Images/Speaker4.jpg,Audio/Speaker2_Per/P2-19-Per.wav,Speaker2,گوینده۲,2,19,179,38,,,,,73.23001124999973,,,,,,,,,,,,,,,,,,,,,,,,,,,,,,,,,,,,,,,,,,,,,50.29785237500073,0.0,False,50.29804116699961,830432,001,2024-07-03_12h47.24.910,5-all in one,2024.1.4,None,2024-07-03 12h47.30.149188 +0900,
Images/Speaker1.jpg,Images/Speaker2.jpg,Images/Speaker3.jpg,Images/Speaker4.jpg,Audio/Speaker3_Per/P3-18-Per.wav,Speaker3,گوینده۳,2,20,180,57,,,,,73.23001124999973,,,,,,,,,,,,,,,,,,,,,,,,,,,,,,,,,,,,,,,,,,,,,50.31396462500015,0.0,False,50.314150917000006,830432,001,2024-07-03_12h47.24.910,5-all in one,2024.1.4,None,2024-07-03 12h47.30.149188 +0900,
Images/Speaker1.jpg,Images/Speaker2.jpg,Images/Speaker3.jpg,Images/Speaker4.jpg,Audio/Speaker1_Per/P1-10-Per.wav,Speaker1,گوینده ۱,2,21,181,9,,,,,73.23001124999973,,,,,,,,,,,,,,,,,,,,,,,,,,,,,,,,,,,,,,,,,,,,,50.32984241700069,0.0,False,50.33006291700076,830432,001,2024-07-03_12h47.24.910,5-all in one,2024.1.4,None,2024-07-03 12h47.30.149188 +0900,
Images/Speaker1.jpg,Images/Speaker2.jpg,Images/Speaker3.jpg,Images/Speaker4.jpg,Audio/Speaker1_Per/P1-6-Per.wav,Speaker1,گوینده ۱,2,22,182,5,,,,,73.23001124999973,,,,,,,,,,,,,,,,,,,,,,,,,,,,,,,,,,,,,,,,,,,,,50.3465314590012,0.0,False,50.34669054200094,830432,001,2024-07-03_12h47.24.910,5-all in one,2024.1.4,None,2024-07-03 12h47.30.149188 +0900,
Images/Speaker1.jpg,Images/Speaker2.jpg,Images/Speaker3.jpg,Images/Speaker4.jpg,Audio/Speaker4_Per/P4-17-Per.wav,Speaker4,گوینده۴,2,23,183,76,,,,,73.23001124999973,,,,,,,,,,,,,,,,,,,,,,,,,,,,,,,,,,,,,,,,,,,,,50.362384042000485,0.0,False,50.362571542000296,830432,001,2024-07-03_12h47.24.910,5-all in one,2024.1.4,None,2024-07-03 12h47.30.149188 +0900,
Images/Speaker1.jpg,Images/Speaker2.jpg,Images/Speaker3.jpg,Images/Speaker4.jpg,Audio/Speaker2_Per/P2-17-Per.wav,Speaker2,گوینده۲,2,24,184,36,,,,,73.23001124999973,,,,,,,,,,,,,,,,,,,,,,,,,,,,,,,,,,,,,,,,,,,,,50.37831408400052,0.0,False,50.3784826250012,830432,001,2024-07-03_12h47.24.910,5-all in one,2024.1.4,None,2024-07-03 12h47.30.149188 +0900,
Images/Speaker1.jpg,Images/Speaker2.jpg,Images/Speaker3.jpg,Images/Speaker4.jpg,Audio/Speaker4_Per/P4-1-Per.wav,Speaker4,گوینده۴,2,25,185,60,,,,,73.23001124999973,,,,,,,,,,,,,,,,,,,,,,,,,,,,,,,,,,,,,,,,,,,,,50.39465133399972,0.0,False,50.39483575000122,830432,001,2024-07-03_12h47.24.910,5-all in one,2024.1.4,None,2024-07-03 12h47.30.149188 +0900,
Images/Speaker1.jpg,Images/Speaker2.jpg,Images/Speaker3.jpg,Images/Speaker4.jpg,Audio/Speaker3_Per/P3-16-Per.wav,Speaker3,گوینده۳,2,26,186,55,,,,,73.23001124999973,,,,,,,,,,,,,,,,,,,,,,,,,,,,,,,,,,,,,,,,,,,,,50.411002791999636,0.0,False,50.411165875000734,830432,001,2024-07-03_12h47.24.910,5-all in one,2024.1.4,None,2024-07-03 12h47.30.149188 +0900,
Images/Speaker1.jpg,Images/Speaker2.jpg,Images/Speaker3.jpg,Images/Speaker4.jpg,Audio/Speaker1_Per/P1-13-Per.wav,Speaker1,گوینده ۱,2,27,187,12,,,,,73.23001124999973,,,,,,,,,,,,,,,,,,,,,,,,,,,,,,,,,,,,,,,,,,,,,50.426764334000836,0.0,False,50.42697808400044,830432,001,2024-07-03_12h47.24.910,5-all in one,2024.1.4,None,2024-07-03 12h47.30.149188 +0900,
Images/Speaker1.jpg,Images/Speaker2.jpg,Images/Speaker3.jpg,Images/Speaker4.jpg,Audio/Speaker1_Per/P1-3-Per.wav,Speaker1,گوینده ۱,2,28,188,2,,,,,73.23001124999973,,,,,,,,,,,,,,,,,,,,,,,,,,,,,,,,,,,,,,,,,,,,,50.44265595900106,0.0,False,50.44286637500045,830432,001,2024-07-03_12h47.24.910,5-all in one,2024.1.4,None,2024-07-03 12h47.30.149188 +0900,
Images/Speaker1.jpg,Images/Speaker2.jpg,Images/Speaker3.jpg,Images/Speaker4.jpg,Audio/Speaker3_Per/P3-19-Per.wav,Speaker3,گوینده۳,2,29,189,58,,,,,73.23001124999973,,,,,,,,,,,,,,,,,,,,,,,,,,,,,,,,,,,,,,,,,,,,,50.45854583400069,0.0,False,50.458751042000586,830432,001,2024-07-03_12h47.24.910,5-all in one,2024.1.4,None,2024-07-03 12h47.30.149188 +0900,
Images/Speaker1.jpg,Images/Speaker2.jpg,Images/Speaker3.jpg,Images/Speaker4.jpg,Audio/Speaker2_Per/P2-16-Per.wav,Speaker2,گوینده۲,2,30,190,35,,,,,73.23001124999973,,,,,,,,,,,,,,,,,,,,,,,,,,,,,,,,,,,,,,,,,,,,,50.47510020899972,0.0,False,50.47529075000057,830432,001,2024-07-03_12h47.24.910,5-all in one,2024.1.4,None,2024-07-03 12h47.30.149188 +0900,
Images/Speaker1.jpg,Images/Speaker2.jpg,Images/Speaker3.jpg,Images/Speaker4.jpg,Audio/Speaker2_Per/P2-13-Per.wav,Speaker2,گوینده۲,2,31,191,32,,,,,73.23001124999973,,,,,,,,,,,,,,,,,,,,,,,,,,,,,,,,,,,,,,,,,,,,,50.490951959000085,0.0,False,50.49114004200055,830432,001,2024-07-03_12h47.24.910,5-all in one,2024.1.4,None,2024-07-03 12h47.30.149188 +0900,
Images/Speaker1.jpg,Images/Speaker2.jpg,Images/Speaker3.jpg,Images/Speaker4.jpg,Audio/Speaker1_Per/P1-1-Per.wav,Speaker1,گوینده ۱,2,32,192,0,,,,,73.23001124999973,,,,,,,,,,,,,,,,,,,,,,,,,,,,,,,,,,,,,,,,,,,,,50.50702108400037,0.0,False,50.50721566700122,830432,001,2024-07-03_12h47.24.910,5-all in one,2024.1.4,None,2024-07-03 12h47.30.149188 +0900,
Images/Speaker1.jpg,Images/Speaker2.jpg,Images/Speaker3.jpg,Images/Speaker4.jpg,Audio/Speaker1_Per/P1-16-Per.wav,Speaker1,گوینده ۱,2,33,193,15,,,,,73.23001124999973,,,,,,,,,,,,,,,,,,,,,,,,,,,,,,,,,,,,,,,,,,,,,50.52313779200085,0.0,False,50.52334854200126,830432,001,2024-07-03_12h47.24.910,5-all in one,2024.1.4,None,2024-07-03 12h47.30.149188 +0900,
Images/Speaker1.jpg,Images/Speaker2.jpg,Images/Speaker3.jpg,Images/Speaker4.jpg,Audio/Speaker4_Per/P4-16-Per.wav,Speaker4,گوینده۴,2,34,194,75,,,,,73.23001124999973,,,,,,,,,,,,,,,,,,,,,,,,,,,,,,,,,,,,,,,,,,,,,50.53981416700117,0.0,False,50.540002834000916,830432,001,2024-07-03_12h47.24.910,5-all in one,2024.1.4,None,2024-07-03 12h47.30.149188 +0900,
Images/Speaker1.jpg,Images/Speaker2.jpg,Images/Speaker3.jpg,Images/Speaker4.jpg,Audio/Speaker2_Per/P2-3-Per.wav,Speaker2,گوینده۲,2,35,195,22,,,,,73.23001124999973,,,,,,,,,,,,,,,,,,,,,,,,,,,,,,,,,,,,,,,,,,,,,50.55582066700117,0.0,False,50.556020375001026,830432,001,2024-07-03_12h47.24.910,5-all in one,2024.1.4,None,2024-07-03 12h47.30.149188 +0900,
Images/Speaker1.jpg,Images/Speaker2.jpg,Images/Speaker3.jpg,Images/Speaker4.jpg,Audio/Speaker4_Per/P4-6-Per.wav,Speaker4,گوینده۴,2,36,196,65,,,,,73.23001124999973,,,,,,,,,,,,,,,,,,,,,,,,,,,,,,,,,,,,,,,,,,,,,50.5717322090004,0.0,False,50.57191941699966,830432,001,2024-07-03_12h47.24.910,5-all in one,2024.1.4,None,2024-07-03 12h47.30.149188 +0900,
Images/Speaker1.jpg,Images/Speaker2.jpg,Images/Speaker3.jpg,Images/Speaker4.jpg,Audio/Speaker3_Per/P3-3-Per.wav,Speaker3,گوینده۳,2,37,197,42,,,,,73.23001124999973,,,,,,,,,,,,,,,,,,,,,,,,,,,,,,,,,,,,,,,,,,,,,50.58775170900117,0.0,False,50.58794120899984,830432,001,2024-07-03_12h47.24.910,5-all in one,2024.1.4,None,2024-07-03 12h47.30.149188 +0900,
Images/Speaker1.jpg,Images/Speaker2.jpg,Images/Speaker3.jpg,Images/Speaker4.jpg,Audio/Speaker4_Per/P4-11-Per.wav,Speaker4,گوینده۴,2,38,198,70,,,,,73.23001124999973,,,,,,,,,,,,,,,,,,,,,,,,,,,,,,,,,,,,,,,,,,,,,50.60420300000078,0.0,False,50.604399042000296,830432,001,2024-07-03_12h47.24.910,5-all in one,2024.1.4,None,2024-07-03 12h47.30.149188 +0900,
Images/Speaker1.jpg,Images/Speaker2.jpg,Images/Speaker3.jpg,Images/Speaker4.jpg,Audio/Speaker3_Per/P3-9-Per.wav,Speaker3,گوینده۳,2,39,199,48,,,,,73.23001124999973,,,,,,,,,,,,,,,,,,,,,,,,,,,,,,,,,,,,,,,,,,,,,50.62013512500016,0.0,False,50.62032474999978,830432,001,2024-07-03_12h47.24.910,5-all in one,2024.1.4,None,2024-07-03 12h47.30.149188 +0900,
Images/Speaker1.jpg,Images/Speaker2.jpg,Images/Speaker3.jpg,Images/Speaker4.jpg,Audio/Speaker1_Per/P1-12-Per.wav,Speaker1,گوینده ۱,2,40,200,11,,,,,73.23001124999973,,,,,,,,,,,,,,,,,,,,,,,,,,,,,,,,,,,,,,,,,,,,,50.635987167001076,0.0,False,50.63617004200023,830432,001,2024-07-03_12h47.24.910,5-all in one,2024.1.4,None,2024-07-03 12h47.30.149188 +0900,
Images/Speaker1.jpg,Images/Speaker2.jpg,Images/Speaker3.jpg,Images/Speaker4.jpg,Audio/Speaker4_Per/P4-2-Per.wav,Speaker4,گوینده۴,2,41,201,61,,,,,73.23001124999973,,,,,,,,,,,,,,,,,,,,,,,,,,,,,,,,,,,,,,,,,,,,,50.65204016700045,0.0,False,50.652242792000834,830432,001,2024-07-03_12h47.24.910,5-all in one,2024.1.4,None,2024-07-03 12h47.30.149188 +0900,
Images/Speaker1.jpg,Images/Speaker2.jpg,Images/Speaker3.jpg,Images/Speaker4.jpg,Audio/Speaker1_Per/P1-4-Per.wav,Speaker1,گوینده ۱,2,42,202,13,,,,,73.23001124999973,,,,,,,,,,,,,,,,,,,,,,,,,,,,,,,,,,,,,,,,,,,,,50.66848000000027,0.0,False,50.66867275000004,830432,001,2024-07-03_12h47.24.910,5-all in one,2024.1.4,None,2024-07-03 12h47.30.149188 +0900,
Images/Speaker1.jpg,Images/Speaker2.jpg,Images/Speaker3.jpg,Images/Speaker4.jpg,Audio/Speaker1_Per/P1-17-Per.wav,Speaker1,گوینده ۱,2,43,203,16,,,,,73.23001124999973,,,,,,,,,,,,,,,,,,,,,,,,,,,,,,,,,,,,,,,,,,,,,50.68431299999975,0.0,False,50.684484667001016,830432,001,2024-07-03_12h47.24.910,5-all in one,2024.1.4,None,2024-07-03 12h47.30.149188 +0900,
Images/Speaker1.jpg,Images/Speaker2.jpg,Images/Speaker3.jpg,Images/Speaker4.jpg,Audio/Speaker2_Per/P2-9-Per.wav,Speaker2,گوینده۲,2,44,204,28,,,,,73.23001124999973,,,,,,,,,,,,,,,,,,,,,,,,,,,,,,,,,,,,,,,,,,,,,50.700254625000525,0.0,False,50.70042895900042,830432,001,2024-07-03_12h47.24.910,5-all in one,2024.1.4,None,2024-07-03 12h47.30.149188 +0900,
Images/Speaker1.jpg,Images/Speaker2.jpg,Images/Speaker3.jpg,Images/Speaker4.jpg,Audio/Speaker1_Per/P1-4-Per.wav,Speaker1,گوینده ۱,2,45,205,3,,,,,73.23001124999973,,,,,,,,,,,,,,,,,,,,,,,,,,,,,,,,,,,,,,,,,,,,,50.71599491699999,0.0,False,50.71623862500019,830432,001,2024-07-03_12h47.24.910,5-all in one,2024.1.4,None,2024-07-03 12h47.30.149188 +0900,
Images/Speaker1.jpg,Images/Speaker2.jpg,Images/Speaker3.jpg,Images/Speaker4.jpg,Audio/Speaker4_Per/P4-15-Per.wav,Speaker4,گوینده۴,2,46,206,74,,,,,73.23001124999973,,,,,,,,,,,,,,,,,,,,,,,,,,,,,,,,,,,,,,,,,,,,,50.732557749999614,0.0,False,50.7327705000007,830432,001,2024-07-03_12h47.24.910,5-all in one,2024.1.4,None,2024-07-03 12h47.30.149188 +0900,
Images/Speaker1.jpg,Images/Speaker2.jpg,Images/Speaker3.jpg,Images/Speaker4.jpg,Audio/Speaker4_Per/P4-18-Per.wav,Speaker4,گوینده۴,2,47,207,77,,,,,73.23001124999973,,,,,,,,,,,,,,,,,,,,,,,,,,,,,,,,,,,,,,,,,,,,,50.74843200000032,0.0,False,50.74861804200009,830432,001,2024-07-03_12h47.24.910,5-all in one,2024.1.4,None,2024-07-03 12h47.30.149188 +0900,
Images/Speaker1.jpg,Images/Speaker2.jpg,Images/Speaker3.jpg,Images/Speaker4.jpg,Audio/Speaker4_Per/P4-19-Per.wav,Speaker4,گوینده۴,2,48,208,78,,,,,73.23001124999973,,,,,,,,,,,,,,,,,,,,,,,,,,,,,,,,,,,,,,,,,,,,,50.76431758400031,0.0,False,50.76448554200033,830432,001,2024-07-03_12h47.24.910,5-all in one,2024.1.4,None,2024-07-03 12h47.30.149188 +0900,
Images/Speaker1.jpg,Images/Speaker2.jpg,Images/Speaker3.jpg,Images/Speaker4.jpg,Audio/Speaker2_Per/P2-14-Per.wav,Speaker2,گوینده۲,2,49,209,33,,,,,73.23001124999973,,,,,,,,,,,,,,,,,,,,,,,,,,,,,,,,,,,,,,,,,,,,,50.78025887500007,0.0,False,50.780478500000754,830432,001,2024-07-03_12h47.24.910,5-all in one,2024.1.4,None,2024-07-03 12h47.30.149188 +0900,
Images/Speaker1.jpg,Images/Speaker2.jpg,Images/Speaker3.jpg,Images/Speaker4.jpg,Audio/Speaker3_Per/P3-1-Per.wav,Speaker3,گوینده۳,2,50,210,40,,,,,73.23001124999973,,,,,,,,,,,,,,,,,,,,,,,,,,,,,,,,,,,,,,,,,,,,,50.79670837500089,0.0,False,50.79691887500121,830432,001,2024-07-03_12h47.24.910,5-all in one,2024.1.4,None,2024-07-03 12h47.30.149188 +0900,
Images/Speaker1.jpg,Images/Speaker2.jpg,Images/Speaker3.jpg,Images/Speaker4.jpg,Audio/Speaker3_Per/P3-4-Per.wav,Speaker3,گوینده۳,2,51,211,43,,,,,73.23001124999973,,,,,,,,,,,,,,,,,,,,,,,,,,,,,,,,,,,,,,,,,,,,,50.81244591700124,0.0,False,50.812608917000034,830432,001,2024-07-03_12h47.24.910,5-all in one,2024.1.4,None,2024-07-03 12h47.30.149188 +0900,
Images/Speaker1.jpg,Images/Speaker2.jpg,Images/Speaker3.jpg,Images/Speaker4.jpg,Audio/Speaker4_Per/P4-20-Per.wav,Speaker4,گوینده۴,2,52,212,79,,,,,73.23001124999973,,,,,,,,,,,,,,,,,,,,,,,,,,,,,,,,,,,,,,,,,,,,,50.82833304199994,0.0,False,50.82851537500028,830432,001,2024-07-03_12h47.24.910,5-all in one,2024.1.4,None,2024-07-03 12h47.30.149188 +0900,
Images/Speaker1.jpg,Images/Speaker2.jpg,Images/Speaker3.jpg,Images/Speaker4.jpg,Audio/Speaker2_Per/P2-5-Per.wav,Speaker2,گوینده۲,2,53,213,24,,,,,73.23001124999973,,,,,,,,,,,,,,,,,,,,,,,,,,,,,,,,,,,,,,,,,,,,,50.844141249999666,0.0,False,50.84432066699992,830432,001,2024-07-03_12h47.24.910,5-all in one,2024.1.4,None,2024-07-03 12h47.30.149188 +0900,
Images/Speaker1.jpg,Images/Speaker2.jpg,Images/Speaker3.jpg,Images/Speaker4.jpg,Audio/Speaker3_Per/P3-2-Per.wav,Speaker3,گوینده۳,2,54,214,41,,,,,73.23001124999973,,,,,,,,,,,,,,,,,,,,,,,,,,,,,,,,,,,,,,,,,,,,,50.86052962500071,0.0,False,50.86072241700094,830432,001,2024-07-03_12h47.24.910,5-all in one,2024.1.4,None,2024-07-03 12h47.30.149188 +0900,
Images/Speaker1.jpg,Images/Speaker2.jpg,Images/Speaker3.jpg,Images/Speaker4.jpg,Audio/Speaker3_Per/P3-17-Per.wav,Speaker3,گوینده۳,2,55,215,56,,,,,73.23001124999973,,,,,,,,,,,,,,,,,,,,,,,,,,,,,,,,,,,,,,,,,,,,,50.87638175000029,0.0,False,50.87655837500097,830432,001,2024-07-03_12h47.24.910,5-all in one,2024.1.4,None,2024-07-03 12h47.30.149188 +0900,
Images/Speaker1.jpg,Images/Speaker2.jpg,Images/Speaker3.jpg,Images/Speaker4.jpg,Audio/Speaker1_Per/P1-8-Per.wav,Speaker1,گوینده ۱,2,56,216,7,,,,,73.23001124999973,,,,,,,,,,,,,,,,,,,,,,,,,,,,,,,,,,,,,,,,,,,,,50.892192749999595,0.0,False,50.89239529199949,830432,001,2024-07-03_12h47.24.910,5-all in one,2024.1.4,None,2024-07-03 12h47.30.149188 +0900,
Images/Speaker1.jpg,Images/Speaker2.jpg,Images/Speaker3.jpg,Images/Speaker4.jpg,Audio/Speaker2_Per/P2-1-Per.wav,Speaker2,گوینده۲,2,57,217,20,,,,,73.23001124999973,,,,,,,,,,,,,,,,,,,,,,,,,,,,,,,,,,,,,,,,,,,,,50.90803845899973,0.0,False,50.90821454199977,830432,001,2024-07-03_12h47.24.910,5-all in one,2024.1.4,None,2024-07-03 12h47.30.149188 +0900,
Images/Speaker1.jpg,Images/Speaker2.jpg,Images/Speaker3.jpg,Images/Speaker4.jpg,Audio/Speaker3_Per/P3-6-Per.wav,Speaker3,گوینده۳,2,58,218,45,,,,,73.23001124999973,,,,,,,,,,,,,,,,,,,,,,,,,,,,,,,,,,,,,,,,,,,,,50.92469070900006,0.0,False,50.92487220899966,830432,001,2024-07-03_12h47.24.910,5-all in one,2024.1.4,None,2024-07-03 12h47.30.149188 +0900,
Images/Speaker1.jpg,Images/Speaker2.jpg,Images/Speaker3.jpg,Images/Speaker4.jpg,Audio/Speaker1_Per/P1-18-Per.wav,Speaker1,گوینده ۱,2,59,219,17,,,,,73.23001124999973,,,,,,,,,,,,,,,,,,,,,,,,,,,,,,,,,,,,,,,,,,,,,50.94082066699957,0.0,False,50.94105616700108,830432,001,2024-07-03_12h47.24.910,5-all in one,2024.1.4,None,2024-07-03 12h47.30.149188 +0900,
Images/Speaker1.jpg,Images/Speaker2.jpg,Images/Speaker3.jpg,Images/Speaker4.jpg,Audio/Speaker3_Per/P3-8-Per.wav,Speaker3,گوینده۳,2,60,220,47,,,,,73.23001124999973,,,,,,,,,,,,,,,,,,,,,,,,,,,,,,,,,,,,,,,,,,,,,50.95682133400078,0.0,False,50.95705995900062,830432,001,2024-07-03_12h47.24.910,5-all in one,2024.1.4,None,2024-07-03 12h47.30.149188 +0900,
Images/Speaker1.jpg,Images/Speaker2.jpg,Images/Speaker3.jpg,Images/Speaker4.jpg,Audio/Speaker1_Per/P1-19-Per.wav,Speaker1,گوینده ۱,2,61,221,18,,,,,73.23001124999973,,,,,,,,,,,,,,,,,,,,,,,,,,,,,,,,,,,,,,,,,,,,,50.97285891700085,0.0,False,50.97306949999984,830432,001,2024-07-03_12h47.24.910,5-all in one,2024.1.4,None,2024-07-03 12h47.30.149188 +0900,
Images/Speaker1.jpg,Images/Speaker2.jpg,Images/Speaker3.jpg,Images/Speaker4.jpg,Audio/Speaker3_Per/P3-11-Per.wav,Speaker3,گوینده۳,2,62,222,50,,,,,73.23001124999973,,,,,,,,,,,,,,,,,,,,,,,,,,,,,,,,,,,,,,,,,,,,,50.98934583400114,0.0,False,50.98954000000049,830432,001,2024-07-03_12h47.24.910,5-all in one,2024.1.4,None,2024-07-03 12h47.30.149188 +0900,
Images/Speaker1.jpg,Images/Speaker2.jpg,Images/Speaker3.jpg,Images/Speaker4.jpg,Audio/Speaker3_Per/P3-14-Per.wav,Speaker3,گوینده۳,2,63,223,53,,,,,73.23001124999973,,,,,,,,,,,,,,,,,,,,,,,,,,,,,,,,,,,,,,,,,,,,,51.005144500000824,0.0,False,51.00531950000004,830432,001,2024-07-03_12h47.24.910,5-all in one,2024.1.4,None,2024-07-03 12h47.30.149188 +0900,
Images/Speaker1.jpg,Images/Speaker2.jpg,Images/Speaker3.jpg,Images/Speaker4.jpg,Audio/Speaker4_Per/P4-4-Per.wav,Speaker4,گوینده۴,2,64,224,63,,,,,73.23001124999973,,,,,,,,,,,,,,,,,,,,,,,,,,,,,,,,,,,,,,,,,,,,,51.02111604200036,0.0,False,51.0213091250007,830432,001,2024-07-03_12h47.24.910,5-all in one,2024.1.4,None,2024-07-03 12h47.30.149188 +0900,
Images/Speaker1.jpg,Images/Speaker2.jpg,Images/Speaker3.jpg,Images/Speaker4.jpg,Audio/Speaker4_Per/P4-9-Per.wav,Speaker4,گوینده۴,2,65,225,68,,,,,73.23001124999973,,,,,,,,,,,,,,,,,,,,,,,,,,,,,,,,,,,,,,,,,,,,,51.037080042000525,0.0,False,51.03723666699989,830432,001,2024-07-03_12h47.24.910,5-all in one,2024.1.4,None,2024-07-03 12h47.30.149188 +0900,
Images/Speaker1.jpg,Images/Speaker2.jpg,Images/Speaker3.jpg,Images/Speaker4.jpg,Audio/Speaker4_Per/P4-3-Per.wav,Speaker4,گوینده۴,2,66,226,62,,,,,73.23001124999973,,,,,,,,,,,,,,,,,,,,,,,,,,,,,,,,,,,,,,,,,,,,,51.05347212500055,0.0,False,51.0536192920008,830432,001,2024-07-03_12h47.24.910,5-all in one,2024.1.4,None,2024-07-03 12h47.30.149188 +0900,
Images/Speaker1.jpg,Images/Speaker2.jpg,Images/Speaker3.jpg,Images/Speaker4.jpg,Audio/Speaker1_Per/P1-15-Per.wav,Speaker1,گوینده ۱,2,67,227,14,,,,,73.23001124999973,,,,,,,,,,,,,,,,,,,,,,,,,,,,,,,,,,,,,,,,,,,,,51.06951295900035,0.0,False,51.06971879199955,830432,001,2024-07-03_12h47.24.910,5-all in one,2024.1.4,None,2024-07-03 12h47.30.149188 +0900,
Images/Speaker1.jpg,Images/Speaker2.jpg,Images/Speaker3.jpg,Images/Speaker4.jpg,Audio/Speaker4_Per/P4-13-Per.wav,Speaker4,گوینده۴,2,68,228,72,,,,,73.23001124999973,,,,,,,,,,,,,,,,,,,,,,,,,,,,,,,,,,,,,,,,,,,,,51.08532504200048,0.0,False,51.08552666700052,830432,001,2024-07-03_12h47.24.910,5-all in one,2024.1.4,None,2024-07-03 12h47.30.149188 +0900,
Images/Speaker1.jpg,Images/Speaker2.jpg,Images/Speaker3.jpg,Images/Speaker4.jpg,Audio/Speaker1_Per/P1-2-Per.wav,Speaker1,گوینده ۱,2,69,229,1,,,,,73.23001124999973,,,,,,,,,,,,,,,,,,,,,,,,,,,,,,,,,,,,,,,,,,,,,51.10123954200026,0.0,False,51.101424667000174,830432,001,2024-07-03_12h47.24.910,5-all in one,2024.1.4,None,2024-07-03 12h47.30.149188 +0900,
Images/Speaker1.jpg,Images/Speaker2.jpg,Images/Speaker3.jpg,Images/Speaker4.jpg,Audio/Speaker2_Per/P2-8-Per.wav,Speaker2,گوینده۲,2,70,230,27,,,,,73.23001124999973,,,,,,,,,,,,,,,,,,,,,,,,,,,,,,,,,,,,,,,,,,,,,51.117969750001066,0.0,False,51.11815270900115,830432,001,2024-07-03_12h47.24.910,5-all in one,2024.1.4,None,2024-07-03 12h47.30.149188 +0900,
Images/Speaker1.jpg,Images/Speaker2.jpg,Images/Speaker3.jpg,Images/Speaker4.jpg,Audio/Speaker2_Per/P2-10-Per.wav,Speaker2,گوینده۲,2,71,231,29,,,,,73.23001124999973,,,,,,,,,,,,,,,,,,,,,,,,,,,,,,,,,,,,,,,,,,,,,51.133834500000376,0.0,False,51.134022000000186,830432,001,2024-07-03_12h47.24.910,5-all in one,2024.1.4,None,2024-07-03 12h47.30.149188 +0900,
Images/Speaker1.jpg,Images/Speaker2.jpg,Images/Speaker3.jpg,Images/Speaker4.jpg,Audio/Speaker1_Per/P1-5-Per.wav,Speaker1,گوینده ۱,2,72,232,4,,,,,73.23001124999973,,,,,,,,,,,,,,,,,,,,,,,,,,,,,,,,,,,,,,,,,,,,,51.14969029200074,0.0,False,51.1498417920011,830432,001,2024-07-03_12h47.24.910,5-all in one,2024.1.4,None,2024-07-03 12h47.30.149188 +0900,
Images/Speaker1.jpg,Images/Speaker2.jpg,Images/Speaker3.jpg,Images/Speaker4.jpg,Audio/Speaker4_Per/P4-10-Per.wav,Speaker4,گوینده۴,2,73,233,69,,,,,73.23001124999973,,,,,,,,,,,,,,,,,,,,,,,,,,,,,,,,,,,,,,,,,,,,,51.16557674999967,0.0,False,51.16576329199961,830432,001,2024-07-03_12h47.24.910,5-all in one,2024.1.4,None,2024-07-03 12h47.30.149188 +0900,
Images/Speaker1.jpg,Images/Speaker2.jpg,Images/Speaker3.jpg,Images/Speaker4.jpg,Audio/Speaker2_Per/P2-18-Per.wav,Speaker2,گوینده۲,2,74,234,37,,,,,73.23001124999973,,,,,,,,,,,,,,,,,,,,,,,,,,,,,,,,,,,,,,,,,,,,,51.18220137500066,0.0,False,51.182389625000724,830432,001,2024-07-03_12h47.24.910,5-all in one,2024.1.4,None,2024-07-03 12h47.30.149188 +0900,
Images/Speaker1.jpg,Images/Speaker2.jpg,Images/Speaker3.jpg,Images/Speaker4.jpg,Audio/Speaker2_Per/P2-2-Per.wav,Speaker2,گوینده۲,2,75,235,21,,,,,73.23001124999973,,,,,,,,,,,,,,,,,,,,,,,,,,,,,,,,,,,,,,,,,,,,,51.198107625001285,0.0,False,51.19828462500118,830432,001,2024-07-03_12h47.24.910,5-all in one,2024.1.4,None,2024-07-03 12h47.30.149188 +0900,
Images/Speaker1.jpg,Images/Speaker2.jpg,Images/Speaker3.jpg,Images/Speaker4.jpg,Audio/Speaker3_Per/P3-15-Per.wav,Speaker3,گوینده۳,2,76,236,54,,,,,73.23001124999973,,,,,,,,,,,,,,,,,,,,,,,,,,,,,,,,,,,,,,,,,,,,,51.214047417000984,0.0,False,51.21427541699995,830432,001,2024-07-03_12h47.24.910,5-all in one,2024.1.4,None,2024-07-03 12h47.30.149188 +0900,
Images/Speaker1.jpg,Images/Speaker2.jpg,Images/Speaker3.jpg,Images/Speaker4.jpg,Audio/Speaker3_Per/P3-12-Per.wav,Speaker3,گوینده۳,2,77,237,51,,,,,73.23001124999973,,,,,,,,,,,,,,,,,,,,,,,,,,,,,,,,,,,,,,,,,,,,,51.23003066700039,0.0,False,51.23023250000006,830432,001,2024-07-03_12h47.24.910,5-all in one,2024.1.4,None,2024-07-03 12h47.30.149188 +0900,
Images/Speaker1.jpg,Images/Speaker2.jpg,Images/Speaker3.jpg,Images/Speaker4.jpg,Audio/Speaker3_Per/P3-20-Per.wav,Speaker3,گوینده۳,2,78,238,59,,,,,73.23001124999973,,,,,,,,,,,,,,,,,,,,,,,,,,,,,,,,,,,,,,,,,,,,,51.24657937499978,0.0,False,51.24677958400025,830432,001,2024-07-03_12h47.24.910,5-all in one,2024.1.4,None,2024-07-03 12h47.30.149188 +0900,
Images/Speaker1.jpg,Images/Speaker2.jpg,Images/Speaker3.jpg,Images/Speaker4.jpg,Audio/Speaker4_Per/P4-12-Per.wav,Speaker4,گوینده۴,2,79,239,71,,,,,73.23001124999973,,,,,,,,,,,,,,,,,,,,,,,,,,,,,,,,,,,,,,,,,,,,,51.262447500001144,0.0,False,51.26262512500034,830432,001,2024-07-03_12h47.24.910,5-all in one,2024.1.4,None,2024-07-03 12h47.30.149188 +0900,
Images/Speaker1.jpg,Images/Speaker2.jpg,Images/Speaker3.jpg,Images/Speaker4.jpg,Audio/Speaker3_Per/P3-9-Per.wav,Speaker3,گوینده۳,3,0,240,48,,,,,73.23001124999973,,,,,,,,,,,,,,,,,,,,,,,,,,,,,,,,,,,,,,,,,,,,,51.278350833999866,0.0,False,51.278535084000396,830432,001,2024-07-03_12h47.24.910,5-all in one,2024.1.4,None,2024-07-03 12h47.30.149188 +0900,
Images/Speaker1.jpg,Images/Speaker2.jpg,Images/Speaker3.jpg,Images/Speaker4.jpg,Audio/Speaker4_Per/P4-20-Per.wav,Speaker4,گوینده۴,3,1,241,79,,,,,73.23001124999973,,,,,,,,,,,,,,,,,,,,,,,,,,,,,,,,,,,,,,,,,,,,,51.294100834000346,0.0,False,51.294271624999965,830432,001,2024-07-03_12h47.24.910,5-all in one,2024.1.4,None,2024-07-03 12h47.30.149188 +0900,
Images/Speaker1.jpg,Images/Speaker2.jpg,Images/Speaker3.jpg,Images/Speaker4.jpg,Audio/Speaker2_Per/P2-17-Per.wav,Speaker2,گوینده۲,3,2,242,36,,,,,73.23001124999973,,,,,,,,,,,,,,,,,,,,,,,,,,,,,,,,,,,,,,,,,,,,,51.3106977919997,0.0,False,51.31087633400057,830432,001,2024-07-03_12h47.24.910,5-all in one,2024.1.4,None,2024-07-03 12h47.30.149188 +0900,
Images/Speaker1.jpg,Images/Speaker2.jpg,Images/Speaker3.jpg,Images/Speaker4.jpg,Audio/Speaker3_Per/P3-7-Per.wav,Speaker3,گوینده۳,3,3,243,46,,,,,73.23001124999973,,,,,,,,,,,,,,,,,,,,,,,,,,,,,,,,,,,,,,,,,,,,,51.32664500000101,0.0,False,51.32687787500072,830432,001,2024-07-03_12h47.24.910,5-all in one,2024.1.4,None,2024-07-03 12h47.30.149188 +0900,
Images/Speaker1.jpg,Images/Speaker2.jpg,Images/Speaker3.jpg,Images/Speaker4.jpg,Audio/Speaker1_Per/P1-3-Per.wav,Speaker1,گوینده ۱,3,4,244,2,,,,,73.23001124999973,,,,,,,,,,,,,,,,,,,,,,,,,,,,,,,,,,,,,,,,,,,,,51.342515459000424,0.0,False,51.342687792001016,830432,001,2024-07-03_12h47.24.910,5-all in one,2024.1.4,None,2024-07-03 12h47.30.149188 +0900,
Images/Speaker1.jpg,Images/Speaker2.jpg,Images/Speaker3.jpg,Images/Speaker4.jpg,Audio/Speaker1_Per/P1-10-Per.wav,Speaker1,گوینده ۱,3,5,245,9,,,,,73.23001124999973,,,,,,,,,,,,,,,,,,,,,,,,,,,,,,,,,,,,,,,,,,,,,51.358358958999816,0.0,False,51.358586959000604,830432,001,2024-07-03_12h47.24.910,5-all in one,2024.1.4,None,2024-07-03 12h47.30.149188 +0900,
Images/Speaker1.jpg,Images/Speaker2.jpg,Images/Speaker3.jpg,Images/Speaker4.jpg,Audio/Speaker4_Per/P4-16-Per.wav,Speaker4,گوینده۴,3,6,246,75,,,,,73.23001124999973,,,,,,,,,,,,,,,,,,,,,,,,,,,,,,,,,,,,,,,,,,,,,51.374723124999946,0.0,False,51.37490854200041,830432,001,2024-07-03_12h47.24.910,5-all in one,2024.1.4,None,2024-07-03 12h47.30.149188 +0900,
Images/Speaker1.jpg,Images/Speaker2.jpg,Images/Speaker3.jpg,Images/Speaker4.jpg,Audio/Speaker2_Per/P2-14-Per.wav,Speaker2,گوینده۲,3,7,247,33,,,,,73.23001124999973,,,,,,,,,,,,,,,,,,,,,,,,,,,,,,,,,,,,,,,,,,,,,51.390698000001066,0.0,False,51.390871792000326,830432,001,2024-07-03_12h47.24.910,5-all in one,2024.1.4,None,2024-07-03 12h47.30.149188 +0900,
Images/Speaker1.jpg,Images/Speaker2.jpg,Images/Speaker3.jpg,Images/Speaker4.jpg,Audio/Speaker1_Per/P1-9-Per.wav,Speaker1,گوینده ۱,3,8,248,8,,,,,73.23001124999973,,,,,,,,,,,,,,,,,,,,,,,,,,,,,,,,,,,,,,,,,,,,,51.40664208400085,0.0,False,51.406833000000915,830432,001,2024-07-03_12h47.24.910,5-all in one,2024.1.4,None,2024-07-03 12h47.30.149188 +0900,
Images/Speaker1.jpg,Images/Speaker2.jpg,Images/Speaker3.jpg,Images/Speaker4.jpg,Audio/Speaker2_Per/P2-12-Per.wav,Speaker2,گوینده۲,3,9,249,31,,,,,73.23001124999973,,,,,,,,,,,,,,,,,,,,,,,,,,,,,,,,,,,,,,,,,,,,,51.422600625000996,0.0,False,51.422777875000975,830432,001,2024-07-03_12h47.24.910,5-all in one,2024.1.4,None,2024-07-03 12h47.30.149188 +0900,
Images/Speaker1.jpg,Images/Speaker2.jpg,Images/Speaker3.jpg,Images/Speaker4.jpg,Audio/Speaker1_Per/P1-19-Per.wav,Speaker1,گوینده ۱,3,10,250,18,,,,,73.23001124999973,,,,,,,,,,,,,,,,,,,,,,,,,,,,,,,,,,,,,,,,,,,,,51.43906229200002,0.0,False,51.43925175000004,830432,001,2024-07-03_12h47.24.910,5-all in one,2024.1.4,None,2024-07-03 12h47.30.149188 +0900,
Images/Speaker1.jpg,Images/Speaker2.jpg,Images/Speaker3.jpg,Images/Speaker4.jpg,Audio/Speaker1_Per/P1-2-Per.wav,Speaker1,گوینده ۱,3,11,251,1,,,,,73.23001124999973,,,,,,,,,,,,,,,,,,,,,,,,,,,,,,,,,,,,,,,,,,,,,51.45501341700037,0.0,False,51.45521600000029,830432,001,2024-07-03_12h47.24.910,5-all in one,2024.1.4,None,2024-07-03 12h47.30.149188 +0900,
Images/Speaker1.jpg,Images/Speaker2.jpg,Images/Speaker3.jpg,Images/Speaker4.jpg,Audio/Speaker1_Per/P1-17-Per.wav,Speaker1,گوینده ۱,3,12,252,16,,,,,73.23001124999973,,,,,,,,,,,,,,,,,,,,,,,,,,,,,,,,,,,,,,,,,,,,,51.471015959001306,0.0,False,51.471202542001265,830432,001,2024-07-03_12h47.24.910,5-all in one,2024.1.4,None,2024-07-03 12h47.30.149188 +0900,
Images/Speaker1.jpg,Images/Speaker2.jpg,Images/Speaker3.jpg,Images/Speaker4.jpg,Audio/Speaker3_Per/P3-3-Per.wav,Speaker3,گوینده۳,3,13,253,42,,,,,73.23001124999973,,,,,,,,,,,,,,,,,,,,,,,,,,,,,,,,,,,,,,,,,,,,,51.48690541700125,0.0,False,51.487101709000854,830432,001,2024-07-03_12h47.24.910,5-all in one,2024.1.4,None,2024-07-03 12h47.30.149188 +0900,
Images/Speaker1.jpg,Images/Speaker2.jpg,Images/Speaker3.jpg,Images/Speaker4.jpg,Audio/Speaker1_Per/P1-7-Per.wav,Speaker1,گوینده ۱,3,14,254,6,,,,,73.23001124999973,,,,,,,,,,,,,,,,,,,,,,,,,,,,,,,,,,,,,,,,,,,,,51.50350075000097,0.0,False,51.50376137500098,830432,001,2024-07-03_12h47.24.910,5-all in one,2024.1.4,None,2024-07-03 12h47.30.149188 +0900,
Images/Speaker1.jpg,Images/Speaker2.jpg,Images/Speaker3.jpg,Images/Speaker4.jpg,Audio/Speaker2_Per/P2-3-Per.wav,Speaker2,گوینده۲,3,15,255,22,,,,,73.23001124999973,,,,,,,,,,,,,,,,,,,,,,,,,,,,,,,,,,,,,,,,,,,,,51.519368291999854,0.0,False,51.519608792001236,830432,001,2024-07-03_12h47.24.910,5-all in one,2024.1.4,None,2024-07-03 12h47.30.149188 +0900,
Images/Speaker1.jpg,Images/Speaker2.jpg,Images/Speaker3.jpg,Images/Speaker4.jpg,Audio/Speaker2_Per/P2-9-Per.wav,Speaker2,گوینده۲,3,16,256,28,,,,,73.23001124999973,,,,,,,,,,,,,,,,,,,,,,,,,,,,,,,,,,,,,,,,,,,,,51.535307209000166,0.0,False,51.53550345900112,830432,001,2024-07-03_12h47.24.910,5-all in one,2024.1.4,None,2024-07-03 12h47.30.149188 +0900,
Images/Speaker1.jpg,Images/Speaker2.jpg,Images/Speaker3.jpg,Images/Speaker4.jpg,Audio/Speaker2_Per/P2-13-Per.wav,Speaker2,گوینده۲,3,17,257,32,,,,,73.23001124999973,,,,,,,,,,,,,,,,,,,,,,,,,,,,,,,,,,,,,,,,,,,,,51.5512246670005,0.0,False,51.551428250000754,830432,001,2024-07-03_12h47.24.910,5-all in one,2024.1.4,None,2024-07-03 12h47.30.149188 +0900,
Images/Speaker1.jpg,Images/Speaker2.jpg,Images/Speaker3.jpg,Images/Speaker4.jpg,Audio/Speaker2_Per/P2-1-Per.wav,Speaker2,گوینده۲,3,18,258,20,,,,,73.23001124999973,,,,,,,,,,,,,,,,,,,,,,,,,,,,,,,,,,,,,,,,,,,,,51.56766462500127,0.0,False,51.56786191700121,830432,001,2024-07-03_12h47.24.910,5-all in one,2024.1.4,None,2024-07-03 12h47.30.149188 +0900,
Images/Speaker1.jpg,Images/Speaker2.jpg,Images/Speaker3.jpg,Images/Speaker4.jpg,Audio/Speaker4_Per/P4-15-Per.wav,Speaker4,گوینده۴,3,19,259,74,,,,,73.23001124999973,,,,,,,,,,,,,,,,,,,,,,,,,,,,,,,,,,,,,,,,,,,,,51.58358395899995,0.0,False,51.58376879200114,830432,001,2024-07-03_12h47.24.910,5-all in one,2024.1.4,None,2024-07-03 12h47.30.149188 +0900,
Images/Speaker1.jpg,Images/Speaker2.jpg,Images/Speaker3.jpg,Images/Speaker4.jpg,Audio/Speaker3_Per/P3-16-Per.wav,Speaker3,گوینده۳,3,20,260,55,,,,,73.23001124999973,,,,,,,,,,,,,,,,,,,,,,,,,,,,,,,,,,,,,,,,,,,,,51.59969258400088,0.0,False,51.59989133400086,830432,001,2024-07-03_12h47.24.910,5-all in one,2024.1.4,None,2024-07-03 12h47.30.149188 +0900,
Images/Speaker1.jpg,Images/Speaker2.jpg,Images/Speaker3.jpg,Images/Speaker4.jpg,Audio/Speaker3_Per/P3-8-Per.wav,Speaker3,گوینده۳,3,21,261,47,,,,,73.23001124999973,,,,,,,,,,,,,,,,,,,,,,,,,,,,,,,,,,,,,,,,,,,,,51.61545291699986,0.0,False,51.6156399169995,830432,001,2024-07-03_12h47.24.910,5-all in one,2024.1.4,None,2024-07-03 12h47.30.149188 +0900,
Images/Speaker1.jpg,Images/Speaker2.jpg,Images/Speaker3.jpg,Images/Speaker4.jpg,Audio/Speaker4_Per/P4-17-Per.wav,Speaker4,گوینده۴,3,22,262,76,,,,,73.23001124999973,,,,,,,,,,,,,,,,,,,,,,,,,,,,,,,,,,,,,,,,,,,,,51.63191045900021,0.0,False,51.632104624999556,830432,001,2024-07-03_12h47.24.910,5-all in one,2024.1.4,None,2024-07-03 12h47.30.149188 +0900,
Images/Speaker1.jpg,Images/Speaker2.jpg,Images/Speaker3.jpg,Images/Speaker4.jpg,Audio/Speaker2_Per/P2-4-Per.wav,Speaker2,گوینده۲,3,23,263,23,,,,,73.23001124999973,,,,,,,,,,,,,,,,,,,,,,,,,,,,,,,,,,,,,,,,,,,,,51.647901125001226,0.0,False,51.6480894590004,830432,001,2024-07-03_12h47.24.910,5-all in one,2024.1.4,None,2024-07-03 12h47.30.149188 +0900,
Images/Speaker1.jpg,Images/Speaker2.jpg,Images/Speaker3.jpg,Images/Speaker4.jpg,Audio/Speaker3_Per/P3-15-Per.wav,Speaker3,گوینده۳,3,24,264,54,,,,,73.23001124999973,,,,,,,,,,,,,,,,,,,,,,,,,,,,,,,,,,,,,,,,,,,,,51.66373150000072,0.0,False,51.663938542000324,830432,001,2024-07-03_12h47.24.910,5-all in one,2024.1.4,None,2024-07-03 12h47.30.149188 +0900,
Images/Speaker1.jpg,Images/Speaker2.jpg,Images/Speaker3.jpg,Images/Speaker4.jpg,Audio/Speaker4_Per/P4-5-Per.wav,Speaker4,گوینده۴,3,25,265,64,,,,,73.23001124999973,,,,,,,,,,,,,,,,,,,,,,,,,,,,,,,,,,,,,,,,,,,,,51.67975633400056,0.0,False,51.67994466700111,830432,001,2024-07-03_12h47.24.910,5-all in one,2024.1.4,None,2024-07-03 12h47.30.149188 +0900,
Images/Speaker1.jpg,Images/Speaker2.jpg,Images/Speaker3.jpg,Images/Speaker4.jpg,Audio/Speaker4_Per/P4-18-Per.wav,Speaker4,گوینده۴,3,26,266,77,,,,,73.23001124999973,,,,,,,,,,,,,,,,,,,,,,,,,,,,,,,,,,,,,,,,,,,,,51.696258916999795,0.0,False,51.696422584000175,830432,001,2024-07-03_12h47.24.910,5-all in one,2024.1.4,None,2024-07-03 12h47.30.149188 +0900,
Images/Speaker1.jpg,Images/Speaker2.jpg,Images/Speaker3.jpg,Images/Speaker4.jpg,Audio/Speaker4_Per/P4-13-Per.wav,Speaker4,گوینده۴,3,27,267,72,,,,,73.23001124999973,,,,,,,,,,,,,,,,,,,,,,,,,,,,,,,,,,,,,,,,,,,,,51.71219300000121,0.0,False,51.71236195900019,830432,001,2024-07-03_12h47.24.910,5-all in one,2024.1.4,None,2024-07-03 12h47.30.149188 +0900,
Images/Speaker1.jpg,Images/Speaker2.jpg,Images/Speaker3.jpg,Images/Speaker4.jpg,Audio/Speaker1_Per/P1-15-Per.wav,Speaker1,گوینده ۱,3,28,268,14,,,,,73.23001124999973,,,,,,,,,,,,,,,,,,,,,,,,,,,,,,,,,,,,,,,,,,,,,51.72812604200044,0.0,False,51.72827379199953,830432,001,2024-07-03_12h47.24.910,5-all in one,2024.1.4,None,2024-07-03 12h47.30.149188 +0900,
Images/Speaker1.jpg,Images/Speaker2.jpg,Images/Speaker3.jpg,Images/Speaker4.jpg,Audio/Speaker3_Per/P3-19-Per.wav,Speaker3,گوینده۳,3,29,269,58,,,,,73.23001124999973,,,,,,,,,,,,,,,,,,,,,,,,,,,,,,,,,,,,,,,,,,,,,51.744005209000534,0.0,False,51.74418954199973,830432,001,2024-07-03_12h47.24.910,5-all in one,2024.1.4,None,2024-07-03 12h47.30.149188 +0900,
Images/Speaker1.jpg,Images/Speaker2.jpg,Images/Speaker3.jpg,Images/Speaker4.jpg,Audio/Speaker1_Per/P1-16-Per.wav,Speaker1,گوینده ۱,3,30,270,15,,,,,73.23001124999973,,,,,,,,,,,,,,,,,,,,,,,,,,,,,,,,,,,,,,,,,,,,,51.7606014590001,0.0,False,51.76079570900038,830432,001,2024-07-03_12h47.24.910,5-all in one,2024.1.4,None,2024-07-03 12h47.30.149188 +0900,
Images/Speaker1.jpg,Images/Speaker2.jpg,Images/Speaker3.jpg,Images/Speaker4.jpg,Audio/Speaker3_Per/P3-18-Per.wav,Speaker3,گوینده۳,3,31,271,57,,,,,73.23001124999973,,,,,,,,,,,,,,,,,,,,,,,,,,,,,,,,,,,,,,,,,,,,,51.77655983400109,0.0,False,51.77672270900075,830432,001,2024-07-03_12h47.24.910,5-all in one,2024.1.4,None,2024-07-03 12h47.30.149188 +0900,
Images/Speaker1.jpg,Images/Speaker2.jpg,Images/Speaker3.jpg,Images/Speaker4.jpg,Audio/Speaker4_Per/P4-14-Per.wav,Speaker4,گوینده۴,3,32,272,73,,,,,73.23001124999973,,,,,,,,,,,,,,,,,,,,,,,,,,,,,,,,,,,,,,,,,,,,,51.792246167000485,0.0,False,51.79240645900063,830432,001,2024-07-03_12h47.24.910,5-all in one,2024.1.4,None,2024-07-03 12h47.30.149188 +0900,
Images/Speaker1.jpg,Images/Speaker2.jpg,Images/Speaker3.jpg,Images/Speaker4.jpg,Audio/Speaker4_Per/P4-9-Per.wav,Speaker4,گوینده۴,3,33,273,68,,,,,73.23001124999973,,,,,,,,,,,,,,,,,,,,,,,,,,,,,,,,,,,,,,,,,,,,,51.80805270900055,0.0,False,51.80828508400009,830432,001,2024-07-03_12h47.24.910,5-all in one,2024.1.4,None,2024-07-03 12h47.30.149188 +0900,
Images/Speaker1.jpg,Images/Speaker2.jpg,Images/Speaker3.jpg,Images/Speaker4.jpg,Audio/Speaker4_Per/P4-19-Per.wav,Speaker4,گوینده۴,3,34,274,78,,,,,73.23001124999973,,,,,,,,,,,,,,,,,,,,,,,,,,,,,,,,,,,,,,,,,,,,,51.824649584001236,0.0,False,51.82483608400071,830432,001,2024-07-03_12h47.24.910,5-all in one,2024.1.4,None,2024-07-03 12h47.30.149188 +0900,
Images/Speaker1.jpg,Images/Speaker2.jpg,Images/Speaker3.jpg,Images/Speaker4.jpg,Audio/Speaker3_Per/P3-4-Per.wav,Speaker3,گوینده۳,3,35,275,43,,,,,73.23001124999973,,,,,,,,,,,,,,,,,,,,,,,,,,,,,,,,,,,,,,,,,,,,,51.84055266700125,0.0,False,51.84071212500021,830432,001,2024-07-03_12h47.24.910,5-all in one,2024.1.4,None,2024-07-03 12h47.30.149188 +0900,
Images/Speaker1.jpg,Images/Speaker2.jpg,Images/Speaker3.jpg,Images/Speaker4.jpg,Audio/Speaker2_Per/P2-2-Per.wav,Speaker2,گوینده۲,3,36,276,21,,,,,73.23001124999973,,,,,,,,,,,,,,,,,,,,,,,,,,,,,,,,,,,,,,,,,,,,,51.856761250001,0.0,False,51.85694745900037,830432,001,2024-07-03_12h47.24.910,5-all in one,2024.1.4,None,2024-07-03 12h47.30.149188 +0900,
