SpeakerImage1,SpeakerImage2,SpeakerImage3,SpeakerImage4,TrainingSound,EnglishCorrectAnswer,PersianCorrectAnswer,SpeakerPhoto1,SpeakerPhoto2,SpeakerPhoto3,SpeakerPhoto4,TestingSound,EnglishCorrectResponse,PersianCorrectResponse,repeated_TrainingLoopGroup3.thisRepN,repeated_TrainingLoopGroup3.thisTrialN,repeated_TrainingLoopGroup3.thisN,repeated_TrainingLoopGroup3.thisIndex,TrainingLoopGroup3.thisRepN,TrainingLoopGroup3.thisTrialN,TrainingLoopGroup3.thisN,TrainingLoopGroup3.thisIndex,testPhase3Loop.thisRepN,testPhase3Loop.thisTrialN,testPhase3Loop.thisN,testPhase3Loop.thisIndex,thisRow.t,notes,trial.started,trial.stopped,GroupSelection.started,GroupInstructions.started,key_resp.started,GroupSelection.stopped,key_resp.keys,key_resp.rt,key_resp.duration,Introduction.started,text_2.started,image.started,sound_7.started,text_4.started,text_2.stopped,sound_8.started,image.stopped,text_4.stopped,image_7.started,sound_9.started,text_5.started,sound_10.started,image_7.stopped,text_5.stopped,image_8.started,sound_11.started,text_6.started,sound_12.started,image_8.stopped,text_6.stopped,image_9.started,sound_13.started,text_7.started,sound_14.started,image_9.stopped,text_7.stopped,Introduction.stopped,Instructions.started,InstructionText.started,InstructionText.stopped,Instructions.stopped,InitializeExperiment.started,InitializeExperiment.stopped,TrainingGroup3.started,SpeakerPicture3.started,image_15.started,image_16.started,image_17.started,Sound3.started,Instruction3.started,Response3.started,TrainingGroup3.stopped,feedbackText,correct_responses_group3,total_trials_group3,Response3.keys,Response3.rt,Response3.duration,FeedbackRoutine3.started,FeedbackText3.started,FeedbackRoutine3.stopped,FeedbackText3.stopped,CheckAccuracy3.started,accuracy_group3,proceed_to_test,CheckAccuracy3.stopped,WelcomeTest.started,text_12.started,text_12.stopped,WelcomeTest.stopped,TestPhase3.started,test3_image1.started,test3_image2.started,test3_image3.started,test3_image4.started,test3_sound.started,text_10.started,test3_response_keyboard.started,TestPhase3.stopped,test3_response_keyboard.keys,test3_response_keyboard.rt,test3_response_keyboard.duration,test3_response,test3_image_file1,test3_image_file2,test3_image_file3,test3_image_file4,test3_sound_file,english_correct_answer,persian_correct_answer,participant,session,date,expName,psychopyVersion,frameRate,expStart,
,,,,,,,,,,,,,,,,,,,,,,,,,,,,0.010241250001854496,0.010625917002471397,,,,,,,,,,,,,,,,,,,,,,,,,,,,,,,,,,,,,,,,,,,,,,,,,,,,,,,,,,,,,,,,,,,,,,,,,,,,,,,,,,,,,,,,,837466,001,2024-07-02_11h40.26.096,5-31,2024.1.4,None,2024-07-02 11h40.31.753219 +0900,
,,,,,,,,,,,,,,,,,,,,,,,,,,,,,,0.01064595800198731,0.016795167000964284,0.016795167000964284,1.7257329580024816,3,1.670683457999985,None,,,,,,,,,,,,,,,,,,,,,,,,,,,,,,,,,,,,,,,,,,,,,,,,,,,,,,,,,,,,,,,,,,,,,,,,,,,,,,,,,,837466,001,2024-07-02_11h40.26.096,5-31,2024.1.4,None,2024-07-02 11h40.31.753219 +0900,
,,,,,,,,,,,,,,,,,,,,,,,,,,,,,,,,,,,,,1.7257633750014065,1.7870867919991724,6.716299625000829,6.7252077086671,6.716299625000829,6.784076250001817,11.725240166666724,16.703022375000728,16.703022375000728,16.721149625002,16.733542541667944,16.721149625002,21.72629441666892,26.71653233300094,26.71653233300094,26.720617833001597,26.733198999667607,26.720617833001597,31.733295416667048,36.71688566699959,36.71688566699959,36.71688566699959,36.726861791667275,36.71688566699959,41.7256852496687,46.71171229199899,46.71171229199899,46.70638237499952,,,,,,,,,,,,,,,,,,,,,,,,,,,,,,,,,,,,,,,,,,,,,,,,,,,,,,837466,001,2024-07-02_11h40.26.096,5-31,2024.1.4,None,2024-07-02 11h40.31.753219 +0900,
,,,,,,,,,,,,,,,,,,,,,,,,,,,,,,,,,,,,,,,,,,,,,,,,,,,,,,,,,,,,,,,,,46.706447583001136,46.716462458000024,47.781188875000225,47.700362499999756,,,,,,,,,,,,,,,,,,,,,,,,,,,,,,,,,,,,,,,,,,,,,,,,,,837466,001,2024-07-02_11h40.26.096,5-31,2024.1.4,None,2024-07-02 11h40.31.753219 +0900,
,,,,,,,,,,,,,,,,,,,,,,,,,,,,,,,,,,,,,,,,,,,,,,,,,,,,,,,,,,,,,,,,,,,,,47.70037545800005,47.70052437499908,,,,,,,,,,,,,,,,,,,,,,,,,,,,,,,,,,,,,,,,,,,,,,,,837466,001,2024-07-02_11h40.26.096,5-31,2024.1.4,None,2024-07-02 11h40.31.753219 +0900,
Images/Speaker1.jpg,Images/Speaker2.jpg,Images/Speaker3.jpg,Images/Speaker4.jpg,Audio/Speaker2_En/P2-13-En.wav,Speaker2,گوینده۲,,,,,,,,0,0,0,19,0,0,0,32,,,,,47.781188875000225,,,,,,,,,,,,,,,,,,,,,,,,,,,,,,,,,,,,,,,,,,,,,47.75291462500172,47.781188875000225,47.781188875000225,47.781188875000225,47.781188875000225,47.78344625033545,47.781188875000225,47.781188875000225,49.57268258300246,Incorrect! The correct answer is Speaker2. نادرست! پاسخ صحیح گوینده۲ است,0,1,1,1.7904162499980885,None,49.576677667002514,49.590063292002014,51.58297191699967,,,,,,,,,,,,,,,,,,,,,,,,,,,,,,837466,001,2024-07-02_11h40.26.096,5-31,2024.1.4,None,2024-07-02 11h40.31.753219 +0900,
Images/Speaker1.jpg,Images/Speaker2.jpg,Images/Speaker3.jpg,Images/Speaker4.jpg,Audio/Speaker4_En/P4-12-En.wav,Speaker4,گوینده۴,,,,,,,,0,0,0,19,0,1,1,71,,,,,51.60713525000028,,,,,,,,,,,,,,,,,,,,,,,,,,,,,,,,,,,,,,,,,,,,,51.58316058299897,51.60713525000028,51.60713525000028,51.60713525000028,51.60713525000028,51.61627166633528,51.60713525000028,51.60713525000028,52.044234542001504,Incorrect! The correct answer is Speaker4. نادرست! پاسخ صحیح گوینده۴ است,0,1,1,0.4322170829982497,None,52.049045250001654,52.068024583000806,54.050989041999856,,,,,,,,,,,,,,,,,,,,,,,,,,,,,,837466,001,2024-07-02_11h40.26.096,5-31,2024.1.4,None,2024-07-02 11h40.31.753219 +0900,
Images/Speaker1.jpg,Images/Speaker2.jpg,Images/Speaker3.jpg,Images/Speaker4.jpg,Audio/Speaker2_En/P2-7-En.wav,Speaker2,گوینده۲,,,,,,,,0,0,0,19,0,2,2,26,,,,,54.07401437500084,,,,,,,,,,,,,,,,,,,,,,,,,,,,,,,,,,,,,,,,,,,,,54.05162429200209,54.07401437500084,54.07401437500084,54.07401437500084,54.07401437500084,54.067493791666735,54.07401437500084,54.07401437500084,54.07455216699964,Incorrect! The correct answer is Speaker2. نادرست! پاسخ صحیح گوینده۲ است,0,1,1,2.391684707999957,None,54.07489320800232,54.08465987499949,56.07667154199953,,,,,,,,,,,,,,,,,,,,,,,,,,,,,,837466,001,2024-07-02_11h40.26.096,5-31,2024.1.4,None,2024-07-02 11h40.31.753219 +0900,
Images/Speaker1.jpg,Images/Speaker2.jpg,Images/Speaker3.jpg,Images/Speaker4.jpg,Audio/Speaker3_En/P3-15-En.wav,Speaker3,گوینده۳,,,,,,,,0,0,0,19,0,3,3,54,,,,,56.10273837500063,,,,,,,,,,,,,,,,,,,,,,,,,,,,,,,,,,,,,,,,,,,,,56.077415333002136,56.10273837500063,56.10273837500063,56.10273837500063,56.10273837500063,56.10985054133246,56.10273837500063,56.10273837500063,56.1032915830001,Incorrect! The correct answer is Speaker3. نادرست! پاسخ صحیح گوینده۳ است,0,1,1,1.9423693329990783,None,56.103657208001096,56.11333187499986,58.09880541700113,58.122237999999925,,,,,,,,,,,,,,,,,,,,,,,,,,,,,837466,001,2024-07-02_11h40.26.096,5-31,2024.1.4,None,2024-07-02 11h40.31.753219 +0900,
Images/Speaker1.jpg,Images/Speaker2.jpg,Images/Speaker3.jpg,Images/Speaker4.jpg,Audio/Speaker1_En/P1-12-En.wav,Speaker1,گوینده ۱,,,,,,,,0,0,0,19,0,4,4,11,,,,,58.122237999999925,,,,,,,,,,,,,,,,,,,,,,,,,,,,,,,,,,,,,,,,,,,,,58.09897937500136,58.122237999999925,58.122237999999925,58.122237999999925,58.122237999999925,58.13189358333378,58.122237999999925,58.122237999999925,58.41935783300141,Correct! صحیح است,1,1,1,0.29405470799974864,None,58.423076082999614,58.43536454200148,60.41896233300213,60.44244158299989,,,,,,,,,,,,,,,,,,,,,,,,,,,,,837466,001,2024-07-02_11h40.26.096,5-31,2024.1.4,None,2024-07-02 11h40.31.753219 +0900,
Images/Speaker1.jpg,Images/Speaker2.jpg,Images/Speaker3.jpg,Images/Speaker4.jpg,Audio/Speaker4_En/P4-15-En.wav,Speaker4,گوینده۴,,,,,,,,0,0,0,19,0,5,5,74,,,,,60.44244158299989,,,,,,,,,,,,,,,,,,,,,,,,,,,,,,,,,,,,,,,,,,,,,60.419153499999084,60.44244158299989,60.44244158299989,60.44244158299989,60.44244158299989,60.45204191633505,60.44244158299989,60.44244158299989,60.474673042001086,Incorrect! The correct answer is Speaker4. نادرست! پاسخ صحیح گوینده۴ است,0,1,1,0.030858582998916972,None,60.47835579200182,60.49086712500139,62.47781454200231,62.50385549999919,,,,,,,,,,,,,,,,,,,,,,,,,,,,,837466,001,2024-07-02_11h40.26.096,5-31,2024.1.4,None,2024-07-02 11h40.31.753219 +0900,
Images/Speaker1.jpg,Images/Speaker2.jpg,Images/Speaker3.jpg,Images/Speaker4.jpg,Audio/Speaker3_En/P3-9-En.wav,Speaker3,گوینده۳,,,,,,,,0,0,0,19,0,6,6,48,,,,,62.50385549999919,,,,,,,,,,,,,,,,,,,,,,,,,,,,,,,,,,,,,,,,,,,,,62.47800654200182,62.50385549999919,62.50385549999919,62.50385549999919,62.50385549999919,62.49425549966715,62.50385549999919,62.50385549999919,62.50451391699971,Incorrect! The correct answer is Speaker3. نادرست! پاسخ صحیح گوینده۳ است,0,1,1,2.0356546250004612,None,62.508390333001444,62.518635083000845,64.5049656250012,64.52816387500206,,,,,,,,,,,,,,,,,,,,,,,,,,,,,837466,001,2024-07-02_11h40.26.096,5-31,2024.1.4,None,2024-07-02 11h40.31.753219 +0900,
Images/Speaker1.jpg,Images/Speaker2.jpg,Images/Speaker3.jpg,Images/Speaker4.jpg,Audio/Speaker3_En/P3-11-En.wav,Speaker3,گوینده۳,,,,,,,,0,0,0,19,0,7,7,50,,,,,64.52816387500206,,,,,,,,,,,,,,,,,,,,,,,,,,,,,,,,,,,,,,,,,,,,,64.50514775000192,64.52816387500206,64.52816387500206,64.52816387500206,64.52816387500206,64.53808229133259,64.52816387500206,64.52816387500206,64.6205067080009,Incorrect! The correct answer is Speaker3. نادرست! پاسخ صحیح گوینده۳ است,0,1,1,0.08538329099974362,None,64.62435533300231,64.63718916700236,66.62981795800079,,,,,,,,,,,,,,,,,,,,,,,,,,,,,,837466,001,2024-07-02_11h40.26.096,5-31,2024.1.4,None,2024-07-02 11h40.31.753219 +0900,
Images/Speaker1.jpg,Images/Speaker2.jpg,Images/Speaker3.jpg,Images/Speaker4.jpg,Audio/Speaker3_En/P3-16-En.wav,Speaker3,گوینده۳,,,,,,,,0,0,0,19,0,8,8,55,,,,,66.6544332500016,,,,,,,,,,,,,,,,,,,,,,,,,,,,,,,,,,,,,,,,,,,,,66.63046749999921,66.6544332500016,66.6544332500016,66.6544332500016,66.6544332500016,66.66300641633327,66.6544332500016,66.6544332500016,66.73752070800037,Incorrect! The correct answer is Speaker3. نادرست! پاسخ صحیح گوینده۳ است,0,1,1,0.0757049999992887,None,66.74126808300207,66.75385645799906,68.73984604200086,68.76305225000033,,,,,,,,,,,,,,,,,,,,,,,,,,,,,837466,001,2024-07-02_11h40.26.096,5-31,2024.1.4,None,2024-07-02 11h40.31.753219 +0900,
Images/Speaker1.jpg,Images/Speaker2.jpg,Images/Speaker3.jpg,Images/Speaker4.jpg,Audio/Speaker1_En/P1-7-En.wav,Speaker1,گوینده ۱,,,,,,,,0,0,0,19,0,9,9,6,,,,,68.76305225000033,,,,,,,,,,,,,,,,,,,,,,,,,,,,,,,,,,,,,,,,,,,,,68.74002845799987,68.76305225000033,68.76305225000033,68.76305225000033,68.76305225000033,68.7729239583355,68.76305225000033,68.76305225000033,68.76363966700228,Correct! صحیح است,1,1,1,2.0441935419985384,None,68.76402125000095,68.77216741700249,70.75928516700151,70.78190508300031,,,,,,,,,,,,,,,,,,,,,,,,,,,,,837466,001,2024-07-02_11h40.26.096,5-31,2024.1.4,None,2024-07-02 11h40.31.753219 +0900,
Images/Speaker1.jpg,Images/Speaker2.jpg,Images/Speaker3.jpg,Images/Speaker4.jpg,Audio/Speaker2_En/P2-10-En.wav,Speaker2,گوینده۲,,,,,,,,0,0,0,19,0,10,10,29,,,,,70.78190508300031,,,,,,,,,,,,,,,,,,,,,,,,,,,,,,,,,,,,,,,,,,,,,70.75947137500043,70.78190508300031,70.78190508300031,70.78190508300031,70.78190508300031,70.77570774966831,70.78190508300031,70.78190508300031,70.78247579200251,Incorrect! The correct answer is Speaker2. نادرست! پاسخ صحیح گوینده۲ است,0,1,1,1.8610227089993714,None,70.78653412499989,70.79623595800149,72.79207275000226,,,,,,,,,,,,,,,,,,,,,,,,,,,,,,837466,001,2024-07-02_11h40.26.096,5-31,2024.1.4,None,2024-07-02 11h40.31.753219 +0900,
Images/Speaker1.jpg,Images/Speaker2.jpg,Images/Speaker3.jpg,Images/Speaker4.jpg,Audio/Speaker1_En/P1-5-En.wav,Speaker1,گوینده ۱,,,,,,,,0,0,0,19,0,11,11,4,,,,,72.81412904199897,,,,,,,,,,,,,,,,,,,,,,,,,,,,,,,,,,,,,,,,,,,,,72.79222433299947,72.81412904199897,72.81412904199897,72.81412904199897,72.81412904199897,72.80870858366713,72.81412904199897,72.81412904199897,72.81470975000047,Correct! صحیح است,1,1,1,1.8806006250015344,None,72.81842524999956,72.8263790830024,74.82137587500256,,,,,,,,,,,,,,,,,,,,,,,,,,,,,,837466,001,2024-07-02_11h40.26.096,5-31,2024.1.4,None,2024-07-02 11h40.31.753219 +0900,
Images/Speaker1.jpg,Images/Speaker2.jpg,Images/Speaker3.jpg,Images/Speaker4.jpg,Audio/Speaker4_En/P4-5-En.wav,Speaker4,گوینده۴,,,,,,,,0,0,0,19,0,12,12,64,,,,,74.84337979200063,,,,,,,,,,,,,,,,,,,,,,,,,,,,,,,,,,,,,,,,,,,,,74.82153991700034,74.84337979200063,74.84337979200063,74.84337979200063,74.84337979200063,74.83800770866607,74.84337979200063,74.84337979200063,74.89174033300151,Incorrect! The correct answer is Speaker4. نادرست! پاسخ صحیح گوینده۴ است,0,1,1,0.040599707997898804,None,74.8956142499992,74.90758441700018,76.90103845799968,,,,,,,,,,,,,,,,,,,,,,,,,,,,,,837466,001,2024-07-02_11h40.26.096,5-31,2024.1.4,None,2024-07-02 11h40.31.753219 +0900,
Images/Speaker1.jpg,Images/Speaker2.jpg,Images/Speaker3.jpg,Images/Speaker4.jpg,Audio/Speaker4_En/P4-9-En.wav,Speaker4,گوینده۴,,,,,,,,0,0,0,19,0,13,13,68,,,,,76.92668120800226,,,,,,,,,,,,,,,,,,,,,,,,,,,,,,,,,,,,,,,,,,,,,76.90166016700095,76.92668120800226,76.92668120800226,76.92668120800226,76.92668120800226,76.93422687533578,76.92668120800226,76.92668120800226,76.92723608300003,Incorrect! The correct answer is Speaker4. نادرست! پاسخ صحیح گوینده۴ است,0,1,1,1.9758945419998781,None,76.92749004200232,76.93669970799965,78.92378250000183,78.94724545799909,,,,,,,,,,,,,,,,,,,,,,,,,,,,,837466,001,2024-07-02_11h40.26.096,5-31,2024.1.4,None,2024-07-02 11h40.31.753219 +0900,
Images/Speaker1.jpg,Images/Speaker2.jpg,Images/Speaker3.jpg,Images/Speaker4.jpg,Audio/Speaker1_En/P1-15-En.wav,Speaker1,گوینده ۱,,,,,,,,0,0,0,19,0,14,14,14,,,,,78.94724545799909,,,,,,,,,,,,,,,,,,,,,,,,,,,,,,,,,,,,,,,,,,,,,78.92394654199961,78.94724545799909,78.94724545799909,78.94724545799909,78.94724545799909,78.95686570833325,78.94724545799909,78.94724545799909,78.94785658299952,Correct! صحیح است,1,1,1,1.931668332999834,None,78.94812783300222,78.95651266700224,80.94170345800012,80.9633856670007,,,,,,,,,,,,,,,,,,,,,,,,,,,,,837466,001,2024-07-02_11h40.26.096,5-31,2024.1.4,None,2024-07-02 11h40.31.753219 +0900,
Images/Speaker1.jpg,Images/Speaker2.jpg,Images/Speaker3.jpg,Images/Speaker4.jpg,Audio/Speaker2_En/P2-17-En.wav,Speaker2,گوینده۲,,,,,,,,0,0,0,19,0,15,15,36,,,,,80.9633856670007,,,,,,,,,,,,,,,,,,,,,,,,,,,,,,,,,,,,,,,,,,,,,80.94185816699974,80.9633856670007,80.9633856670007,80.9633856670007,80.9633856670007,80.95811204166627,80.9633856670007,80.9633856670007,81.0508673330005,Incorrect! The correct answer is Speaker2. نادرست! پاسخ صحیح گوینده۲ است,0,1,1,0.07962004200089723,None,81.05473762499969,81.06733000000168,83.06028004200198,,,,,,,,,,,,,,,,,,,,,,,,,,,,,,837466,001,2024-07-02_11h40.26.096,5-31,2024.1.4,None,2024-07-02 11h40.31.753219 +0900,
Images/Speaker1.jpg,Images/Speaker2.jpg,Images/Speaker3.jpg,Images/Speaker4.jpg,Audio/Speaker4_En/P4-19-En.wav,Speaker4,گوینده۴,,,,,,,,0,0,0,19,0,16,16,78,,,,,83.08235875000173,,,,,,,,,,,,,,,,,,,,,,,,,,,,,,,,,,,,,,,,,,,,,83.06047441700139,83.08235875000173,83.08235875000173,83.08235875000173,83.08235875000173,83.07691029166769,83.08235875000173,83.08235875000173,83.1578468330008,Incorrect! The correct answer is Speaker4. نادرست! پاسخ صحیح گوینده۴ است,0,1,1,0.07249400000000605,None,83.16162383300252,83.17432529200232,85.15991112499978,85.18248420800228,,,,,,,,,,,,,,,,,,,,,,,,,,,,,837466,001,2024-07-02_11h40.26.096,5-31,2024.1.4,None,2024-07-02 11h40.31.753219 +0900,
Images/Speaker1.jpg,Images/Speaker2.jpg,Images/Speaker3.jpg,Images/Speaker4.jpg,Audio/Speaker3_En/P3-18-En.wav,Speaker3,گوینده۳,,,,,,,,0,0,0,19,0,17,17,57,,,,,85.18248420800228,,,,,,,,,,,,,,,,,,,,,,,,,,,,,,,,,,,,,,,,,,,,,85.16011716700086,85.18248420800228,85.18248420800228,85.18248420800228,85.18248420800228,85.17633037466682,85.18248420800228,85.18248420800228,85.27499591699961,Incorrect! The correct answer is Speaker3. نادرست! پاسخ صحیح گوینده۳ است,0,1,1,0.08968166599879623,None,85.27879808299986,85.29131495800175,87.2786100830017,87.30623220800044,,,,,,,,,,,,,,,,,,,,,,,,,,,,,837466,001,2024-07-02_11h40.26.096,5-31,2024.1.4,None,2024-07-02 11h40.31.753219 +0900,
Images/Speaker1.jpg,Images/Speaker2.jpg,Images/Speaker3.jpg,Images/Speaker4.jpg,Audio/Speaker1_En/P1-19-En.wav,Speaker1,گوینده ۱,,,,,,,,0,0,0,19,0,18,18,18,,,,,87.30623220800044,,,,,,,,,,,,,,,,,,,,,,,,,,,,,,,,,,,,,,,,,,,,,87.2795833750024,87.30623220800044,87.30623220800044,87.30623220800044,87.30623220800044,87.31105075033386,87.30623220800044,87.30623220800044,87.36515666700143,Correct! صحیح است,1,1,1,0.05424191700149095,None,87.36883020800087,87.37971708300029,89.36282566700174,89.38662933299929,,,,,,,,,,,,,,,,,,,,,,,,,,,,,837466,001,2024-07-02_11h40.26.096,5-31,2024.1.4,None,2024-07-02 11h40.31.753219 +0900,
Images/Speaker1.jpg,Images/Speaker2.jpg,Images/Speaker3.jpg,Images/Speaker4.jpg,Audio/Speaker4_En/P4-4-En.wav,Speaker4,گوینده۴,,,,,,,,0,0,0,19,0,19,19,63,,,,,89.38662933299929,,,,,,,,,,,,,,,,,,,,,,,,,,,,,,,,,,,,,,,,,,,,,89.36298558300041,89.38662933299929,89.38662933299929,89.38662933299929,89.38662933299929,89.39593304133498,89.38662933299929,89.38662933299929,89.49452500000189,Incorrect! The correct answer is Speaker4. نادرست! پاسخ صحیح گوینده۴ است,0,1,1,0.09969462499793735,None,89.49886545800109,89.50870362500063,91.492728833,91.51489654200122,,,,,,,,,,,,,,,,,,,,,,,,,,,,,837466,001,2024-07-02_11h40.26.096,5-31,2024.1.4,None,2024-07-02 11h40.31.753219 +0900,
Images/Speaker1.jpg,Images/Speaker2.jpg,Images/Speaker3.jpg,Images/Speaker4.jpg,Audio/Speaker1_En/P1-20-En.wav,Speaker1,گوینده ۱,,,,,,,,0,0,0,19,0,20,20,19,,,,,91.51489654200122,,,,,,,,,,,,,,,,,,,,,,,,,,,,,,,,,,,,,,,,,,,,,91.49290179200034,91.51489654200122,91.51489654200122,91.51489654200122,91.51489654200122,91.50918974966795,91.51489654200122,91.51489654200122,91.58607870800188,Correct! صحیح است,1,1,1,0.06919266700060689,None,91.5900955420002,91.60102437500245,93.58545970799969,93.60966254199957,,,,,,,,,,,,,,,,,,,,,,,,,,,,,837466,001,2024-07-02_11h40.26.096,5-31,2024.1.4,None,2024-07-02 11h40.31.753219 +0900,
Images/Speaker1.jpg,Images/Speaker2.jpg,Images/Speaker3.jpg,Images/Speaker4.jpg,Audio/Speaker1_En/P1-11-En.wav,Speaker1,گوینده ۱,,,,,,,,0,0,0,19,0,21,21,10,,,,,93.60966254199957,,,,,,,,,,,,,,,,,,,,,,,,,,,,,,,,,,,,,,,,,,,,,93.58605033300046,93.60966254199957,93.60966254199957,93.60966254199957,93.60966254199957,93.6176189163348,93.60966254199957,93.60966254199957,93.61026270799994,Correct! صحیح است,1,1,1,1.980713459000981,None,93.61073808299989,93.61807733300157,95.60243462500148,95.63249695800187,,,,,,,,,,,,,,,,,,,,,,,,,,,,,837466,001,2024-07-02_11h40.26.096,5-31,2024.1.4,None,2024-07-02 11h40.31.753219 +0900,
Images/Speaker1.jpg,Images/Speaker2.jpg,Images/Speaker3.jpg,Images/Speaker4.jpg,Audio/Speaker4_En/P4-11-En.wav,Speaker4,گوینده۴,,,,,,,,0,0,0,19,0,22,22,70,,,,,95.63249695800187,,,,,,,,,,,,,,,,,,,,,,,,,,,,,,,,,,,,,,,,,,,,,95.60298075000173,95.63249695800187,95.63249695800187,95.63249695800187,95.63249695800187,95.63489462533519,95.63249695800187,95.63249695800187,95.63312724999923,Incorrect! The correct answer is Speaker4. نادرست! پاسخ صحیح گوینده۴ است,0,1,1,2.0129897500009974,None,95.63699870799974,95.64715754200006,97.64132175000123,,,,,,,,,,,,,,,,,,,,,,,,,,,,,,837466,001,2024-07-02_11h40.26.096,5-31,2024.1.4,None,2024-07-02 11h40.31.753219 +0900,
Images/Speaker1.jpg,Images/Speaker2.jpg,Images/Speaker3.jpg,Images/Speaker4.jpg,Audio/Speaker3_En/P3-10-En.wav,Speaker3,گوینده۳,,,,,,,,0,0,0,19,0,23,23,49,,,,,97.6682173750014,,,,,,,,,,,,,,,,,,,,,,,,,,,,,,,,,,,,,,,,,,,,,97.64198212500196,97.6682173750014,97.6682173750014,97.6682173750014,97.6682173750014,97.67447733333441,97.6682173750014,97.6682173750014,97.66876725000111,Incorrect! The correct answer is Speaker3. نادرست! پاسخ صحیح گوینده۳ است,0,1,1,1.926593750002212,None,97.66918437500135,97.67929424999966,99.6671515420021,99.69439983300254,,,,,,,,,,,,,,,,,,,,,,,,,,,,,837466,001,2024-07-02_11h40.26.096,5-31,2024.1.4,None,2024-07-02 11h40.31.753219 +0900,
Images/Speaker1.jpg,Images/Speaker2.jpg,Images/Speaker3.jpg,Images/Speaker4.jpg,Audio/Speaker1_En/P1-4-En.wav,Speaker1,گوینده ۱,,,,,,,,0,0,0,19,0,24,24,3,,,,,99.69439983300254,,,,,,,,,,,,,,,,,,,,,,,,,,,,,,,,,,,,,,,,,,,,,99.66732975000195,99.69439983300254,99.69439983300254,99.69439983300254,99.69439983300254,99.70023416633242,99.69439983300254,99.69439983300254,99.69500704200254,Correct! صحیح است,1,1,1,2.0114543330018932,None,99.69545212500088,99.70427812500202,101.69374204199994,101.71441050000067,,,,,,,,,,,,,,,,,,,,,,,,,,,,,837466,001,2024-07-02_11h40.26.096,5-31,2024.1.4,None,2024-07-02 11h40.31.753219 +0900,
Images/Speaker1.jpg,Images/Speaker2.jpg,Images/Speaker3.jpg,Images/Speaker4.jpg,Audio/Speaker1_En/P1-3-En.wav,Speaker1,گوینده ۱,,,,,,,,0,0,0,19,0,25,25,2,,,,,101.71441050000067,,,,,,,,,,,,,,,,,,,,,,,,,,,,,,,,,,,,,,,,,,,,,101.6941488750017,101.71441050000067,101.71441050000067,101.71441050000067,101.71441050000067,101.70944449966579,101.71441050000067,101.71441050000067,101.75614733300245,Correct! صحیح است,1,1,1,0.039756624999427004,None,101.75982458300132,101.7708424170014,103.75571991700053,103.77789487500195,,,,,,,,,,,,,,,,,,,,,,,,,,,,,837466,001,2024-07-02_11h40.26.096,5-31,2024.1.4,None,2024-07-02 11h40.31.753219 +0900,
Images/Speaker1.jpg,Images/Speaker2.jpg,Images/Speaker3.jpg,Images/Speaker4.jpg,Audio/Speaker4_En/P4-8-En.wav,Speaker4,گوینده۴,,,,,,,,0,0,0,19,0,26,26,67,,,,,103.77789487500195,,,,,,,,,,,,,,,,,,,,,,,,,,,,,,,,,,,,,,,,,,,,,103.7558879169992,103.77789487500195,103.77789487500195,103.77789487500195,103.77789487500195,103.7721601666674,103.77789487500195,103.77789487500195,103.89516083300259,Incorrect! The correct answer is Speaker4. نادرست! پاسخ صحیح گوینده۴ است,0,1,1,0.11303783400217071,None,103.89920895800242,103.91143766700043,105.89861250000104,105.92098391699983,,,,,,,,,,,,,,,,,,,,,,,,,,,,,837466,001,2024-07-02_11h40.26.096,5-31,2024.1.4,None,2024-07-02 11h40.31.753219 +0900,
Images/Speaker1.jpg,Images/Speaker2.jpg,Images/Speaker3.jpg,Images/Speaker4.jpg,Audio/Speaker1_En/P1-9-En.wav,Speaker1,گوینده ۱,,,,,,,,0,0,0,19,0,27,27,8,,,,,105.92098391699983,,,,,,,,,,,,,,,,,,,,,,,,,,,,,,,,,,,,,,,,,,,,,105.89880341699973,105.92098391699983,105.92098391699983,105.92098391699983,105.92098391699983,105.91505008366609,105.92098391699983,105.92098391699983,105.92987362500207,Correct! صحیح است,1,1,1,0.000820666002255166,None,105.9339212920022,105.94184233300257,107.93599841700052,,,,,,,,,,,,,,,,,,,,,,,,,,,,,,837466,001,2024-07-02_11h40.26.096,5-31,2024.1.4,None,2024-07-02 11h40.31.753219 +0900,
Images/Speaker1.jpg,Images/Speaker2.jpg,Images/Speaker3.jpg,Images/Speaker4.jpg,Audio/Speaker2_En/P2-20-En.wav,Speaker2,گوینده۲,,,,,,,,0,0,0,19,0,28,28,39,,,,,107.9587171250023,,,,,,,,,,,,,,,,,,,,,,,,,,,,,,,,,,,,,,,,,,,,,107.93616120799925,107.9587171250023,107.9587171250023,107.9587171250023,107.9587171250023,107.95263108366659,107.9587171250023,107.9587171250023,108.04251487500005,Incorrect! The correct answer is Speaker2. نادرست! پاسخ صحیح گوینده۲ است,0,1,1,0.07388237499981187,None,108.0467399170011,108.05909987500127,110.04858620800223,,,,,,,,,,,,,,,,,,,,,,,,,,,,,,837466,001,2024-07-02_11h40.26.096,5-31,2024.1.4,None,2024-07-02 11h40.31.753219 +0900,
Images/Speaker1.jpg,Images/Speaker2.jpg,Images/Speaker3.jpg,Images/Speaker4.jpg,Audio/Speaker2_En/P2-16-En.wav,Speaker2,گوینده۲,,,,,,,,0,0,0,19,0,29,29,35,,,,,110.07088045799901,,,,,,,,,,,,,,,,,,,,,,,,,,,,,,,,,,,,,,,,,,,,,110.04875987500054,110.07088045799901,110.07088045799901,110.07088045799901,110.07088045799901,110.06521754166921,110.07088045799901,110.07088045799901,110.07711737499994,Incorrect! The correct answer is Speaker2. نادرست! پاسخ صحیح گوینده۲ است,0,1,1,0.0050743749998218846,None,110.08080025000163,110.09276133300227,112.0874643749994,,,,,,,,,,,,,,,,,,,,,,,,,,,,,,837466,001,2024-07-02_11h40.26.096,5-31,2024.1.4,None,2024-07-02 11h40.31.753219 +0900,
Images/Speaker1.jpg,Images/Speaker2.jpg,Images/Speaker3.jpg,Images/Speaker4.jpg,Audio/Speaker3_En/P3-1-En.wav,Speaker3,گوینده۳,,,,,,,,0,0,0,19,0,30,30,40,,,,,112.11340945800112,,,,,,,,,,,,,,,,,,,,,,,,,,,,,,,,,,,,,,,,,,,,,112.08808695799962,112.11340945800112,112.11340945800112,112.11340945800112,112.11340945800112,112.12062162533451,112.11340945800112,112.11340945800112,112.1139587079997,Incorrect! The correct answer is Speaker3. نادرست! پاسخ صحیح گوینده۳ است,0,1,1,1.9634142499999143,None,112.11421404200155,112.12373062500046,114.11683741700108,,,,,,,,,,,,,,,,,,,,,,,,,,,,,,837466,001,2024-07-02_11h40.26.096,5-31,2024.1.4,None,2024-07-02 11h40.31.753219 +0900,
Images/Speaker1.jpg,Images/Speaker2.jpg,Images/Speaker3.jpg,Images/Speaker4.jpg,Audio/Speaker3_En/P3-3-En.wav,Speaker3,گوینده۳,,,,,,,,0,0,0,19,0,31,31,42,,,,,114.14145275000192,,,,,,,,,,,,,,,,,,,,,,,,,,,,,,,,,,,,,,,,,,,,,114.11745212499955,114.14145275000192,114.14145275000192,114.14145275000192,114.14145275000192,114.1499569163357,114.14145275000192,114.14145275000192,114.30932383300024,Incorrect! The correct answer is Speaker3. نادرست! پاسخ صحیح گوینده۳ است,0,1,1,0.1661541670000588,None,114.31301974999951,114.32529791699926,116.31402512500063,,,,,,,,,,,,,,,,,,,,,,,,,,,,,,837466,001,2024-07-02_11h40.26.096,5-31,2024.1.4,None,2024-07-02 11h40.31.753219 +0900,
Images/Speaker1.jpg,Images/Speaker2.jpg,Images/Speaker3.jpg,Images/Speaker4.jpg,Audio/Speaker4_En/P4-2-En.wav,Speaker4,گوینده۴,,,,,,,,0,0,0,19,0,32,32,61,,,,,116.34007962500255,,,,,,,,,,,,,,,,,,,,,,,,,,,,,,,,,,,,,,,,,,,,,116.3147415420026,116.34007962500255,116.34007962500255,116.34007962500255,116.34007962500255,116.3471859163333,116.34007962500255,116.34007962500255,116.42833162500028,Incorrect! The correct answer is Speaker4. نادرست! پاسخ صحیح گوینده۴ است,0,1,1,0.08397354100088705,None,116.4321264579994,116.44499633300074,118.4283276669994,118.44998337500147,,,,,,,,,,,,,,,,,,,,,,,,,,,,,837466,001,2024-07-02_11h40.26.096,5-31,2024.1.4,None,2024-07-02 11h40.31.753219 +0900,
Images/Speaker1.jpg,Images/Speaker2.jpg,Images/Speaker3.jpg,Images/Speaker4.jpg,Audio/Speaker1_En/P1-4-En.wav,Speaker1,گوینده ۱,,,,,,,,0,0,0,19,0,33,33,13,,,,,118.44998337500147,,,,,,,,,,,,,,,,,,,,,,,,,,,,,,,,,,,,,,,,,,,,,118.42853204200219,118.44998337500147,118.44998337500147,118.44998337500147,118.44998337500147,118.44477899966684,118.44998337500147,118.44998337500147,118.45063120800114,Correct! صحیح است,1,1,1,2.06381862499984,None,118.45488587500222,118.46266583300167,120.44766479200189,120.47200441699897,,,,,,,,,,,,,,,,,,,,,,,,,,,,,837466,001,2024-07-02_11h40.26.096,5-31,2024.1.4,None,2024-07-02 11h40.31.753219 +0900,
Images/Speaker1.jpg,Images/Speaker2.jpg,Images/Speaker3.jpg,Images/Speaker4.jpg,Audio/Speaker4_En/P4-6-En.wav,Speaker4,گوینده۴,,,,,,,,0,0,0,19,0,34,34,65,,,,,120.47200441699897,,,,,,,,,,,,,,,,,,,,,,,,,,,,,,,,,,,,,,,,,,,,,120.4482669579993,120.47200441699897,120.47200441699897,120.47200441699897,120.47200441699897,120.4800689583358,120.47200441699897,120.47200441699897,120.47263612499955,Incorrect! The correct answer is Speaker4. نادرست! پاسخ صحیح گوینده۴ است,0,1,1,1.880226709003182,None,120.47304366699973,120.48316991699903,122.46627504199932,122.49137179199897,,,,,,,,,,,,,,,,,,,,,,,,,,,,,837466,001,2024-07-02_11h40.26.096,5-31,2024.1.4,None,2024-07-02 11h40.31.753219 +0900,
Images/Speaker1.jpg,Images/Speaker2.jpg,Images/Speaker3.jpg,Images/Speaker4.jpg,Audio/Speaker4_En/P4-14-En.wav,Speaker4,گوینده۴,,,,,,,,0,0,0,19,0,35,35,73,,,,,122.49137179199897,,,,,,,,,,,,,,,,,,,,,,,,,,,,,,,,,,,,,,,,,,,,,122.4664823330022,122.49137179199897,122.49137179199897,122.49137179199897,122.49137179199897,122.49894208333401,122.49137179199897,122.49137179199897,122.4919946250011,Incorrect! The correct answer is Speaker4. نادرست! پاسخ صحیح گوینده۴ است,0,1,1,1.9858944579973468,None,122.4924288330003,122.50254129200039,124.49199149999913,124.51432029200078,,,,,,,,,,,,,,,,,,,,,,,,,,,,,837466,001,2024-07-02_11h40.26.096,5-31,2024.1.4,None,2024-07-02 11h40.31.753219 +0900,
Images/Speaker1.jpg,Images/Speaker2.jpg,Images/Speaker3.jpg,Images/Speaker4.jpg,Audio/Speaker4_En/P4-20-En.wav,Speaker4,گوینده۴,,,,,,,,0,0,0,19,0,36,36,79,,,,,124.51432029200078,,,,,,,,,,,,,,,,,,,,,,,,,,,,,,,,,,,,,,,,,,,,,124.49216933299977,124.51432029200078,124.51432029200078,124.51432029200078,124.51432029200078,124.50839208366621,124.51432029200078,124.51432029200078,124.64509262499996,Incorrect! The correct answer is Speaker4. نادرست! پاسخ صحیح گوینده۴ است,0,1,1,0.12217237499862676,None,124.6493211670022,124.65993658300067,126.64819487500063,126.67472366700167,,,,,,,,,,,,,,,,,,,,,,,,,,,,,837466,001,2024-07-02_11h40.26.096,5-31,2024.1.4,None,2024-07-02 11h40.31.753219 +0900,
Images/Speaker1.jpg,Images/Speaker2.jpg,Images/Speaker3.jpg,Images/Speaker4.jpg,Audio/Speaker3_En/P3-19-En.wav,Speaker3,گوینده۳,,,,,,,,0,0,0,19,0,37,37,58,,,,,126.67472366700167,,,,,,,,,,,,,,,,,,,,,,,,,,,,,,,,,,,,,,,,,,,,,126.64875829200173,126.67472366700167,126.67472366700167,126.67472366700167,126.67472366700167,126.6805265833323,126.67472366700167,126.67472366700167,126.81338416700237,Incorrect! The correct answer is Speaker3. نادرست! پاسخ صحیح گوینده۳ است,0,1,1,0.12860791600178345,None,126.81717691700032,126.82976870800121,128.8152086250011,128.83854812500067,,,,,,,,,,,,,,,,,,,,,,,,,,,,,837466,001,2024-07-02_11h40.26.096,5-31,2024.1.4,None,2024-07-02 11h40.31.753219 +0900,
Images/Speaker1.jpg,Images/Speaker2.jpg,Images/Speaker3.jpg,Images/Speaker4.jpg,Audio/Speaker4_En/P4-10-En.wav,Speaker4,گوینده۴,,,,,,,,0,0,0,19,0,38,38,69,,,,,128.83854812500067,,,,,,,,,,,,,,,,,,,,,,,,,,,,,,,,,,,,,,,,,,,,,128.81539520799925,128.83854812500067,128.83854812500067,128.83854812500067,128.83854812500067,128.84821866633553,128.83854812500067,128.83854812500067,128.83909425000093,Incorrect! The correct answer is Speaker4. نادرست! پاسخ صحیح گوینده۴ است,0,1,1,2.0410537910029234,None,128.839292208002,128.84912612500193,130.83313391699994,130.855139416999,,,,,,,,,,,,,,,,,,,,,,,,,,,,,837466,001,2024-07-02_11h40.26.096,5-31,2024.1.4,None,2024-07-02 11h40.31.753219 +0900,
Images/Speaker1.jpg,Images/Speaker2.jpg,Images/Speaker3.jpg,Images/Speaker4.jpg,Audio/Speaker4_En/P4-16-En.wav,Speaker4,گوینده۴,,,,,,,,0,0,0,19,0,39,39,75,,,,,130.855139416999,,,,,,,,,,,,,,,,,,,,,,,,,,,,,,,,,,,,,,,,,,,,,130.83331158299916,130.855139416999,130.855139416999,130.855139416999,130.855139416999,130.84960995866666,130.855139416999,130.855139416999,131.00144266700227,Incorrect! The correct answer is Speaker4. نادرست! پاسخ صحیح گوینده۴ است,0,1,1,0.1449404169979971,None,131.0053006670023,131.01811145800093,133.00820708299943,,,,,,,,,,,,,,,,,,,,,,,,,,,,,,837466,001,2024-07-02_11h40.26.096,5-31,2024.1.4,None,2024-07-02 11h40.31.753219 +0900,
Images/Speaker1.jpg,Images/Speaker2.jpg,Images/Speaker3.jpg,Images/Speaker4.jpg,Audio/Speaker2_En/P2-4-En.wav,Speaker2,گوینده۲,,,,,,,,0,0,0,19,0,40,40,23,,,,,133.03607162499975,,,,,,,,,,,,,,,,,,,,,,,,,,,,,,,,,,,,,,,,,,,,,133.00887716700163,133.03607162499975,133.03607162499975,133.03607162499975,133.03607162499975,133.04136454133237,133.03607162499975,133.03607162499975,133.08990679199997,Incorrect! The correct answer is Speaker2. نادرست! پاسخ صحیح گوینده۲ است,0,1,1,0.04880033300287323,None,133.0937245419991,133.1064096250011,135.09175287499966,135.1138812499994,,,,,,,,,,,,,,,,,,,,,,,,,,,,,837466,001,2024-07-02_11h40.26.096,5-31,2024.1.4,None,2024-07-02 11h40.31.753219 +0900,
Images/Speaker1.jpg,Images/Speaker2.jpg,Images/Speaker3.jpg,Images/Speaker4.jpg,Audio/Speaker1_En/P1-6-En.wav,Speaker1,گوینده ۱,,,,,,,,0,0,0,19,0,41,41,5,,,,,135.1138812499994,,,,,,,,,,,,,,,,,,,,,,,,,,,,,,,,,,,,,,,,,,,,,135.0919072079996,135.1138812499994,135.1138812499994,135.1138812499994,135.1138812499994,135.1081771246684,135.1138812499994,135.1138812499994,135.14581062499929,Correct! صحیح است,1,1,1,0.026657124999474036,None,135.14964495800086,135.16027416699944,137.15430220800044,,,,,,,,,,,,,,,,,,,,,,,,,,,,,,837466,001,2024-07-02_11h40.26.096,5-31,2024.1.4,None,2024-07-02 11h40.31.753219 +0900,
Images/Speaker1.jpg,Images/Speaker2.jpg,Images/Speaker3.jpg,Images/Speaker4.jpg,Audio/Speaker1_En/P1-13-En.wav,Speaker1,گوینده ۱,,,,,,,,0,0,0,19,0,42,42,12,,,,,137.17687187499905,,,,,,,,,,,,,,,,,,,,,,,,,,,,,,,,,,,,,,,,,,,,,137.15447108300214,137.17687187499905,137.17687187499905,137.17687187499905,137.17687187499905,137.1709293746683,137.17687187499905,137.17687187499905,137.1774218749997,Correct! صحیح است,1,1,1,2.0044585409996216,None,137.18154329200115,137.18914233300166,139.1728303330019,139.19756566700016,,,,,,,,,,,,,,,,,,,,,,,,,,,,,837466,001,2024-07-02_11h40.26.096,5-31,2024.1.4,None,2024-07-02 11h40.31.753219 +0900,
Images/Speaker1.jpg,Images/Speaker2.jpg,Images/Speaker3.jpg,Images/Speaker4.jpg,Audio/Speaker1_En/P1-1-En.wav,Speaker1,گوینده ۱,,,,,,,,0,0,0,19,0,43,43,0,,,,,139.19756566700016,,,,,,,,,,,,,,,,,,,,,,,,,,,,,,,,,,,,,,,,,,,,,139.17345816700254,139.19756566700016,139.19756566700016,139.19756566700016,139.19756566700016,139.20520733333302,139.19756566700016,139.19756566700016,139.33068712500244,Correct! صحیح است,1,1,1,0.1266482499995618,None,139.33438104200104,139.34503654199943,141.32908879200113,141.35186970799987,,,,,,,,,,,,,,,,,,,,,,,,,,,,,837466,001,2024-07-02_11h40.26.096,5-31,2024.1.4,None,2024-07-02 11h40.31.753219 +0900,
Images/Speaker1.jpg,Images/Speaker2.jpg,Images/Speaker3.jpg,Images/Speaker4.jpg,Audio/Speaker3_En/P3-8-En.wav,Speaker3,گوینده۳,,,,,,,,0,0,0,19,0,44,44,47,,,,,141.35186970799987,,,,,,,,,,,,,,,,,,,,,,,,,,,,,,,,,,,,,,,,,,,,,141.32925479199912,141.35186970799987,141.35186970799987,141.35186970799987,141.35186970799987,141.3455070836683,141.35186970799987,141.35186970799987,141.38884204200076,Incorrect! The correct answer is Speaker3. نادرست! پاسخ صحیح گوینده۳ است,0,1,1,0.024870165998436278,None,141.39252354199925,141.4051076249998,143.39030954199916,143.4159808330005,,,,,,,,,,,,,,,,,,,,,,,,,,,,,837466,001,2024-07-02_11h40.26.096,5-31,2024.1.4,None,2024-07-02 11h40.31.753219 +0900,
Images/Speaker1.jpg,Images/Speaker2.jpg,Images/Speaker3.jpg,Images/Speaker4.jpg,Audio/Speaker4_En/P4-18-En.wav,Speaker4,گوینده۴,,,,,,,,0,0,0,19,0,45,45,77,,,,,143.4159808330005,,,,,,,,,,,,,,,,,,,,,,,,,,,,,,,,,,,,,,,,,,,,,143.3909445419995,143.4159808330005,143.4159808330005,143.4159808330005,143.4159808330005,143.4227425003342,143.4159808330005,143.4159808330005,143.5212713330002,Incorrect! The correct answer is Speaker4. نادرست! پاسخ صحیح گوینده۴ است,0,1,1,0.09341912499803584,None,143.52538658300182,143.5384386250007,145.52266079200126,145.54454887500106,,,,,,,,,,,,,,,,,,,,,,,,,,,,,837466,001,2024-07-02_11h40.26.096,5-31,2024.1.4,None,2024-07-02 11h40.31.753219 +0900,
Images/Speaker1.jpg,Images/Speaker2.jpg,Images/Speaker3.jpg,Images/Speaker4.jpg,Audio/Speaker3_En/P3-17-En.wav,Speaker3,گوینده۳,,,,,,,,0,0,0,19,0,46,46,56,,,,,145.54454887500106,,,,,,,,,,,,,,,,,,,,,,,,,,,,,,,,,,,,,,,,,,,,,145.52285024999946,145.54454887500106,145.54454887500106,145.54454887500106,145.54454887500106,145.53907383366848,145.54454887500106,145.54454887500106,145.7205924580012,Incorrect! The correct answer is Speaker3. نادرست! پاسخ صحیح گوینده۳ است,0,1,1,0.17398904099900392,None,145.72443962500256,145.73678262500107,147.72481662499922,,,,,,,,,,,,,,,,,,,,,,,,,,,,,,837466,001,2024-07-02_11h40.26.096,5-31,2024.1.4,None,2024-07-02 11h40.31.753219 +0900,
Images/Speaker1.jpg,Images/Speaker2.jpg,Images/Speaker3.jpg,Images/Speaker4.jpg,Audio/Speaker2_En/P2-15-En.wav,Speaker2,گوینده۲,,,,,,,,0,0,0,19,0,47,47,34,,,,,147.747768792,,,,,,,,,,,,,,,,,,,,,,,,,,,,,,,,,,,,,,,,,,,,,147.72503312499975,147.747768792,147.747768792,147.747768792,147.747768792,147.74141074966636,147.747768792,147.747768792,147.88786979200086,Incorrect! The correct answer is Speaker2. نادرست! پاسخ صحیح گوینده۲ است,0,1,1,0.13874070900055813,None,147.89163550000012,147.90408229199966,149.89184933300203,,,,,,,,,,,,,,,,,,,,,,,,,,,,,,837466,001,2024-07-02_11h40.26.096,5-31,2024.1.4,None,2024-07-02 11h40.31.753219 +0900,
Images/Speaker1.jpg,Images/Speaker2.jpg,Images/Speaker3.jpg,Images/Speaker4.jpg,Audio/Speaker2_En/P2-11-En.wav,Speaker2,گوینده۲,,,,,,,,0,0,0,19,0,48,48,30,,,,,149.91519979200166,,,,,,,,,,,,,,,,,,,,,,,,,,,,,,,,,,,,,,,,,,,,,149.89201612500256,149.91519979200166,149.91519979200166,149.91519979200166,149.91519979200166,149.90847862466788,149.91519979200166,149.91519979200166,150.29752133299917,Incorrect! The correct answer is Speaker2. نادرست! پاسخ صحیح گوینده۲ است,0,1,1,0.3728389169991715,None,150.30157079200217,150.31391174999953,152.3018742919994,152.3286939999998,,,,,,,,,,,,,,,,,,,,,,,,,,,,,837466,001,2024-07-02_11h40.26.096,5-31,2024.1.4,None,2024-07-02 11h40.31.753219 +0900,
Images/Speaker1.jpg,Images/Speaker2.jpg,Images/Speaker3.jpg,Images/Speaker4.jpg,Audio/Speaker3_En/P3-6-En.wav,Speaker3,گوینده۳,,,,,,,,0,0,0,19,0,49,49,45,,,,,152.3286939999998,,,,,,,,,,,,,,,,,,,,,,,,,,,,,,,,,,,,,,,,,,,,,152.30282391700166,152.3286939999998,152.3286939999998,152.3286939999998,152.3286939999998,152.33423350033314,152.3286939999998,152.3286939999998,152.59993070800192,Incorrect! The correct answer is Speaker3. نادرست! پاسخ صحیح گوینده۳ است,0,1,1,0.26611495899851434,None,152.604137833001,152.61679033300243,154.60756862500057,,,,,,,,,,,,,,,,,,,,,,,,,,,,,,837466,001,2024-07-02_11h40.26.096,5-31,2024.1.4,None,2024-07-02 11h40.31.753219 +0900,
Images/Speaker1.jpg,Images/Speaker2.jpg,Images/Speaker3.jpg,Images/Speaker4.jpg,Audio/Speaker3_En/P3-20-En.wav,Speaker3,گوینده۳,,,,,,,,0,0,0,19,0,50,50,59,,,,,154.63519870800155,,,,,,,,,,,,,,,,,,,,,,,,,,,,,,,,,,,,,,,,,,,,,154.6082060000008,154.63519870800155,154.63519870800155,154.63519870800155,154.63519870800155,154.6407214163342,154.63519870800155,154.63519870800155,154.7626052500018,Incorrect! The correct answer is Speaker3. نادرست! پاسخ صحیح گوینده۳ است,0,1,1,0.12479220800014446,None,154.76664495799923,154.78029633299957,156.76594120799928,156.79306925000128,,,,,,,,,,,,,,,,,,,,,,,,,,,,,837466,001,2024-07-02_11h40.26.096,5-31,2024.1.4,None,2024-07-02 11h40.31.753219 +0900,
Images/Speaker1.jpg,Images/Speaker2.jpg,Images/Speaker3.jpg,Images/Speaker4.jpg,Audio/Speaker1_En/P1-8-En.wav,Speaker1,گوینده ۱,,,,,,,,0,0,0,19,0,51,51,7,,,,,156.79306925000128,,,,,,,,,,,,,,,,,,,,,,,,,,,,,,,,,,,,,,,,,,,,,156.76683649999904,156.79306925000128,156.79306925000128,156.79306925000128,156.79306925000128,156.79841591633573,156.79306925000128,156.79306925000128,156.8051022920008,Correct! صحیح است,1,1,1,0.007058416998916073,None,156.8088513750008,156.8197789170008,158.8037177920014,158.827398292,,,,,,,,,,,,,,,,,,,,,,,,,,,,,837466,001,2024-07-02_11h40.26.096,5-31,2024.1.4,None,2024-07-02 11h40.31.753219 +0900,
Images/Speaker1.jpg,Images/Speaker2.jpg,Images/Speaker3.jpg,Images/Speaker4.jpg,Audio/Speaker4_En/P4-1-En.wav,Speaker4,گوینده۴,,,,,,,,0,0,0,19,0,52,52,60,,,,,158.827398292,,,,,,,,,,,,,,,,,,,,,,,,,,,,,,,,,,,,,,,,,,,,,158.80390025000088,158.827398292,158.827398292,158.827398292,158.827398292,158.83677920833412,158.827398292,158.827398292,159.03941595799915,Incorrect! The correct answer is Speaker4. نادرست! پاسخ صحیح گوینده۴ است,0,1,1,0.20634587499807822,None,159.04324404200088,159.0559523330012,161.0408051250015,161.06386058299904,,,,,,,,,,,,,,,,,,,,,,,,,,,,,837466,001,2024-07-02_11h40.26.096,5-31,2024.1.4,None,2024-07-02 11h40.31.753219 +0900,
Images/Speaker1.jpg,Images/Speaker2.jpg,Images/Speaker3.jpg,Images/Speaker4.jpg,Audio/Speaker2_En/P2-2-En.wav,Speaker2,گوینده۲,,,,,,,,0,0,0,19,0,53,53,21,,,,,161.06386058299904,,,,,,,,,,,,,,,,,,,,,,,,,,,,,,,,,,,,,,,,,,,,,161.04097600000023,161.06386058299904,161.06386058299904,161.06386058299904,161.06386058299904,161.0739220413348,161.06386058299904,161.06386058299904,161.2535469579998,Incorrect! The correct answer is Speaker2. نادرست! پاسخ صحیح گوینده۲ است,0,1,1,0.18547399999806657,None,161.25730612500047,161.2697830420002,163.26333725000222,,,,,,,,,,,,,,,,,,,,,,,,,,,,,,837466,001,2024-07-02_11h40.26.096,5-31,2024.1.4,None,2024-07-02 11h40.31.753219 +0900,
Images/Speaker1.jpg,Images/Speaker2.jpg,Images/Speaker3.jpg,Images/Speaker4.jpg,Audio/Speaker2_En/P2-6-En.wav,Speaker2,گوینده۲,,,,,,,,0,0,0,19,0,54,54,25,,,,,163.28747637500055,,,,,,,,,,,,,,,,,,,,,,,,,,,,,,,,,,,,,,,,,,,,,163.26350770800127,163.28747637500055,163.28747637500055,163.28747637500055,163.28747637500055,163.29663554133418,163.28747637500055,163.28747637500055,163.48901537500205,Incorrect! The correct answer is Speaker2. نادرست! پاسخ صحیح گوینده۲ است,0,1,1,0.19598995900014415,None,163.49293770800068,163.50527375000092,165.5005060000003,,,,,,,,,,,,,,,,,,,,,,,,,,,,,,837466,001,2024-07-02_11h40.26.096,5-31,2024.1.4,None,2024-07-02 11h40.31.753219 +0900,
Images/Speaker1.jpg,Images/Speaker2.jpg,Images/Speaker3.jpg,Images/Speaker4.jpg,Audio/Speaker2_En/P2-14-En.wav,Speaker2,گوینده۲,,,,,,,,0,0,0,19,0,55,55,33,,,,,165.5232853330017,,,,,,,,,,,,,,,,,,,,,,,,,,,,,,,,,,,,,,,,,,,,,165.500681583002,165.5232853330017,165.5232853330017,165.5232853330017,165.5232853330017,165.51714012466644,165.5232853330017,165.5232853330017,165.58943562499917,Incorrect! The correct answer is Speaker2. نادرست! پاسخ صحیح گوینده۲ است,0,1,1,0.06515762499839184,None,165.59317995799938,165.6059067080023,167.59053516700078,167.61447274999955,,,,,,,,,,,,,,,,,,,,,,,,,,,,,837466,001,2024-07-02_11h40.26.096,5-31,2024.1.4,None,2024-07-02 11h40.31.753219 +0900,
Images/Speaker1.jpg,Images/Speaker2.jpg,Images/Speaker3.jpg,Images/Speaker4.jpg,Audio/Speaker1_En/P1-17-En.wav,Speaker1,گوینده ۱,,,,,,,,0,0,0,19,0,56,56,16,,,,,167.61447274999955,,,,,,,,,,,,,,,,,,,,,,,,,,,,,,,,,,,,,,,,,,,,,167.59112079199986,167.61447274999955,167.61447274999955,167.61447274999955,167.61447274999955,167.62298704133406,167.61447274999955,167.61447274999955,167.79821329200058,Correct! صحیح است,1,1,1,0.18217474999983096,None,167.80234179200124,167.81336604199896,169.79875512500075,169.82185675000073,,,,,,,,,,,,,,,,,,,,,,,,,,,,,837466,001,2024-07-02_11h40.26.096,5-31,2024.1.4,None,2024-07-02 11h40.31.753219 +0900,
Images/Speaker1.jpg,Images/Speaker2.jpg,Images/Speaker3.jpg,Images/Speaker4.jpg,Audio/Speaker1_En/P1-10-En.wav,Speaker1,گوینده ۱,,,,,,,,0,0,0,19,0,57,57,9,,,,,169.82185675000073,,,,,,,,,,,,,,,,,,,,,,,,,,,,,,,,,,,,,,,,,,,,,169.7989274169995,169.82185675000073,169.82185675000073,169.82185675000073,169.82185675000073,169.83185512533288,169.82185675000073,169.82185675000073,169.86045775000093,Correct! صحیح است,1,1,1,0.035382750000280794,None,169.8642294170022,169.87530720799987,171.86677104200135,,,,,,,,,,,,,,,,,,,,,,,,,,,,,,837466,001,2024-07-02_11h40.26.096,5-31,2024.1.4,None,2024-07-02 11h40.31.753219 +0900,
Images/Speaker1.jpg,Images/Speaker2.jpg,Images/Speaker3.jpg,Images/Speaker4.jpg,Audio/Speaker3_En/P3-4-En.wav,Speaker3,گوینده۳,,,,,,,,0,0,0,19,0,58,58,43,,,,,171.8941467500008,,,,,,,,,,,,,,,,,,,,,,,,,,,,,,,,,,,,,,,,,,,,,171.8674031670016,171.8941467500008,171.8941467500008,171.8941467500008,171.8941467500008,171.89991245833568,171.8941467500008,171.8941467500008,171.94367254200188,Incorrect! The correct answer is Speaker3. نادرست! پاسخ صحیح گوینده۳ است,0,1,1,0.04163979200166068,None,171.94769912500124,171.95789691699974,173.94756591700207,173.96987733300193,,,,,,,,,,,,,,,,,,,,,,,,,,,,,837466,001,2024-07-02_11h40.26.096,5-31,2024.1.4,None,2024-07-02 11h40.31.753219 +0900,
Images/Speaker1.jpg,Images/Speaker2.jpg,Images/Speaker3.jpg,Images/Speaker4.jpg,Audio/Speaker1_En/P1-18-En.wav,Speaker1,گوینده ۱,,,,,,,,0,0,0,19,0,59,59,17,,,,,173.96987733300193,,,,,,,,,,,,,,,,,,,,,,,,,,,,,,,,,,,,,,,,,,,,,173.94775816699985,173.96987733300193,173.96987733300193,173.96987733300193,173.96987733300193,173.96394754166639,173.96987733300193,173.96987733300193,174.10252429200045,Correct! صحیح است,1,1,1,0.13076549999823328,None,174.10642358300174,174.1172867919995,176.1003812500021,176.12348945800113,,,,,,,,,,,,,,,,,,,,,,,,,,,,,837466,001,2024-07-02_11h40.26.096,5-31,2024.1.4,None,2024-07-02 11h40.31.753219 +0900,
Images/Speaker1.jpg,Images/Speaker2.jpg,Images/Speaker3.jpg,Images/Speaker4.jpg,Audio/Speaker4_En/P4-7-En.wav,Speaker4,گوینده۴,,,,,,,,0,0,0,19,0,60,60,66,,,,,176.12348945800113,,,,,,,,,,,,,,,,,,,,,,,,,,,,,,,,,,,,,,,,,,,,,176.10055925000052,176.12348945800113,176.12348945800113,176.12348945800113,176.12348945800113,176.1335159583328,176.12348945800113,176.12348945800113,176.17775945800167,Incorrect! The correct answer is Speaker4. نادرست! پاسخ صحیح گوینده۴ است,0,1,1,0.050285290999454446,None,176.18204787500144,176.1949291250021,178.17819645800046,178.20268125000075,,,,,,,,,,,,,,,,,,,,,,,,,,,,,837466,001,2024-07-02_11h40.26.096,5-31,2024.1.4,None,2024-07-02 11h40.31.753219 +0900,
Images/Speaker1.jpg,Images/Speaker2.jpg,Images/Speaker3.jpg,Images/Speaker4.jpg,Audio/Speaker3_En/P3-5-En.wav,Speaker3,گوینده۳,,,,,,,,0,0,0,19,0,61,61,44,,,,,178.20268125000075,,,,,,,,,,,,,,,,,,,,,,,,,,,,,,,,,,,,,,,,,,,,,178.17837599999984,178.20268125000075,178.20268125000075,178.20268125000075,178.20268125000075,178.21117508333242,178.20268125000075,178.20268125000075,178.2032375000017,Incorrect! The correct answer is Speaker3. نادرست! پاسخ صحیح گوینده۳ است,0,1,1,2.013580999999249,None,178.20360262500253,178.21342566699968,180.19932620799955,180.2219960830007,,,,,,,,,,,,,,,,,,,,,,,,,,,,,837466,001,2024-07-02_11h40.26.096,5-31,2024.1.4,None,2024-07-02 11h40.31.753219 +0900,
Images/Speaker1.jpg,Images/Speaker2.jpg,Images/Speaker3.jpg,Images/Speaker4.jpg,Audio/Speaker2_En/P2-18-En.wav,Speaker2,گوینده۲,,,,,,,,0,0,0,19,0,62,62,37,,,,,180.2219960830007,,,,,,,,,,,,,,,,,,,,,,,,,,,,,,,,,,,,,,,,,,,,,180.19996937500036,180.2219960830007,180.2219960830007,180.2219960830007,180.2219960830007,180.23165029133503,180.2219960830007,180.2219960830007,180.22257141700175,Incorrect! The correct answer is Speaker2. نادرست! پاسخ صحیح گوینده۲ است,0,1,1,1.878992375000962,None,180.2229726250007,180.23297520800043,182.2189192500009,182.24104012500175,,,,,,,,,,,,,,,,,,,,,,,,,,,,,837466,001,2024-07-02_11h40.26.096,5-31,2024.1.4,None,2024-07-02 11h40.31.753219 +0900,
Images/Speaker1.jpg,Images/Speaker2.jpg,Images/Speaker3.jpg,Images/Speaker4.jpg,Audio/Speaker2_En/P2-3-En.wav,Speaker2,گوینده۲,,,,,,,,0,0,0,19,0,63,63,22,,,,,182.24104012500175,,,,,,,,,,,,,,,,,,,,,,,,,,,,,,,,,,,,,,,,,,,,,182.21910412500074,182.24104012500175,182.24104012500175,182.24104012500175,182.24104012500175,182.23537891666663,182.24104012500175,182.24104012500175,182.70415183300065,Incorrect! The correct answer is Speaker2. نادرست! پاسخ صحیح گوینده۲ است,0,1,1,0.4596603749996575,None,182.70836737500213,182.7209294580025,184.70673062499918,184.73233133300164,,,,,,,,,,,,,,,,,,,,,,,,,,,,,837466,001,2024-07-02_11h40.26.096,5-31,2024.1.4,None,2024-07-02 11h40.31.753219 +0900,
Images/Speaker1.jpg,Images/Speaker2.jpg,Images/Speaker3.jpg,Images/Speaker4.jpg,Audio/Speaker1_En/P1-16-En.wav,Speaker1,گوینده ۱,,,,,,,,0,0,0,19,0,64,64,15,,,,,184.73233133300164,,,,,,,,,,,,,,,,,,,,,,,,,,,,,,,,,,,,,,,,,,,,,184.7073317079994,184.73233133300164,184.73233133300164,184.73233133300164,184.73233133300164,184.73905304133274,184.73233133300164,184.73233133300164,184.7329823330001,Correct! صحیح است,1,1,1,2.3459289169986732,None,184.7333207920019,184.74287816700235,186.73710741700052,,,,,,,,,,,,,,,,,,,,,,,,,,,,,,837466,001,2024-07-02_11h40.26.096,5-31,2024.1.4,None,2024-07-02 11h40.31.753219 +0900,
Images/Speaker1.jpg,Images/Speaker2.jpg,Images/Speaker3.jpg,Images/Speaker4.jpg,Audio/Speaker2_En/P2-12-En.wav,Speaker2,گوینده۲,,,,,,,,0,0,0,19,0,65,65,31,,,,,186.7603240419994,,,,,,,,,,,,,,,,,,,,,,,,,,,,,,,,,,,,,,,,,,,,,186.73728270799984,186.7603240419994,186.7603240419994,186.7603240419994,186.7603240419994,186.75373579166651,186.7603240419994,186.7603240419994,187.1233358749996,Incorrect! The correct answer is Speaker2. نادرست! پاسخ صحیح گوینده۲ است,0,1,1,0.3501076659995306,None,187.1271290420009,187.13991650000025,189.12432958299905,189.14941833299963,,,,,,,,,,,,,,,,,,,,,,,,,,,,,837466,001,2024-07-02_11h40.26.096,5-31,2024.1.4,None,2024-07-02 11h40.31.753219 +0900,
Images/Speaker1.jpg,Images/Speaker2.jpg,Images/Speaker3.jpg,Images/Speaker4.jpg,Audio/Speaker3_En/P3-14-En.wav,Speaker3,گوینده۳,,,,,,,,0,0,0,19,0,66,66,53,,,,,189.14941833299963,,,,,,,,,,,,,,,,,,,,,,,,,,,,,,,,,,,,,,,,,,,,,189.12451987500026,189.14941833299963,189.14941833299963,189.14941833299963,189.14941833299963,189.15735850033576,189.14941833299963,189.14941833299963,189.56009704200187,Incorrect! The correct answer is Speaker3. نادرست! پاسخ صحیح گوینده۳ است,0,1,1,0.40398800000184565,None,189.5643374579995,189.5765711669992,191.56625474999964,,,,,,,,,,,,,,,,,,,,,,,,,,,,,,837466,001,2024-07-02_11h40.26.096,5-31,2024.1.4,None,2024-07-02 11h40.31.753219 +0900,
Images/Speaker1.jpg,Images/Speaker2.jpg,Images/Speaker3.jpg,Images/Speaker4.jpg,Audio/Speaker4_En/P4-3-En.wav,Speaker4,گوینده۴,,,,,,,,0,0,0,19,0,67,67,62,,,,,191.5882238330014,,,,,,,,,,,,,,,,,,,,,,,,,,,,,,,,,,,,,,,,,,,,,191.5664350420011,191.5882238330014,191.5882238330014,191.5882238330014,191.5882238330014,191.58288558366647,191.5882238330014,191.5882238330014,191.99554408300173,Incorrect! The correct answer is Speaker4. نادرست! پاسخ صحیح گوینده۴ است,0,1,1,0.4035323749994859,None,191.9993147080022,192.012087916999,193.99675862500226,194.0227652499998,,,,,,,,,,,,,,,,,,,,,,,,,,,,,837466,001,2024-07-02_11h40.26.096,5-31,2024.1.4,None,2024-07-02 11h40.31.753219 +0900,
Images/Speaker1.jpg,Images/Speaker2.jpg,Images/Speaker3.jpg,Images/Speaker4.jpg,Audio/Speaker2_En/P2-9-En.wav,Speaker2,گوینده۲,,,,,,,,0,0,0,19,0,68,68,28,,,,,194.0227652499998,,,,,,,,,,,,,,,,,,,,,,,,,,,,,,,,,,,,,,,,,,,,,193.99778616700132,194.0227652499998,194.0227652499998,194.0227652499998,194.0227652499998,194.02918600033496,194.0227652499998,194.0227652499998,194.08932070800074,Incorrect! The correct answer is Speaker2. نادرست! پاسخ صحیح گوینده۲ است,0,1,1,0.06334133299969835,None,194.09307033300138,194.10468162500183,196.09704820800107,,,,,,,,,,,,,,,,,,,,,,,,,,,,,,837466,001,2024-07-02_11h40.26.096,5-31,2024.1.4,None,2024-07-02 11h40.31.753219 +0900,
Images/Speaker1.jpg,Images/Speaker2.jpg,Images/Speaker3.jpg,Images/Speaker4.jpg,Audio/Speaker3_En/P3-13-En.wav,Speaker3,گوینده۳,,,,,,,,0,0,0,19,0,69,69,52,,,,,196.1221899580014,,,,,,,,,,,,,,,,,,,,,,,,,,,,,,,,,,,,,,,,,,,,,196.0977550000025,196.1221899580014,196.1221899580014,196.1221899580014,196.1221899580014,196.13023450033558,196.1221899580014,196.1221899580014,196.20508591700127,Incorrect! The correct answer is Speaker3. نادرست! پاسخ صحیح گوینده۳ است,0,1,1,0.07591120800134377,None,196.2090322920012,196.22147495800164,198.2049143330005,198.22755129200232,,,,,,,,,,,,,,,,,,,,,,,,,,,,,837466,001,2024-07-02_11h40.26.096,5-31,2024.1.4,None,2024-07-02 11h40.31.753219 +0900,
Images/Speaker1.jpg,Images/Speaker2.jpg,Images/Speaker3.jpg,Images/Speaker4.jpg,Audio/Speaker4_En/P4-17-En.wav,Speaker4,گوینده۴,,,,,,,,0,0,0,19,0,70,70,76,,,,,198.22755129200232,,,,,,,,,,,,,,,,,,,,,,,,,,,,,,,,,,,,,,,,,,,,,198.20508875000087,198.22755129200232,198.22755129200232,198.22755129200232,198.22755129200232,198.22133929166765,198.22755129200232,198.22755129200232,198.42338912500054,Incorrect! The correct answer is Speaker4. نادرست! پاسخ صحیح گوینده۴ است,0,1,1,0.19161995900140028,None,198.42743512500238,198.44036437500108,200.43232612499924,,,,,,,,,,,,,,,,,,,,,,,,,,,,,,837466,001,2024-07-02_11h40.26.096,5-31,2024.1.4,None,2024-07-02 11h40.31.753219 +0900,
Images/Speaker1.jpg,Images/Speaker2.jpg,Images/Speaker3.jpg,Images/Speaker4.jpg,Audio/Speaker4_En/P4-13-En.wav,Speaker4,گوینده۴,,,,,,,,0,0,0,19,0,71,71,72,,,,,200.45553854199898,,,,,,,,,,,,,,,,,,,,,,,,,,,,,,,,,,,,,,,,,,,,,200.43250945800173,200.45553854199898,200.45553854199898,200.45553854199898,200.45553854199898,200.44895254166866,200.45553854199898,200.45553854199898,200.6249202500003,Incorrect! The correct answer is Speaker4. نادرست! پاسخ صحیح گوینده۴ است,0,1,1,0.16025020900269737,None,200.62904929200158,200.64188650000142,202.6253475830017,202.6482430420001,,,,,,,,,,,,,,,,,,,,,,,,,,,,,837466,001,2024-07-02_11h40.26.096,5-31,2024.1.4,None,2024-07-02 11h40.31.753219 +0900,
Images/Speaker1.jpg,Images/Speaker2.jpg,Images/Speaker3.jpg,Images/Speaker4.jpg,Audio/Speaker2_En/P2-5-En.wav,Speaker2,گوینده۲,,,,,,,,0,0,0,19,0,72,72,24,,,,,202.6482430420001,,,,,,,,,,,,,,,,,,,,,,,,,,,,,,,,,,,,,,,,,,,,,202.62555404200248,202.6482430420001,202.6482430420001,202.6482430420001,202.6482430420001,202.64175041666775,202.6482430420001,202.6482430420001,202.70442874999935,Incorrect! The correct answer is Speaker2. نادرست! پاسخ صحیح گوینده۲ است,0,1,1,0.05180829200253356,None,202.70809758299947,202.72085887499998,204.7048521249999,204.72720541700255,,,,,,,,,,,,,,,,,,,,,,,,,,,,,837466,001,2024-07-02_11h40.26.096,5-31,2024.1.4,None,2024-07-02 11h40.31.753219 +0900,
Images/Speaker1.jpg,Images/Speaker2.jpg,Images/Speaker3.jpg,Images/Speaker4.jpg,Audio/Speaker3_En/P3-12-En.wav,Speaker3,گوینده۳,,,,,,,,0,0,0,19,0,73,73,51,,,,,204.72720541700255,,,,,,,,,,,,,,,,,,,,,,,,,,,,,,,,,,,,,,,,,,,,,204.7050057080014,204.72720541700255,204.72720541700255,204.72720541700255,204.72720541700255,204.72126349966882,204.72720541700255,204.72720541700255,204.83716762499898,Incorrect! The correct answer is Speaker3. نادرست! پاسخ صحیح گوینده۳ است,0,1,1,0.09928158299953793,None,204.84126362499956,204.85393662500064,206.8415652500007,,,,,,,,,,,,,,,,,,,,,,,,,,,,,,837466,001,2024-07-02_11h40.26.096,5-31,2024.1.4,None,2024-07-02 11h40.31.753219 +0900,
Images/Speaker1.jpg,Images/Speaker2.jpg,Images/Speaker3.jpg,Images/Speaker4.jpg,Audio/Speaker2_En/P2-19-En.wav,Speaker2,گوینده۲,,,,,,,,0,0,0,19,0,74,74,38,,,,,206.86941520800247,,,,,,,,,,,,,,,,,,,,,,,,,,,,,,,,,,,,,,,,,,,,,206.84228837499904,206.86941520800247,206.86941520800247,206.86941520800247,206.86941520800247,206.87472308333287,206.86941520800247,206.86941520800247,206.89541350000218,Incorrect! The correct answer is Speaker2. نادرست! پاسخ صحیح گوینده۲ است,0,1,1,0.024372209001739975,None,206.89937137500237,206.91198629200153,208.90567004200057,,,,,,,,,,,,,,,,,,,,,,,,,,,,,,837466,001,2024-07-02_11h40.26.096,5-31,2024.1.4,None,2024-07-02 11h40.31.753219 +0900,
Images/Speaker1.jpg,Images/Speaker2.jpg,Images/Speaker3.jpg,Images/Speaker4.jpg,Audio/Speaker2_En/P2-1-En.wav,Speaker2,گوینده۲,,,,,,,,0,0,0,19,0,75,75,20,,,,,208.9301703750025,,,,,,,,,,,,,,,,,,,,,,,,,,,,,,,,,,,,,,,,,,,,,208.90633208299914,208.9301703750025,208.9301703750025,208.9301703750025,208.9301703750025,208.93884295833465,208.9301703750025,208.9301703750025,209.00112916700164,Incorrect! The correct answer is Speaker2. نادرست! پاسخ صحیح گوینده۲ است,0,1,1,0.06975466600124491,None,209.00531866700112,209.0182175000009,211.00175662499896,211.02617275000011,,,,,,,,,,,,,,,,,,,,,,,,,,,,,837466,001,2024-07-02_11h40.26.096,5-31,2024.1.4,None,2024-07-02 11h40.31.753219 +0900,
Images/Speaker1.jpg,Images/Speaker2.jpg,Images/Speaker3.jpg,Images/Speaker4.jpg,Audio/Speaker1_En/P1-2-En.wav,Speaker1,گوینده ۱,,,,,,,,0,0,0,19,0,76,76,1,,,,,211.02617275000011,,,,,,,,,,,,,,,,,,,,,,,,,,,,,,,,,,,,,,,,,,,,,211.00276350000058,211.02617275000011,211.02617275000011,211.02617275000011,211.02617275000011,211.03418020833539,211.02617275000011,211.02617275000011,211.08019500000228,Correct! صحیح است,1,1,1,0.04283616600150708,None,211.08411754199915,211.094874041999,213.08781504199942,,,,,,,,,,,,,,,,,,,,,,,,,,,,,,837466,001,2024-07-02_11h40.26.096,5-31,2024.1.4,None,2024-07-02 11h40.31.753219 +0900,
Images/Speaker1.jpg,Images/Speaker2.jpg,Images/Speaker3.jpg,Images/Speaker4.jpg,Audio/Speaker3_En/P3-2-En.wav,Speaker3,گوینده۳,,,,,,,,0,0,0,19,0,77,77,41,,,,,213.11425912499908,,,,,,,,,,,,,,,,,,,,,,,,,,,,,,,,,,,,,,,,,,,,,213.08816512500198,213.11425912499908,213.11425912499908,213.11425912499908,213.11425912499908,213.12111700033398,213.11425912499908,213.11425912499908,213.2719603330006,Incorrect! The correct answer is Speaker3. نادرست! پاسخ صحیح گوینده۳ است,0,1,1,0.14937320800163434,None,213.27569170800052,213.28830604199902,215.27597066700037,,,,,,,,,,,,,,,,,,,,,,,,,,,,,,837466,001,2024-07-02_11h40.26.096,5-31,2024.1.4,None,2024-07-02 11h40.31.753219 +0900,
Images/Speaker1.jpg,Images/Speaker2.jpg,Images/Speaker3.jpg,Images/Speaker4.jpg,Audio/Speaker3_En/P3-7-En.wav,Speaker3,گوینده۳,,,,,,,,0,0,0,19,0,78,78,46,,,,,215.29851695800244,,,,,,,,,,,,,,,,,,,,,,,,,,,,,,,,,,,,,,,,,,,,,215.27614379200168,215.29851695800244,215.29851695800244,215.29851695800244,215.29851695800244,215.29260145866672,215.29851695800244,215.29851695800244,215.34753958299916,Incorrect! The correct answer is Speaker3. نادرست! پاسخ صحیح گوینده۳ است,0,1,1,0.04607212499831803,None,215.35129770799904,215.36319466699933,217.34673416700025,217.36863079199975,,,,,,,,,,,,,,,,,,,,,,,,,,,,,837466,001,2024-07-02_11h40.26.096,5-31,2024.1.4,None,2024-07-02 11h40.31.753219 +0900,
Images/Speaker1.jpg,Images/Speaker2.jpg,Images/Speaker3.jpg,Images/Speaker4.jpg,Audio/Speaker2_En/P2-8-En.wav,Speaker2,گوینده۲,,,,,,,,0,0,0,19,0,79,79,27,,,,,217.36863079199975,,,,,,,,,,,,,,,,,,,,,,,,,,,,,,,,,,,,,,,,,,,,,217.34690633300124,217.36863079199975,217.36863079199975,217.36863079199975,217.36863079199975,217.36317749966864,217.36863079199975,217.36863079199975,217.78535304199977,Incorrect! The correct answer is Speaker2. نادرست! پاسخ صحیح گوینده۲ است,0,1,1,0.40218429200103856,None,217.7891941250018,217.8021008329997,219.7929249580011,,,,,,,,,,,,,,,,,,,,,,,,,,,,,,837466,001,2024-07-02_11h40.26.096,5-31,2024.1.4,None,2024-07-02 11h40.31.753219 +0900,
Images/Speaker1.jpg,Images/Speaker2.jpg,Images/Speaker3.jpg,Images/Speaker4.jpg,Audio/Speaker1_En/P1-20-En.wav,Speaker1,گوینده ۱,,,,,,,,0,0,0,19,,,,,,,,,,,,,,,,,,,,,,,,,,,,,,,,,,,,,,,,,,,,,,,,,,,,,,,,,,,,,,,,,,,,,,,,,219.79317758300022,0.0,False,219.7940750000016,,,,,,,,,,,,,,,,,,,,,,,,,837466,001,2024-07-02_11h40.26.096,5-31,2024.1.4,None,2024-07-02 11h40.31.753219 +0900,
Images/Speaker1.jpg,Images/Speaker2.jpg,Images/Speaker3.jpg,Images/Speaker4.jpg,Audio/Speaker4_En/P4-3-En.wav,Speaker4,گوینده۴,,,,,,,,0,1,1,38,0,0,0,62,,,,,219.8371174999993,,,,,,,,,,,,,,,,,,,,,,,,,,,,,,,,,,,,,,,,,,,,,219.81661604200053,219.8371174999993,219.8371174999993,219.8371174999993,219.8371174999993,219.84274791699937,219.8371174999993,219.8371174999993,225.54464520799957,Correct! صحیح است,1,1,4,5.695544207999774,None,225.54514770800233,225.55649279200225,227.54364637500112,227.56512875000044,,,,,,,,,,,,,,,,,,,,,,,,,,,,,837466,001,2024-07-02_11h40.26.096,5-31,2024.1.4,None,2024-07-02 11h40.31.753219 +0900,
Images/Speaker1.jpg,Images/Speaker2.jpg,Images/Speaker3.jpg,Images/Speaker4.jpg,Audio/Speaker1_En/P1-16-En.wav,Speaker1,گوینده ۱,,,,,,,,0,1,1,38,0,1,1,15,,,,,227.56512875000044,,,,,,,,,,,,,,,,,,,,,,,,,,,,,,,,,,,,,,,,,,,,,227.54383208299987,227.56512875000044,227.56512875000044,227.56512875000044,227.56512875000044,227.56009466666754,227.56512875000044,227.56512875000044,231.62910395799918,Correct! صحیح است,1,1,1,4.05824924999979,None,231.62932345800073,231.64059820799957,233.62712054200165,233.648379708,,,,,,,,,,,,,,,,,,,,,,,,,,,,,837466,001,2024-07-02_11h40.26.096,5-31,2024.1.4,None,2024-07-02 11h40.31.753219 +0900,
Images/Speaker1.jpg,Images/Speaker2.jpg,Images/Speaker3.jpg,Images/Speaker4.jpg,Audio/Speaker1_En/P1-7-En.wav,Speaker1,گوینده ۱,,,,,,,,0,1,1,38,0,2,2,6,,,,,233.648379708,,,,,,,,,,,,,,,,,,,,,,,,,,,,,,,,,,,,,,,,,,,,,233.6273065000023,233.648379708,233.648379708,233.648379708,233.648379708,233.64357374966883,233.648379708,233.648379708,235.15372495799966,Correct! صحیح است,1,1,1,1.496739250000246,None,235.15797137499976,235.1673936670013,237.15560762500172,237.17705987500085,,,,,,,,,,,,,,,,,,,,,,,,,,,,,837466,001,2024-07-02_11h40.26.096,5-31,2024.1.4,None,2024-07-02 11h40.31.753219 +0900,
Images/Speaker1.jpg,Images/Speaker2.jpg,Images/Speaker3.jpg,Images/Speaker4.jpg,Audio/Speaker1_En/P1-15-En.wav,Speaker1,گوینده ۱,,,,,,,,0,1,1,38,0,3,3,14,,,,,237.17705987500085,,,,,,,,,,,,,,,,,,,,,,,,,,,,,,,,,,,,,,,,,,,,,237.1558217919992,237.17705987500085,237.17705987500085,237.17705987500085,237.17705987500085,237.17205866666725,237.17705987500085,237.17705987500085,238.44798187500055,Correct! صحیح است,1,1,1,1.2692093749974447,None,238.4527218330004,238.46499058300105,240.4529839579991,,,,,,,,,,,,,,,,,,,,,,,,,,,,,,837466,001,2024-07-02_11h40.26.096,5-31,2024.1.4,None,2024-07-02 11h40.31.753219 +0900,
Images/Speaker1.jpg,Images/Speaker2.jpg,Images/Speaker3.jpg,Images/Speaker4.jpg,Audio/Speaker2_En/P2-14-En.wav,Speaker2,گوینده۲,,,,,,,,0,1,1,38,0,4,4,33,,,,,240.47389250000197,,,,,,,,,,,,,,,,,,,,,,,,,,,,,,,,,,,,,,,,,,,,,240.4531918749999,240.47389250000197,240.47389250000197,240.47389250000197,240.47389250000197,240.4695913336657,240.47389250000197,240.47389250000197,241.4973393750006,Correct! صحیح است,1,1,2,1.0177533330024744,None,241.5011325830019,241.51198654200198,243.50126929199905,243.5269953749994,,,,,,,,,,,,,,,,,,,,,,,,,,,,,837466,001,2024-07-02_11h40.26.096,5-31,2024.1.4,None,2024-07-02 11h40.31.753219 +0900,
Images/Speaker1.jpg,Images/Speaker2.jpg,Images/Speaker3.jpg,Images/Speaker4.jpg,Audio/Speaker1_En/P1-12-En.wav,Speaker1,گوینده ۱,,,,,,,,0,1,1,38,0,5,5,11,,,,,243.5269953749994,,,,,,,,,,,,,,,,,,,,,,,,,,,,,,,,,,,,,,,,,,,,,243.50225050000154,243.5269953749994,243.5269953749994,243.5269953749994,243.5269953749994,243.53361975033528,243.5269953749994,243.5269953749994,245.62830600000234,Correct! صحیح است,1,1,1,2.0967593749992375,None,245.6322227080018,245.64389691700126,247.62959866700112,247.65121479200025,,,,,,,,,,,,,,,,,,,,,,,,,,,,,837466,001,2024-07-02_11h40.26.096,5-31,2024.1.4,None,2024-07-02 11h40.31.753219 +0900,
Images/Speaker1.jpg,Images/Speaker2.jpg,Images/Speaker3.jpg,Images/Speaker4.jpg,Audio/Speaker2_En/P2-2-En.wav,Speaker2,گوینده۲,,,,,,,,0,1,1,38,0,6,6,21,,,,,247.65121479200025,,,,,,,,,,,,,,,,,,,,,,,,,,,,,,,,,,,,,,,,,,,,,247.629778292001,247.65121479200025,247.65121479200025,247.65121479200025,247.65121479200025,247.64599020866834,247.65121479200025,247.65121479200025,248.7706821669999,Correct! صحیح است,1,1,2,1.1145602080032404,None,248.77534429200023,248.78715566699975,250.77848458299923,,,,,,,,,,,,,,,,,,,,,,,,,,,,,,837466,001,2024-07-02_11h40.26.096,5-31,2024.1.4,None,2024-07-02 11h40.31.753219 +0900,
Images/Speaker1.jpg,Images/Speaker2.jpg,Images/Speaker3.jpg,Images/Speaker4.jpg,Audio/Speaker1_En/P1-5-En.wav,Speaker1,گوینده ۱,,,,,,,,0,1,1,38,0,7,7,4,,,,,250.79993537500195,,,,,,,,,,,,,,,,,,,,,,,,,,,,,,,,,,,,,,,,,,,,,250.77867474999948,250.79993537500195,250.79993537500195,250.79993537500195,250.79993537500195,250.79511137466787,250.79993537500195,250.79993537500195,252.25186420799946,Correct! صحیح است,1,1,1,1.4506545420008479,None,252.2558887080013,252.26720733299953,254.25304225000218,254.2733635830009,,,,,,,,,,,,,,,,,,,,,,,,,,,,,837466,001,2024-07-02_11h40.26.096,5-31,2024.1.4,None,2024-07-02 11h40.31.753219 +0900,
Images/Speaker1.jpg,Images/Speaker2.jpg,Images/Speaker3.jpg,Images/Speaker4.jpg,Audio/Speaker4_En/P4-12-En.wav,Speaker4,گوینده۴,,,,,,,,0,1,1,38,0,8,8,71,,,,,254.2733635830009,,,,,,,,,,,,,,,,,,,,,,,,,,,,,,,,,,,,,,,,,,,,,254.25323112499973,254.2733635830009,254.2733635830009,254.2733635830009,254.2733635830009,254.26945120866756,254.2733635830009,254.2733635830009,255.96351587500249,Correct! صحیح است,1,1,4,1.6820327499990526,None,255.967464207999,255.97860091700204,257.9647333749999,257.98930441700213,,,,,,,,,,,,,,,,,,,,,,,,,,,,,837466,001,2024-07-02_11h40.26.096,5-31,2024.1.4,None,2024-07-02 11h40.31.753219 +0900,
Images/Speaker1.jpg,Images/Speaker2.jpg,Images/Speaker3.jpg,Images/Speaker4.jpg,Audio/Speaker2_En/P2-7-En.wav,Speaker2,گوینده۲,,,,,,,,0,1,1,38,0,9,9,26,,,,,257.98930441700213,,,,,,,,,,,,,,,,,,,,,,,,,,,,,,,,,,,,,,,,,,,,,257.96532491700054,257.98930441700213,257.98930441700213,257.98930441700213,257.98930441700213,257.99717845833266,257.98930441700213,257.98930441700213,259.1995705420013,Correct! صحیح است,1,1,2,1.2003624999997555,None,259.20372983299967,259.212604291999,261.19960379199983,261.22063183299906,,,,,,,,,,,,,,,,,,,,,,,,,,,,,837466,001,2024-07-02_11h40.26.096,5-31,2024.1.4,None,2024-07-02 11h40.31.753219 +0900,
Images/Speaker1.jpg,Images/Speaker2.jpg,Images/Speaker3.jpg,Images/Speaker4.jpg,Audio/Speaker2_En/P2-20-En.wav,Speaker2,گوینده۲,,,,,,,,0,1,1,38,0,10,10,39,,,,,261.22063183299906,,,,,,,,,,,,,,,,,,,,,,,,,,,,,,,,,,,,,,,,,,,,,261.1998051670016,261.22063183299906,261.22063183299906,261.22063183299906,261.22063183299906,261.21604258366665,261.22063183299906,261.22063183299906,262.43906250000146,Correct! صحیح است,1,1,2,1.2079515410005115,None,262.44312679200084,262.45463091700003,264.4474848329992,,,,,,,,,,,,,,,,,,,,,,,,,,,,,,837466,001,2024-07-02_11h40.26.096,5-31,2024.1.4,None,2024-07-02 11h40.31.753219 +0900,
Images/Speaker1.jpg,Images/Speaker2.jpg,Images/Speaker3.jpg,Images/Speaker4.jpg,Audio/Speaker3_En/P3-4-En.wav,Speaker3,گوینده۳,,,,,,,,0,1,1,38,0,11,11,43,,,,,264.47237145799954,,,,,,,,,,,,,,,,,,,,,,,,,,,,,,,,,,,,,,,,,,,,,264.44819670799916,264.47237145799954,264.47237145799954,264.47237145799954,264.47237145799954,264.4806662083324,264.47237145799954,264.47237145799954,266.5778168750003,Correct! صحیح است,1,1,3,2.096291875001043,None,266.5819072080012,266.5912035830006,268.5763051670001,268.59662625000055,,,,,,,,,,,,,,,,,,,,,,,,,,,,,837466,001,2024-07-02_11h40.26.096,5-31,2024.1.4,None,2024-07-02 11h40.31.753219 +0900,
Images/Speaker1.jpg,Images/Speaker2.jpg,Images/Speaker3.jpg,Images/Speaker4.jpg,Audio/Speaker2_En/P2-19-En.wav,Speaker2,گوینده۲,,,,,,,,0,1,1,38,0,12,12,38,,,,,268.59662625000055,,,,,,,,,,,,,,,,,,,,,,,,,,,,,,,,,,,,,,,,,,,,,268.5764917080014,268.59662625000055,268.59662625000055,268.59662625000055,268.59662625000055,268.59270674966706,268.59662625000055,268.59662625000055,269.94567050000114,Correct! صحیح است,1,1,2,1.3432270840021374,None,269.94938233300127,269.96118554200075,271.9456121250005,271.96848150000005,,,,,,,,,,,,,,,,,,,,,,,,,,,,,837466,001,2024-07-02_11h40.26.096,5-31,2024.1.4,None,2024-07-02 11h40.31.753219 +0900,
Images/Speaker1.jpg,Images/Speaker2.jpg,Images/Speaker3.jpg,Images/Speaker4.jpg,Audio/Speaker4_En/P4-16-En.wav,Speaker4,گوینده۴,,,,,,,,0,1,1,38,0,13,13,75,,,,,271.96848150000005,,,,,,,,,,,,,,,,,,,,,,,,,,,,,,,,,,,,,,,,,,,,,271.9464322919994,271.96848150000005,271.96848150000005,271.96848150000005,271.96848150000005,271.97797458333343,271.96848150000005,271.96848150000005,273.5679714580001,Correct! صحیح است,1,1,4,1.5981573749995732,None,273.5719155830011,273.5832242079996,275.5750272920013,,,,,,,,,,,,,,,,,,,,,,,,,,,,,,837466,001,2024-07-02_11h40.26.096,5-31,2024.1.4,None,2024-07-02 11h40.31.753219 +0900,
Images/Speaker1.jpg,Images/Speaker2.jpg,Images/Speaker3.jpg,Images/Speaker4.jpg,Audio/Speaker3_En/P3-15-En.wav,Speaker3,گوینده۳,,,,,,,,0,1,1,38,0,14,14,54,,,,,275.5966749170002,,,,,,,,,,,,,,,,,,,,,,,,,,,,,,,,,,,,,,,,,,,,,275.5752217500012,275.5966749170002,275.5966749170002,275.5966749170002,275.5966749170002,275.59165229166706,275.5966749170002,275.5966749170002,277.3386797500025,Correct! صحیح است,1,1,3,1.73988320799981,None,277.34288345800087,277.3542684580025,279.3397697500004,279.3624841250021,,,,,,,,,,,,,,,,,,,,,,,,,,,,,837466,001,2024-07-02_11h40.26.096,5-31,2024.1.4,None,2024-07-02 11h40.31.753219 +0900,
Images/Speaker1.jpg,Images/Speaker2.jpg,Images/Speaker3.jpg,Images/Speaker4.jpg,Audio/Speaker3_En/P3-14-En.wav,Speaker3,گوینده۳,,,,,,,,0,1,1,38,0,15,15,53,,,,,279.3624841250021,,,,,,,,,,,,,,,,,,,,,,,,,,,,,,,,,,,,,,,,,,,,,279.33996104200196,279.3624841250021,279.3624841250021,279.3624841250021,279.3624841250021,279.35611341666686,279.3624841250021,279.3624841250021,280.72237920800035,Correct! صحیح است,1,1,3,1.3581396660010796,None,280.7266572080007,280.73830533300134,282.7304823750019,,,,,,,,,,,,,,,,,,,,,,,,,,,,,,837466,001,2024-07-02_11h40.26.096,5-31,2024.1.4,None,2024-07-02 11h40.31.753219 +0900,
Images/Speaker1.jpg,Images/Speaker2.jpg,Images/Speaker3.jpg,Images/Speaker4.jpg,Audio/Speaker3_En/P3-11-En.wav,Speaker3,گوینده۳,,,,,,,,0,1,1,38,0,16,16,50,,,,,282.7551057080018,,,,,,,,,,,,,,,,,,,,,,,,,,,,,,,,,,,,,,,,,,,,,282.73064437500216,282.7551057080018,282.7551057080018,282.7551057080018,282.7551057080018,282.76378500033434,282.7551057080018,282.7551057080018,284.13064287499947,Correct! صحیح است,1,1,3,1.3745006669996656,None,284.1344717920001,284.1454312499991,286.13046062500143,286.151079416999,,,,,,,,,,,,,,,,,,,,,,,,,,,,,837466,001,2024-07-02_11h40.26.096,5-31,2024.1.4,None,2024-07-02 11h40.31.753219 +0900,
Images/Speaker1.jpg,Images/Speaker2.jpg,Images/Speaker3.jpg,Images/Speaker4.jpg,Audio/Speaker3_En/P3-1-En.wav,Speaker3,گوینده۳,,,,,,,,0,1,1,38,0,17,17,40,,,,,286.151079416999,,,,,,,,,,,,,,,,,,,,,,,,,,,,,,,,,,,,,,,,,,,,,286.1306373330008,286.151079416999,286.151079416999,286.151079416999,286.151079416999,286.14691270866774,286.151079416999,286.151079416999,287.5545240829997,Correct! صحیح است,1,1,3,1.401051249999,None,287.55844629200146,287.57038979199933,289.5567699580024,289.580383667002,,,,,,,,,,,,,,,,,,,,,,,,,,,,,837466,001,2024-07-02_11h40.26.096,5-31,2024.1.4,None,2024-07-02 11h40.31.753219 +0900,
Images/Speaker1.jpg,Images/Speaker2.jpg,Images/Speaker3.jpg,Images/Speaker4.jpg,Audio/Speaker4_En/P4-8-En.wav,Speaker4,گوینده۴,,,,,,,,0,1,1,38,0,18,18,67,,,,,289.580383667002,,,,,,,,,,,,,,,,,,,,,,,,,,,,,,,,,,,,,,,,,,,,,289.5573981250018,289.580383667002,289.580383667002,289.580383667002,289.580383667002,289.5891290003351,289.580383667002,289.580383667002,291.0643244999992,Correct! صحیح است,1,1,4,1.482255291997717,None,291.06859800000166,291.07999112499965,293.0628992500024,293.0833590830007,,,,,,,,,,,,,,,,,,,,,,,,,,,,,837466,001,2024-07-02_11h40.26.096,5-31,2024.1.4,None,2024-07-02 11h40.31.753219 +0900,
Images/Speaker1.jpg,Images/Speaker2.jpg,Images/Speaker3.jpg,Images/Speaker4.jpg,Audio/Speaker3_En/P3-20-En.wav,Speaker3,گوینده۳,,,,,,,,0,1,1,38,0,19,19,59,,,,,293.0833590830007,,,,,,,,,,,,,,,,,,,,,,,,,,,,,,,,,,,,,,,,,,,,,293.0630785829999,293.0833590830007,293.0833590830007,293.0833590830007,293.0833590830007,293.0792720416687,293.0833590830007,293.0833590830007,295.02866450000147,Correct! صحیح است,1,1,3,1.9438279169989983,None,295.03362345799906,295.04687866699896,297.03378362500007,297.05557150000095,,,,,,,,,,,,,,,,,,,,,,,,,,,,,837466,001,2024-07-02_11h40.26.096,5-31,2024.1.4,None,2024-07-02 11h40.31.753219 +0900,
Images/Speaker1.jpg,Images/Speaker2.jpg,Images/Speaker3.jpg,Images/Speaker4.jpg,Audio/Speaker3_En/P3-12-En.wav,Speaker3,گوینده۳,,,,,,,,0,1,1,38,0,20,20,51,,,,,297.05557150000095,,,,,,,,,,,,,,,,,,,,,,,,,,,,,,,,,,,,,,,,,,,,,297.0339560419998,297.05557150000095,297.05557150000095,297.05557150000095,297.05557150000095,297.05012337466565,297.05557150000095,297.05557150000095,298.8054246669999,Correct! صحیح است,1,1,3,1.7484972089987423,None,298.8095386669993,298.82071508300214,300.80904612499944,300.8302985830014,,,,,,,,,,,,,,,,,,,,,,,,,,,,,837466,001,2024-07-02_11h40.26.096,5-31,2024.1.4,None,2024-07-02 11h40.31.753219 +0900,
Images/Speaker1.jpg,Images/Speaker2.jpg,Images/Speaker3.jpg,Images/Speaker4.jpg,Audio/Speaker1_En/P1-19-En.wav,Speaker1,گوینده ۱,,,,,,,,0,1,1,38,0,21,21,18,,,,,300.8302985830014,,,,,,,,,,,,,,,,,,,,,,,,,,,,,,,,,,,,,,,,,,,,,300.8092309170024,300.8302985830014,300.8302985830014,300.8302985830014,300.8302985830014,300.8254292496679,300.8302985830014,300.8302985830014,302.0233259170018,Correct! صحیح است,1,1,1,1.1813703750012792,None,302.0278414170025,302.04036183300195,304.0261330829999,304.0465838750024,,,,,,,,,,,,,,,,,,,,,,,,,,,,,837466,001,2024-07-02_11h40.26.096,5-31,2024.1.4,None,2024-07-02 11h40.31.753219 +0900,
Images/Speaker1.jpg,Images/Speaker2.jpg,Images/Speaker3.jpg,Images/Speaker4.jpg,Audio/Speaker1_En/P1-9-En.wav,Speaker1,گوینده ۱,,,,,,,,0,1,1,38,0,22,22,8,,,,,304.0465838750024,,,,,,,,,,,,,,,,,,,,,,,,,,,,,,,,,,,,,,,,,,,,,304.02633337500083,304.0465838750024,304.0465838750024,304.0465838750024,304.0465838750024,304.04257466666627,304.0465838750024,304.0465838750024,305.5016436250007,Correct! صحیح است,1,1,1,1.4522159580010339,None,305.5055192079999,305.51699841700247,307.5005534580014,307.5244914169998,,,,,,,,,,,,,,,,,,,,,,,,,,,,,837466,001,2024-07-02_11h40.26.096,5-31,2024.1.4,None,2024-07-02 11h40.31.753219 +0900,
Images/Speaker1.jpg,Images/Speaker2.jpg,Images/Speaker3.jpg,Images/Speaker4.jpg,Audio/Speaker3_En/P3-6-En.wav,Speaker3,گوینده۳,,,,,,,,0,1,1,38,0,23,23,45,,,,,307.5244914169998,,,,,,,,,,,,,,,,,,,,,,,,,,,,,,,,,,,,,,,,,,,,,307.5015847499999,307.5244914169998,307.5244914169998,307.5244914169998,307.5244914169998,307.53281883333375,307.5244914169998,307.5244914169998,308.86345520800023,Correct! صحیح است,1,1,3,1.3320972080000502,None,308.8677204580017,308.87915491700187,310.86607233299947,310.8859834169998,,,,,,,,,,,,,,,,,,,,,,,,,,,,,837466,001,2024-07-02_11h40.26.096,5-31,2024.1.4,None,2024-07-02 11h40.31.753219 +0900,
Images/Speaker1.jpg,Images/Speaker2.jpg,Images/Speaker3.jpg,Images/Speaker4.jpg,Audio/Speaker3_En/P3-3-En.wav,Speaker3,گوینده۳,,,,,,,,0,1,1,38,0,24,24,42,,,,,310.8859834169998,,,,,,,,,,,,,,,,,,,,,,,,,,,,,,,,,,,,,,,,,,,,,310.8662311250009,310.8859834169998,310.8859834169998,310.8859834169998,310.8859834169998,310.8824718336657,310.8859834169998,310.8859834169998,312.292282917002,Correct! صحیح است,1,1,3,1.4049595420001424,None,312.2961791250018,312.3086074999992,314.2912266250023,314.3122500829995,,,,,,,,,,,,,,,,,,,,,,,,,,,,,837466,001,2024-07-02_11h40.26.096,5-31,2024.1.4,None,2024-07-02 11h40.31.753219 +0900,
Images/Speaker1.jpg,Images/Speaker2.jpg,Images/Speaker3.jpg,Images/Speaker4.jpg,Audio/Speaker1_En/P1-10-En.wav,Speaker1,گوینده ۱,,,,,,,,0,1,1,38,0,25,25,9,,,,,314.3122500829995,,,,,,,,,,,,,,,,,,,,,,,,,,,,,,,,,,,,,,,,,,,,,314.29141108300246,314.3122500829995,314.3122500829995,314.3122500829995,314.3122500829995,314.3076914996675,314.3122500829995,314.3122500829995,315.55895087500176,Correct! صحیح است,1,1,1,1.2406652090030548,None,315.5627502080024,315.57405633300004,317.5597212920002,317.581334333001,,,,,,,,,,,,,,,,,,,,,,,,,,,,,837466,001,2024-07-02_11h40.26.096,5-31,2024.1.4,None,2024-07-02 11h40.31.753219 +0900,
Images/Speaker1.jpg,Images/Speaker2.jpg,Images/Speaker3.jpg,Images/Speaker4.jpg,Audio/Speaker3_En/P3-10-En.wav,Speaker3,گوینده۳,,,,,,,,0,1,1,38,0,26,26,49,,,,,317.581334333001,,,,,,,,,,,,,,,,,,,,,,,,,,,,,,,,,,,,,,,,,,,,,317.5599155830023,317.581334333001,317.581334333001,317.581334333001,317.581334333001,317.57608641666616,317.581334333001,317.581334333001,318.8213928330006,Correct! صحیح است,1,1,3,1.2314224159999867,None,318.8262692919998,318.83833620800215,320.8237756250019,320.8485778329996,,,,,,,,,,,,,,,,,,,,,,,,,,,,,837466,001,2024-07-02_11h40.26.096,5-31,2024.1.4,None,2024-07-02 11h40.31.753219 +0900,
Images/Speaker1.jpg,Images/Speaker2.jpg,Images/Speaker3.jpg,Images/Speaker4.jpg,Audio/Speaker1_En/P1-18-En.wav,Speaker1,گوینده ۱,,,,,,,,0,1,1,38,0,27,27,17,,,,,320.8485778329996,,,,,,,,,,,,,,,,,,,,,,,,,,,,,,,,,,,,,,,,,,,,,320.8246300419996,320.8485778329996,320.8485778329996,320.8485778329996,320.8485778329996,320.85603133333325,320.8485778329996,320.8485778329996,322.0427692500016,Correct! صحیح است,1,1,1,1.1930969579989323,None,322.04652183299913,322.05841125000006,324.0417857079992,324.0634786670016,,,,,,,,,,,,,,,,,,,,,,,,,,,,,837466,001,2024-07-02_11h40.26.096,5-31,2024.1.4,None,2024-07-02 11h40.31.753219 +0900,
Images/Speaker1.jpg,Images/Speaker2.jpg,Images/Speaker3.jpg,Images/Speaker4.jpg,Audio/Speaker4_En/P4-19-En.wav,Speaker4,گوینده۴,,,,,,,,0,1,1,38,0,28,28,78,,,,,324.0634786670016,,,,,,,,,,,,,,,,,,,,,,,,,,,,,,,,,,,,,,,,,,,,,324.04197874999954,324.0634786670016,324.0634786670016,324.0634786670016,324.0634786670016,324.05823137466746,324.0634786670016,324.0634786670016,326.20144470800005,Correct! صحیح است,1,1,4,2.132697791999817,None,326.20560379200106,326.2168011670001,328.20241716700184,328.2227396670023,,,,,,,,,,,,,,,,,,,,,,,,,,,,,837466,001,2024-07-02_11h40.26.096,5-31,2024.1.4,None,2024-07-02 11h40.31.753219 +0900,
Images/Speaker1.jpg,Images/Speaker2.jpg,Images/Speaker3.jpg,Images/Speaker4.jpg,Audio/Speaker4_En/P4-20-En.wav,Speaker4,گوینده۴,,,,,,,,0,1,1,38,0,29,29,79,,,,,328.2227396670023,,,,,,,,,,,,,,,,,,,,,,,,,,,,,,,,,,,,,,,,,,,,,328.20261095800015,328.2227396670023,328.2227396670023,328.2227396670023,328.2227396670023,328.21876374966837,328.2227396670023,328.2227396670023,329.8014140000014,Correct! صحیح است,1,1,4,1.576158709001902,None,329.8056145420014,329.81697474999964,331.8154576250017,,,,,,,,,,,,,,,,,,,,,,,,,,,,,,837466,001,2024-07-02_11h40.26.096,5-31,2024.1.4,None,2024-07-02 11h40.31.753219 +0900,
Images/Speaker1.jpg,Images/Speaker2.jpg,Images/Speaker3.jpg,Images/Speaker4.jpg,Audio/Speaker4_En/P4-6-En.wav,Speaker4,گوینده۴,,,,,,,,0,1,1,38,0,30,30,65,,,,,331.84242545800225,,,,,,,,,,,,,,,,,,,,,,,,,,,,,,,,,,,,,,,,,,,,,331.81617579200247,331.84242545800225,331.84242545800225,331.84242545800225,331.84242545800225,331.84862808333537,331.84242545800225,331.84242545800225,333.1518009579995,Correct! صحیح است,1,1,4,1.301859457998944,None,333.15664579200165,333.16885466700114,335.15387233300135,335.176172083,,,,,,,,,,,,,,,,,,,,,,,,,,,,,837466,001,2024-07-02_11h40.26.096,5-31,2024.1.4,None,2024-07-02 11h40.31.753219 +0900,
Images/Speaker1.jpg,Images/Speaker2.jpg,Images/Speaker3.jpg,Images/Speaker4.jpg,Audio/Speaker3_En/P3-2-En.wav,Speaker3,گوینده۳,,,,,,,,0,1,1,38,0,31,31,41,,,,,335.176172083,,,,,,,,,,,,,,,,,,,,,,,,,,,,,,,,,,,,,,,,,,,,,335.1540394580006,335.176172083,335.176172083,335.176172083,335.176172083,335.1702391666661,335.176172083,335.176172083,336.69700733300124,Correct! صحیح است,1,1,3,1.5198882080003386,None,336.7012895420012,336.7125313329998,338.7066412500026,,,,,,,,,,,,,,,,,,,,,,,,,,,,,,837466,001,2024-07-02_11h40.26.096,5-31,2024.1.4,None,2024-07-02 11h40.31.753219 +0900,
Images/Speaker1.jpg,Images/Speaker2.jpg,Images/Speaker3.jpg,Images/Speaker4.jpg,Audio/Speaker4_En/P4-13-En.wav,Speaker4,گوینده۴,,,,,,,,0,1,1,38,0,32,32,72,,,,,338.7316965829996,,,,,,,,,,,,,,,,,,,,,,,,,,,,,,,,,,,,,,,,,,,,,338.70730325000113,338.7316965829996,338.7316965829996,338.7316965829996,338.7316965829996,338.73977191633503,338.7316965829996,338.7316965829996,340.5027484580023,Correct! صحیح است,1,1,4,1.7632169999997132,None,340.5067175000004,340.5187257920006,342.51459983300083,,,,,,,,,,,,,,,,,,,,,,,,,,,,,,837466,001,2024-07-02_11h40.26.096,5-31,2024.1.4,None,2024-07-02 11h40.31.753219 +0900,
Images/Speaker1.jpg,Images/Speaker2.jpg,Images/Speaker3.jpg,Images/Speaker4.jpg,Audio/Speaker4_En/P4-11-En.wav,Speaker4,گوینده۴,,,,,,,,0,1,1,38,0,33,33,70,,,,,342.53572433299996,,,,,,,,,,,,,,,,,,,,,,,,,,,,,,,,,,,,,,,,,,,,,342.51480045800054,342.53572433299996,342.53572433299996,342.53572433299996,342.53572433299996,342.5312277086671,342.53572433299996,342.53572433299996,343.8625002080007,Correct! صحیح است,1,1,4,1.3231539169973985,None,343.86661170799925,343.8773828330013,345.87191795800027,,,,,,,,,,,,,,,,,,,,,,,,,,,,,,837466,001,2024-07-02_11h40.26.096,5-31,2024.1.4,None,2024-07-02 11h40.31.753219 +0900,
Images/Speaker1.jpg,Images/Speaker2.jpg,Images/Speaker3.jpg,Images/Speaker4.jpg,Audio/Speaker1_En/P1-11-En.wav,Speaker1,گوینده ۱,,,,,,,,0,1,1,38,0,34,34,10,,,,,345.89539270800014,,,,,,,,,,,,,,,,,,,,,,,,,,,,,,,,,,,,,,,,,,,,,345.87259991700193,345.89539270800014,345.89539270800014,345.89539270800014,345.89539270800014,345.90507237533575,345.89539270800014,345.89539270800014,347.1501146670016,Correct! صحیح است,1,1,1,1.2450895410001976,None,347.15445454200017,347.1674043330022,349.15558050000254,,,,,,,,,,,,,,,,,,,,,,,,,,,,,,837466,001,2024-07-02_11h40.26.096,5-31,2024.1.4,None,2024-07-02 11h40.31.753219 +0900,
Images/Speaker1.jpg,Images/Speaker2.jpg,Images/Speaker3.jpg,Images/Speaker4.jpg,Audio/Speaker2_En/P2-6-En.wav,Speaker2,گوینده۲,,,,,,,,0,1,1,38,0,35,35,25,,,,,349.17717108299985,,,,,,,,,,,,,,,,,,,,,,,,,,,,,,,,,,,,,,,,,,,,,349.15575116699983,349.17717108299985,349.17717108299985,349.17717108299985,349.17717108299985,349.1721873746685,349.17717108299985,349.17717108299985,350.2970792080014,Correct! صحیح است,1,1,2,1.1136872500028403,None,350.30103000000236,350.31223500000124,352.30629104200125,,,,,,,,,,,,,,,,,,,,,,,,,,,,,,837466,001,2024-07-02_11h40.26.096,5-31,2024.1.4,None,2024-07-02 11h40.31.753219 +0900,
Images/Speaker1.jpg,Images/Speaker2.jpg,Images/Speaker3.jpg,Images/Speaker4.jpg,Audio/Speaker3_En/P3-17-En.wav,Speaker3,گوینده۳,,,,,,,,0,1,1,38,0,36,36,56,,,,,352.3304223330015,,,,,,,,,,,,,,,,,,,,,,,,,,,,,,,,,,,,,,,,,,,,,352.3069332920022,352.3304223330015,352.3304223330015,352.3304223330015,352.3304223330015,352.33939495833374,352.3304223330015,352.3304223330015,353.8350613750008,Correct! صحیح است,1,1,3,1.4934085410022817,None,353.8399009999994,353.85272183300185,355.83724766700107,355.8602495000014,,,,,,,,,,,,,,,,,,,,,,,,,,,,,837466,001,2024-07-02_11h40.26.096,5-31,2024.1.4,None,2024-07-02 11h40.31.753219 +0900,
Images/Speaker1.jpg,Images/Speaker2.jpg,Images/Speaker3.jpg,Images/Speaker4.jpg,Audio/Speaker3_En/P3-8-En.wav,Speaker3,گوینده۳,,,,,,,,0,1,1,38,0,37,37,47,,,,,355.8602495000014,,,,,,,,,,,,,,,,,,,,,,,,,,,,,,,,,,,,,,,,,,,,,355.8379982080005,355.8602495000014,355.8602495000014,355.8602495000014,355.8602495000014,355.8697123753341,355.8602495000014,355.8602495000014,358.159419292002,Correct! صحیح است,1,1,3,2.2956937499984633,None,358.1645470830008,358.1774473330006,360.1701314999991,,,,,,,,,,,,,,,,,,,,,,,,,,,,,,837466,001,2024-07-02_11h40.26.096,5-31,2024.1.4,None,2024-07-02 11h40.31.753219 +0900,
Images/Speaker1.jpg,Images/Speaker2.jpg,Images/Speaker3.jpg,Images/Speaker4.jpg,Audio/Speaker2_En/P2-3-En.wav,Speaker2,گوینده۲,,,,,,,,0,1,1,38,0,38,38,22,,,,,360.1906654170016,,,,,,,,,,,,,,,,,,,,,,,,,,,,,,,,,,,,,,,,,,,,,360.17029595799977,360.1906654170016,360.1906654170016,360.1906654170016,360.1906654170016,360.1867572916674,360.1906654170016,360.1906654170016,361.3794871249993,Correct! صحیح است,1,1,2,1.183420291999937,None,361.3846006669992,361.3964338750011,363.3873147500017,,,,,,,,,,,,,,,,,,,,,,,,,,,,,,837466,001,2024-07-02_11h40.26.096,5-31,2024.1.4,None,2024-07-02 11h40.31.753219 +0900,
Images/Speaker1.jpg,Images/Speaker2.jpg,Images/Speaker3.jpg,Images/Speaker4.jpg,Audio/Speaker1_En/P1-17-En.wav,Speaker1,گوینده ۱,,,,,,,,0,1,1,38,0,39,39,16,,,,,363.4084912920007,,,,,,,,,,,,,,,,,,,,,,,,,,,,,,,,,,,,,,,,,,,,,363.38748729200233,363.4084912920007,363.4084912920007,363.4084912920007,363.4084912920007,363.40394629166644,363.4084912920007,363.4084912920007,364.51418408300015,Correct! صحیح است,1,1,1,1.1031012919993373,None,364.51931754199904,364.53238870800124,366.52236812499905,,,,,,,,,,,,,,,,,,,,,,,,,,,,,,837466,001,2024-07-02_11h40.26.096,5-31,2024.1.4,None,2024-07-02 11h40.31.753219 +0900,
Images/Speaker1.jpg,Images/Speaker2.jpg,Images/Speaker3.jpg,Images/Speaker4.jpg,Audio/Speaker2_En/P2-9-En.wav,Speaker2,گوینده۲,,,,,,,,0,1,1,38,0,40,40,28,,,,,366.5462933750023,,,,,,,,,,,,,,,,,,,,,,,,,,,,,,,,,,,,,,,,,,,,,366.5229567919996,366.5462933750023,366.5462933750023,366.5462933750023,366.5462933750023,366.55555700033483,366.5462933750023,366.5462933750023,367.855453958,Correct! صحیح است,1,1,2,1.3030535830002918,None,367.8592352500018,367.87045408300037,369.8589572919991,369.8815641250003,,,,,,,,,,,,,,,,,,,,,,,,,,,,,837466,001,2024-07-02_11h40.26.096,5-31,2024.1.4,None,2024-07-02 11h40.31.753219 +0900,
Images/Speaker1.jpg,Images/Speaker2.jpg,Images/Speaker3.jpg,Images/Speaker4.jpg,Audio/Speaker1_En/P1-8-En.wav,Speaker1,گوینده ۱,,,,,,,,0,1,1,38,0,41,41,7,,,,,369.8815641250003,,,,,,,,,,,,,,,,,,,,,,,,,,,,,,,,,,,,,,,,,,,,,369.85979891700117,369.8815641250003,369.8815641250003,369.8815641250003,369.8815641250003,369.8912713333343,369.8815641250003,369.8815641250003,371.2424453749991,Correct! صحیح است,1,1,1,1.3597718749988417,None,371.2464516250002,371.2575978749992,373.24553650000234,373.2666738750013,,,,,,,,,,,,,,,,,,,,,,,,,,,,,837466,001,2024-07-02_11h40.26.096,5-31,2024.1.4,None,2024-07-02 11h40.31.753219 +0900,
Images/Speaker1.jpg,Images/Speaker2.jpg,Images/Speaker3.jpg,Images/Speaker4.jpg,Audio/Speaker4_En/P4-7-En.wav,Speaker4,گوینده۴,,,,,,,,0,1,1,38,0,42,42,66,,,,,373.2666738750013,,,,,,,,,,,,,,,,,,,,,,,,,,,,,,,,,,,,,,,,,,,,,373.245734250002,373.2666738750013,373.2666738750013,373.2666738750013,373.2666738750013,373.261921958667,373.2666738750013,373.2666738750013,374.74350445800155,Correct! صحیح است,1,1,4,1.4718061249986931,None,374.7477014169999,374.75918116699904,376.74204691699924,376.7634882500024,,,,,,,,,,,,,,,,,,,,,,,,,,,,,837466,001,2024-07-02_11h40.26.096,5-31,2024.1.4,None,2024-07-02 11h40.31.753219 +0900,
Images/Speaker1.jpg,Images/Speaker2.jpg,Images/Speaker3.jpg,Images/Speaker4.jpg,Audio/Speaker2_En/P2-8-En.wav,Speaker2,گوینده۲,,,,,,,,0,1,1,38,0,43,43,27,,,,,376.7634882500024,,,,,,,,,,,,,,,,,,,,,,,,,,,,,,,,,,,,,,,,,,,,,376.7422560420018,376.7634882500024,376.7634882500024,376.7634882500024,376.7634882500024,376.75845679166764,376.7634882500024,376.7634882500024,378.18440629199904,Correct! صحیح است,1,1,2,1.410575666999648,None,378.1886559170016,378.19708320800055,380.1815257920025,380.20622583300064,,,,,,,,,,,,,,,,,,,,,,,,,,,,,837466,001,2024-07-02_11h40.26.096,5-31,2024.1.4,None,2024-07-02 11h40.31.753219 +0900,
Images/Speaker1.jpg,Images/Speaker2.jpg,Images/Speaker3.jpg,Images/Speaker4.jpg,Audio/Speaker4_En/P4-14-En.wav,Speaker4,گوینده۴,,,,,,,,0,1,1,38,0,44,44,73,,,,,380.20622583300064,,,,,,,,,,,,,,,,,,,,,,,,,,,,,,,,,,,,,,,,,,,,,380.18205883300107,380.20622583300064,380.20622583300064,380.20622583300064,380.20622583300064,380.2138670833342,380.20622583300064,380.20622583300064,381.5873015830002,Correct! صحیح است,1,1,4,1.3732872079999652,None,381.59121245799906,381.599854832999,383.582471083002,383.6038614169993,,,,,,,,,,,,,,,,,,,,,,,,,,,,,837466,001,2024-07-02_11h40.26.096,5-31,2024.1.4,None,2024-07-02 11h40.31.753219 +0900,
Images/Speaker1.jpg,Images/Speaker2.jpg,Images/Speaker3.jpg,Images/Speaker4.jpg,Audio/Speaker2_En/P2-16-En.wav,Speaker2,گوینده۲,,,,,,,,0,1,1,38,0,45,45,35,,,,,383.6038614169993,,,,,,,,,,,,,,,,,,,,,,,,,,,,,,,,,,,,,,,,,,,,,383.58263612500014,383.6038614169993,383.6038614169993,383.6038614169993,383.6038614169993,383.59886399966877,383.6038614169993,383.6038614169993,385.01068787500117,Correct! صحیح است,1,1,2,1.4051923330007412,None,385.0146298330001,385.02582916699976,387.0132663330005,387.03398033300255,,,,,,,,,,,,,,,,,,,,,,,,,,,,,837466,001,2024-07-02_11h40.26.096,5-31,2024.1.4,None,2024-07-02 11h40.31.753219 +0900,
Images/Speaker1.jpg,Images/Speaker2.jpg,Images/Speaker3.jpg,Images/Speaker4.jpg,Audio/Speaker2_En/P2-18-En.wav,Speaker2,گوینده۲,,,,,,,,0,1,1,38,0,46,46,37,,,,,387.03398033300255,,,,,,,,,,,,,,,,,,,,,,,,,,,,,,,,,,,,,,,,,,,,,387.013433791999,387.03398033300255,387.03398033300255,387.03398033300255,387.03398033300255,387.0296977086657,387.03398033300255,387.03398033300255,388.15555558300184,Correct! صحیح است,1,1,2,1.1154427910005325,None,388.15936687499925,388.1709109580006,390.15479412499917,390.17652137500045,,,,,,,,,,,,,,,,,,,,,,,,,,,,,837466,001,2024-07-02_11h40.26.096,5-31,2024.1.4,None,2024-07-02 11h40.31.753219 +0900,
Images/Speaker1.jpg,Images/Speaker2.jpg,Images/Speaker3.jpg,Images/Speaker4.jpg,Audio/Speaker4_En/P4-5-En.wav,Speaker4,گوینده۴,,,,,,,,0,1,1,38,0,47,47,64,,,,,390.17652137500045,,,,,,,,,,,,,,,,,,,,,,,,,,,,,,,,,,,,,,,,,,,,,390.1549592920019,390.17652137500045,390.17652137500045,390.17652137500045,390.17652137500045,390.1711264166663,390.17652137500045,390.17652137500045,391.57751929200094,Correct! صحیح است,1,1,4,1.3955443749982805,None,391.5819901670002,391.593811499999,393.57933637500173,393.6003666249999,,,,,,,,,,,,,,,,,,,,,,,,,,,,,837466,001,2024-07-02_11h40.26.096,5-31,2024.1.4,None,2024-07-02 11h40.31.753219 +0900,
Images/Speaker1.jpg,Images/Speaker2.jpg,Images/Speaker3.jpg,Images/Speaker4.jpg,Audio/Speaker1_En/P1-20-En.wav,Speaker1,گوینده ۱,,,,,,,,0,1,1,38,0,48,48,19,,,,,393.6003666249999,,,,,,,,,,,,,,,,,,,,,,,,,,,,,,,,,,,,,,,,,,,,,393.57953779200034,393.6003666249999,393.6003666249999,393.6003666249999,393.6003666249999,393.59576883366776,393.6003666249999,393.6003666249999,394.71931187500013,Correct! صحیح است,1,1,1,1.1152387500005716,None,394.7231176250025,394.73442833300214,396.72392516699983,396.7481195830005,,,,,,,,,,,,,,,,,,,,,,,,,,,,,837466,001,2024-07-02_11h40.26.096,5-31,2024.1.4,None,2024-07-02 11h40.31.753219 +0900,
Images/Speaker1.jpg,Images/Speaker2.jpg,Images/Speaker3.jpg,Images/Speaker4.jpg,Audio/Speaker4_En/P4-1-En.wav,Speaker4,گوینده۴,,,,,,,,0,1,1,38,0,49,49,60,,,,,396.7481195830005,,,,,,,,,,,,,,,,,,,,,,,,,,,,,,,,,,,,,,,,,,,,,396.7246045419997,396.7481195830005,396.7481195830005,396.7481195830005,396.7481195830005,396.7561975833346,396.7481195830005,396.7481195830005,398.7250755829991,Correct! صحیح است,1,1,4,1.9735548330027086,None,398.72938120800245,398.74108333299955,400.73096183300004,,,,,,,,,,,,,,,,,,,,,,,,,,,,,,837466,001,2024-07-02_11h40.26.096,5-31,2024.1.4,None,2024-07-02 11h40.31.753219 +0900,
Images/Speaker1.jpg,Images/Speaker2.jpg,Images/Speaker3.jpg,Images/Speaker4.jpg,Audio/Speaker1_En/P1-4-En.wav,Speaker1,گوینده ۱,,,,,,,,0,1,1,38,0,50,50,3,,,,,400.7551547080002,,,,,,,,,,,,,,,,,,,,,,,,,,,,,,,,,,,,,,,,,,,,,400.7316334169991,400.7551547080002,400.7551547080002,400.7551547080002,400.7551547080002,400.7641336253332,400.7551547080002,400.7551547080002,402.137488417,Correct! صحیح است,1,1,1,1.3780524590001733,None,402.14153162500224,402.15259974999935,404.14703979200203,,,,,,,,,,,,,,,,,,,,,,,,,,,,,,837466,001,2024-07-02_11h40.26.096,5-31,2024.1.4,None,2024-07-02 11h40.31.753219 +0900,
Images/Speaker1.jpg,Images/Speaker2.jpg,Images/Speaker3.jpg,Images/Speaker4.jpg,Audio/Speaker1_En/P1-2-En.wav,Speaker1,گوینده ۱,,,,,,,,0,1,1,38,0,51,51,1,,,,,404.16835175000233,,,,,,,,,,,,,,,,,,,,,,,,,,,,,,,,,,,,,,,,,,,,,404.1476623330018,404.16835175000233,404.16835175000233,404.16835175000233,404.16835175000233,404.16356754166577,404.16835175000233,404.16835175000233,405.0882965000019,Correct! صحیح است,1,1,1,0.9102836249985558,None,405.09219437499996,405.10347833299966,407.08970454200244,407.11418991699975,,,,,,,,,,,,,,,,,,,,,,,,,,,,,837466,001,2024-07-02_11h40.26.096,5-31,2024.1.4,None,2024-07-02 11h40.31.753219 +0900,
Images/Speaker1.jpg,Images/Speaker2.jpg,Images/Speaker3.jpg,Images/Speaker4.jpg,Audio/Speaker2_En/P2-17-En.wav,Speaker2,گوینده۲,,,,,,,,0,1,1,38,0,52,52,36,,,,,407.11418991699975,,,,,,,,,,,,,,,,,,,,,,,,,,,,,,,,,,,,,,,,,,,,,407.0902874580024,407.11418991699975,407.11418991699975,407.11418991699975,407.11418991699975,407.1220325003346,407.11418991699975,407.11418991699975,408.5749087080003,Correct! صحیح است,1,1,2,1.455873208000412,None,408.5800629580008,408.59330262500225,410.5773099580001,410.5991854999993,,,,,,,,,,,,,,,,,,,,,,,,,,,,,837466,001,2024-07-02_11h40.26.096,5-31,2024.1.4,None,2024-07-02 11h40.31.753219 +0900,
Images/Speaker1.jpg,Images/Speaker2.jpg,Images/Speaker3.jpg,Images/Speaker4.jpg,Audio/Speaker2_En/P2-15-En.wav,Speaker2,گوینده۲,,,,,,,,0,1,1,38,0,53,53,34,,,,,410.5991854999993,,,,,,,,,,,,,,,,,,,,,,,,,,,,,,,,,,,,,,,,,,,,,410.57749550000153,410.5991854999993,410.5991854999993,410.5991854999993,410.5991854999993,410.5937620836669,410.5991854999993,410.5991854999993,411.77872520800156,Correct! صحیح است,1,1,2,1.1663567499999772,None,411.78256641700136,411.7938678749997,413.7816092920002,413.8061583330018,,,,,,,,,,,,,,,,,,,,,,,,,,,,,837466,001,2024-07-02_11h40.26.096,5-31,2024.1.4,None,2024-07-02 11h40.31.753219 +0900,
Images/Speaker1.jpg,Images/Speaker2.jpg,Images/Speaker3.jpg,Images/Speaker4.jpg,Audio/Speaker3_En/P3-19-En.wav,Speaker3,گوینده۳,,,,,,,,0,1,1,38,0,54,54,58,,,,,413.8061583330018,,,,,,,,,,,,,,,,,,,,,,,,,,,,,,,,,,,,,,,,,,,,,413.782181417002,413.8061583330018,413.8061583330018,413.8061583330018,413.8061583330018,413.81382470833387,413.8061583330018,413.8061583330018,416.41371529200114,Correct! صحیح است,1,1,3,2.59929212499992,None,416.41880245799985,416.431852624999,418.42612741700214,,,,,,,,,,,,,,,,,,,,,,,,,,,,,,837466,001,2024-07-02_11h40.26.096,5-31,2024.1.4,None,2024-07-02 11h40.31.753219 +0900,
Images/Speaker1.jpg,Images/Speaker2.jpg,Images/Speaker3.jpg,Images/Speaker4.jpg,Audio/Speaker2_En/P2-12-En.wav,Speaker2,گوینده۲,,,,,,,,0,1,1,38,0,55,55,31,,,,,418.4524053330024,,,,,,,,,,,,,,,,,,,,,,,,,,,,,,,,,,,,,,,,,,,,,418.42682324999987,418.4524053330024,418.4524053330024,418.4524053330024,418.4524053330024,418.45930379133324,418.4524053330024,418.4524053330024,420.3561573750012,Correct! صحیح است,1,1,2,1.8908713750024617,None,420.360141125002,420.371654458002,422.3653129170016,,,,,,,,,,,,,,,,,,,,,,,,,,,,,,837466,001,2024-07-02_11h40.26.096,5-31,2024.1.4,None,2024-07-02 11h40.31.753219 +0900,
Images/Speaker1.jpg,Images/Speaker2.jpg,Images/Speaker3.jpg,Images/Speaker4.jpg,Audio/Speaker2_En/P2-10-En.wav,Speaker2,گوینده۲,,,,,,,,0,1,1,38,0,56,56,29,,,,,422.38593158300137,,,,,,,,,,,,,,,,,,,,,,,,,,,,,,,,,,,,,,,,,,,,,422.36550312500185,422.38593158300137,422.38593158300137,422.38593158300137,422.38593158300137,422.38193829166653,422.38593158300137,422.38593158300137,425.2326618750012,Correct! صحیح است,1,1,2,2.838403166999342,None,425.23287970800084,425.2444576250018,427.23257450000165,427.25697166700047,,,,,,,,,,,,,,,,,,,,,,,,,,,,,837466,001,2024-07-02_11h40.26.096,5-31,2024.1.4,None,2024-07-02 11h40.31.753219 +0900,
Images/Speaker1.jpg,Images/Speaker2.jpg,Images/Speaker3.jpg,Images/Speaker4.jpg,Audio/Speaker4_En/P4-15-En.wav,Speaker4,گوینده۴,,,,,,,,0,1,1,38,0,57,57,74,,,,,427.25697166700047,,,,,,,,,,,,,,,,,,,,,,,,,,,,,,,,,,,,,,,,,,,,,427.23333712500244,427.25697166700047,427.25697166700047,427.25697166700047,427.25697166700047,427.2649188753353,427.25697166700047,427.25697166700047,430.2810369580002,Correct! صحیح است,1,1,4,3.015106791997823,None,430.28486387500016,430.2940684999994,432.2800093750011,432.30115495800055,,,,,,,,,,,,,,,,,,,,,,,,,,,,,837466,001,2024-07-02_11h40.26.096,5-31,2024.1.4,None,2024-07-02 11h40.31.753219 +0900,
Images/Speaker1.jpg,Images/Speaker2.jpg,Images/Speaker3.jpg,Images/Speaker4.jpg,Audio/Speaker1_En/P1-1-En.wav,Speaker1,گوینده ۱,,,,,,,,0,1,1,38,0,58,58,0,,,,,432.30115495800055,,,,,,,,,,,,,,,,,,,,,,,,,,,,,,,,,,,,,,,,,,,,,432.2801838330015,432.30115495800055,432.30115495800055,432.30115495800055,432.30115495800055,432.29639199966573,432.30115495800055,432.30115495800055,433.5796526250015,Correct! صحیح است,1,1,1,1.2750425830017775,None,433.5836140419997,433.59443241700137,435.5797113330009,435.60052700000233,,,,,,,,,,,,,,,,,,,,,,,,,,,,,837466,001,2024-07-02_11h40.26.096,5-31,2024.1.4,None,2024-07-02 11h40.31.753219 +0900,
Images/Speaker1.jpg,Images/Speaker2.jpg,Images/Speaker3.jpg,Images/Speaker4.jpg,Audio/Speaker2_En/P2-5-En.wav,Speaker2,گوینده۲,,,,,,,,0,1,1,38,0,59,59,24,,,,,435.60052700000233,,,,,,,,,,,,,,,,,,,,,,,,,,,,,,,,,,,,,,,,,,,,,435.57988616700095,435.60052700000233,435.60052700000233,435.60052700000233,435.60052700000233,435.596142958668,435.60052700000233,435.60052700000233,436.8293280830003,Correct! صحیح است,1,1,2,1.2207520840020152,None,436.8336425830021,436.84258791699904,438.83324729200103,438.8575363330019,,,,,,,,,,,,,,,,,,,,,,,,,,,,,837466,001,2024-07-02_11h40.26.096,5-31,2024.1.4,None,2024-07-02 11h40.31.753219 +0900,
Images/Speaker1.jpg,Images/Speaker2.jpg,Images/Speaker3.jpg,Images/Speaker4.jpg,Audio/Speaker1_En/P1-3-En.wav,Speaker1,گوینده ۱,,,,,,,,0,1,1,38,0,60,60,2,,,,,438.8575363330019,,,,,,,,,,,,,,,,,,,,,,,,,,,,,,,,,,,,,,,,,,,,,438.83388608300083,438.8575363330019,438.8575363330019,438.8575363330019,438.8575363330019,438.866202208334,438.8575363330019,438.8575363330019,440.37159404200065,Correct! صحیح است,1,1,1,1.505760542000644,None,440.3757886250023,440.3870961249995,442.3825037919996,,,,,,,,,,,,,,,,,,,,,,,,,,,,,,837466,001,2024-07-02_11h40.26.096,5-31,2024.1.4,None,2024-07-02 11h40.31.753219 +0900,
Images/Speaker1.jpg,Images/Speaker2.jpg,Images/Speaker3.jpg,Images/Speaker4.jpg,Audio/Speaker3_En/P3-9-En.wav,Speaker3,گوینده۳,,,,,,,,0,1,1,38,0,61,61,48,,,,,442.4059962079991,,,,,,,,,,,,,,,,,,,,,,,,,,,,,,,,,,,,,,,,,,,,,442.38310674999957,442.4059962079991,442.4059962079991,442.4059962079991,442.4059962079991,442.4156868753348,442.4059962079991,442.4059962079991,444.65553129199907,Correct! صحیح است,1,1,3,2.2445419169998786,None,444.660353416999,444.6731670830013,446.66671733300245,,,,,,,,,,,,,,,,,,,,,,,,,,,,,,837466,001,2024-07-02_11h40.26.096,5-31,2024.1.4,None,2024-07-02 11h40.31.753219 +0900,
Images/Speaker1.jpg,Images/Speaker2.jpg,Images/Speaker3.jpg,Images/Speaker4.jpg,Audio/Speaker3_En/P3-18-En.wav,Speaker3,گوینده۳,,,,,,,,0,1,1,38,0,62,62,57,,,,,446.6902789170017,,,,,,,,,,,,,,,,,,,,,,,,,,,,,,,,,,,,,,,,,,,,,446.6673909580022,446.6902789170017,446.6902789170017,446.6902789170017,446.6902789170017,446.6998651663348,446.6902789170017,446.6902789170017,448.51795200000197,Correct! صحیح است,1,1,3,1.823984582999401,None,448.52282616700177,448.5354279580024,450.52338054199936,,,,,,,,,,,,,,,,,,,,,,,,,,,,,,837466,001,2024-07-02_11h40.26.096,5-31,2024.1.4,None,2024-07-02 11h40.31.753219 +0900,
Images/Speaker1.jpg,Images/Speaker2.jpg,Images/Speaker3.jpg,Images/Speaker4.jpg,Audio/Speaker3_En/P3-13-En.wav,Speaker3,گوینده۳,,,,,,,,0,1,1,38,0,63,63,52,,,,,450.5438328750024,,,,,,,,,,,,,,,,,,,,,,,,,,,,,,,,,,,,,,,,,,,,,450.52357879199917,450.5438328750024,450.5438328750024,450.5438328750024,450.5438328750024,450.54000316666884,450.5438328750024,450.5438328750024,451.9157357920012,Correct! صحیح است,1,1,3,1.3689941670018015,None,451.91994266700203,451.93100562499967,453.9164180830012,453.9380469579992,,,,,,,,,,,,,,,,,,,,,,,,,,,,,837466,001,2024-07-02_11h40.26.096,5-31,2024.1.4,None,2024-07-02 11h40.31.753219 +0900,
Images/Speaker1.jpg,Images/Speaker2.jpg,Images/Speaker3.jpg,Images/Speaker4.jpg,Audio/Speaker3_En/P3-5-En.wav,Speaker3,گوینده۳,,,,,,,,0,1,1,38,0,64,64,44,,,,,453.9380469579992,,,,,,,,,,,,,,,,,,,,,,,,,,,,,,,,,,,,,,,,,,,,,453.9166118329995,453.9380469579992,453.9380469579992,453.9380469579992,453.9380469579992,453.93282704166654,453.9380469579992,453.9380469579992,456.09342775000187,Correct! صحیح است,1,1,3,2.153658291997999,None,456.0974728330002,456.10869558299964,458.0980765000022,,,,,,,,,,,,,,,,,,,,,,,,,,,,,,837466,001,2024-07-02_11h40.26.096,5-31,2024.1.4,None,2024-07-02 11h40.31.753219 +0900,
Images/Speaker1.jpg,Images/Speaker2.jpg,Images/Speaker3.jpg,Images/Speaker4.jpg,Audio/Speaker4_En/P4-9-En.wav,Speaker4,گوینده۴,,,,,,,,0,1,1,38,0,65,65,68,,,,,458.11893150000105,,,,,,,,,,,,,,,,,,,,,,,,,,,,,,,,,,,,,,,,,,,,,458.09829179200096,458.11893150000105,458.11893150000105,458.11893150000105,458.11893150000105,458.11469083366705,458.11893150000105,458.11893150000105,459.7141820830002,Correct! صحیح است,1,1,4,1.5910126249982568,None,459.718113875002,459.7296111249998,461.71414616699985,461.7343928750015,,,,,,,,,,,,,,,,,,,,,,,,,,,,,837466,001,2024-07-02_11h40.26.096,5-31,2024.1.4,None,2024-07-02 11h40.31.753219 +0900,
Images/Speaker1.jpg,Images/Speaker2.jpg,Images/Speaker3.jpg,Images/Speaker4.jpg,Audio/Speaker1_En/P1-6-En.wav,Speaker1,گوینده ۱,,,,,,,,0,1,1,38,0,66,66,5,,,,,461.7343928750015,,,,,,,,,,,,,,,,,,,,,,,,,,,,,,,,,,,,,,,,,,,,,461.7143068330006,461.7343928750015,461.7343928750015,461.7343928750015,461.7343928750015,461.73052249966736,461.7343928750015,461.7343928750015,463.0821340830007,Correct! صحیح است,1,1,1,1.3402267080018646,None,463.0862522080024,463.09463558300195,465.081229833002,465.1019662079998,,,,,,,,,,,,,,,,,,,,,,,,,,,,,837466,001,2024-07-02_11h40.26.096,5-31,2024.1.4,None,2024-07-02 11h40.31.753219 +0900,
Images/Speaker1.jpg,Images/Speaker2.jpg,Images/Speaker3.jpg,Images/Speaker4.jpg,Audio/Speaker2_En/P2-4-En.wav,Speaker2,گوینده۲,,,,,,,,0,1,1,38,0,67,67,23,,,,,465.1019662079998,,,,,,,,,,,,,,,,,,,,,,,,,,,,,,,,,,,,,,,,,,,,,465.08144204199925,465.1019662079998,465.1019662079998,465.1019662079998,465.1019662079998,465.09765191666907,465.1019662079998,465.1019662079998,466.25146533299994,Correct! صحیح است,1,1,2,1.1482046659984917,None,466.25630204200206,466.26935262500047,468.26649929199993,,,,,,,,,,,,,,,,,,,,,,,,,,,,,,837466,001,2024-07-02_11h40.26.096,5-31,2024.1.4,None,2024-07-02 11h40.31.753219 +0900,
Images/Speaker1.jpg,Images/Speaker2.jpg,Images/Speaker3.jpg,Images/Speaker4.jpg,Audio/Speaker4_En/P4-10-En.wav,Speaker4,گوینده۴,,,,,,,,0,1,1,38,0,68,68,69,,,,,468.29231254200204,,,,,,,,,,,,,,,,,,,,,,,,,,,,,,,,,,,,,,,,,,,,,468.2672277919992,468.29231254200204,468.29231254200204,468.29231254200204,468.29231254200204,468.2996610833329,468.29231254200204,468.29231254200204,469.86617062500227,Correct! صحیح است,1,1,4,1.5707931670003745,None,469.8700404170013,469.8810088749997,471.866548375001,471.89061737500015,,,,,,,,,,,,,,,,,,,,,,,,,,,,,837466,001,2024-07-02_11h40.26.096,5-31,2024.1.4,None,2024-07-02 11h40.31.753219 +0900,
