SpeakerImage1,SpeakerImage2,SpeakerImage3,SpeakerImage4,TrainingSound,EnglishCorrectAnswer,PersianCorrectAnswer,SpeakerPhoto1,SpeakerPhoto2,SpeakerPhoto3,SpeakerPhoto4,TestingSound,EnglishCorrectResponse,PersianCorrectResponse,TrainingLoopGroup1.thisRepN,TrainingLoopGroup1.thisTrialN,TrainingLoopGroup1.thisN,TrainingLoopGroup1.thisIndex,TrainingLoopGroup2.thisRepN,TrainingLoopGroup2.thisTrialN,TrainingLoopGroup2.thisN,TrainingLoopGroup2.thisIndex,TrainingLoopGroup3.thisRepN,TrainingLoopGroup3.thisTrialN,TrainingLoopGroup3.thisN,TrainingLoopGroup3.thisIndex,testPhase1Loop.thisRepN,testPhase1Loop.thisTrialN,testPhase1Loop.thisN,testPhase1Loop.thisIndex,thisRow.t,notes,trial.started,trial.stopped,GroupSelection.started,GroupInstructions.started,key_resp.started,GroupSelection.stopped,key_resp.keys,key_resp.rt,key_resp.duration,Introduction.started,text_2.started,image.started,sound_7.started,text_4.started,text_2.stopped,sound_8.started,image.stopped,text_4.stopped,image_7.started,sound_9.started,text_5.started,sound_10.started,image_7.stopped,text_5.stopped,image_8.started,sound_11.started,text_6.started,sound_12.started,image_8.stopped,text_6.stopped,image_9.started,sound_13.started,text_7.started,sound_14.started,image_9.stopped,text_7.stopped,Introduction.stopped,Instructions.started,InstructionText.started,InstructionText.stopped,Instructions.stopped,InitializeExperiment.started,InitializeExperiment.stopped,TrainingGroup1.started,image_1.started,image_2.started,image_3.started,image_4.started,sound1.started,Instruction.started,ResponseKey.started,TrainingGroup1.stopped,feedbackText,ResponseKey.keys,ResponseKey.rt,ResponseKey.duration,correct_responses,total_trials,FeedbackRoutine1.started,FeedbackText.started,FeedbackRoutine1.stopped,FeedbackText.stopped,TransitionRoutine.started,TransitionRoutine.stopped,nextRoutine,TestPhase1.started,WelcomeTest1.started,test1_image1.started,test1_image2.started,test1_image3.started,test1_image4.started,test1_sound.started,text_3.started,test1_response_keyboard.started,TestPhase1.stopped,test1_response_keyboard.keys,test1_response_keyboard.rt,test1_response_keyboard.duration,test1_response,test1_image_file1,test1_image_file2,test1_image_file3,test1_image_file4,test1_sound_file,english_correct_answer,persian_correct_answer,WelcomeTest1.stopped,participant,session,date,expName,psychopyVersion,frameRate,expStart,
,,,,,,,,,,,,,,,,,,,,,,,,,,,,,,,,0.009683709009550512,0.009984917007386684,,,,,,,,,,,,,,,,,,,,,,,,,,,,,,,,,,,,,,,,,,,,,,,,,,,,,,,,,,,,,,,,,,,,,,,,,,,,,,,,,,,,,,841875,001,2024-06-28_11h59.32.828,5-20,2024.1.4,None,2024-06-28 11h59.38.170350 +0900,
,,,,,,,,,,,,,,,,,,,,,,,,,,,,,,,,,,0.009997000015573576,0.014665291993878782,0.014665291993878782,3.1353550420026295,1,3.0867376670066733,None,,,,,,,,,,,,,,,,,,,,,,,,,,,,,,,,,,,,,,,,,,,,,,,,,,,,,,,,,,,,,,,,,,,,,,,,,,,,,,,841875,001,2024-06-28_11h59.32.828,5-20,2024.1.4,None,2024-06-28 11h59.38.170350 +0900,
,,,,,,,,,,,,,,,,,,,,,,,,,,,,,,,,,,,,,,,,,3.1353856250061654,3.1881602090143133,8.124644791998435,8.134942166685748,8.124644791998435,8.185744375019567,13.135571625669643,18.114598750020377,18.114598750020377,18.134908667008858,18.146589125685082,18.134908667008858,23.135039708668288,28.133262167015346,28.133262167015346,28.133262167015346,28.141923666673634,28.133262167015346,33.13956600067128,38.13069620900205,38.13069620900205,38.13069620900205,38.13901429166823,38.13069620900205,43.134828333659485,48.12490120899747,48.12490120899747,48.120235000009416,,,,,,,,,,,,,,,,,,,,,,,,,,,,,,,,,,,,,,,,,,,,,,,,,,,841875,001,2024-06-28_11h59.32.828,5-20,2024.1.4,None,2024-06-28 11h59.38.170350 +0900,
,,,,,,,,,,,,,,,,,,,,,,,,,,,,,,,,,,,,,,,,,,,,,,,,,,,,,,,,,,,,,,,,,,,,,48.120296667009825,48.12490120899747,49.176713666995056,49.12348066701088,,,,,,,,,,,,,,,,,,,,,,,,,,,,,,,,,,,,,,,,,,,,,,,841875,001,2024-06-28_11h59.32.828,5-20,2024.1.4,None,2024-06-28 11h59.38.170350 +0900,
,,,,,,,,,,,,,,,,,,,,,,,,,,,,,,,,,,,,,,,,,,,,,,,,,,,,,,,,,,,,,,,,,,,,,,,,,49.123546792019624,49.12404704201617,,,,,,,,,,,,,,,,,,,,,,,,,,,,,,,,,,,,,,,,,,,,,841875,001,2024-06-28_11h59.32.828,5-20,2024.1.4,None,2024-06-28 11h59.38.170350 +0900,
Images/Speaker1.jpg,Images/Speaker2.jpg,Images/Speaker3.jpg,Images/Speaker4.jpg,Audio/Speaker2_Per/P2-6-Per.wav,Speaker2,گوینده۲,,,,,,,,0,0,0,25,,,,,,,,,,,,,49.176713666995056,,,,,,,,,,,,,,,,,,,,,,,,,,,,,,,,,,,,,,,,,,,,,49.145806542015634,49.176713666995056,49.176713666995056,49.176713666995056,49.176713666995056,49.17258479199954,49.176713666995056,49.176713666995056,53.03609704200062,Incorrect! The correct answer is Speaker2. نادرست! پاسخ صحیح گوینده۲ است,1,3.85703291700338,None,0,0,53.036542209010804,53.05522879201453,55.04828987500514,,,,,,,,,,,,,,,,,,,,,,,,,,,841875,001,2024-06-28_11h59.32.828,5-20,2024.1.4,None,2024-06-28 11h59.38.170350 +0900,
Images/Speaker1.jpg,Images/Speaker2.jpg,Images/Speaker3.jpg,Images/Speaker4.jpg,Audio/Speaker2_Per/P2-17-Per.wav,Speaker2,گوینده۲,,,,,,,,0,1,1,36,,,,,,,,,,,,,55.074114209011896,,,,,,,,,,,,,,,,,,,,,,,,,,,,,,,,,,,,,,,,,,,,,55.04884120900533,55.074114209011896,55.074114209011896,55.074114209011896,55.074114209011896,55.081450208330835,55.074114209011896,55.074114209011896,55.42236941700685,Incorrect! The correct answer is Speaker2. نادرست! پاسخ صحیح گوینده۲ است,1,0.3438232920016162,None,0,0,55.426364750019275,55.43907187500736,57.4268315420195,,,,,,,,,,,,,,,,,,,,,,,,,,,841875,001,2024-06-28_11h59.32.828,5-20,2024.1.4,None,2024-06-28 11h59.38.170350 +0900,
Images/Speaker1.jpg,Images/Speaker2.jpg,Images/Speaker3.jpg,Images/Speaker4.jpg,Audio/Speaker1_Per/P1-18-Per.wav,Speaker1,گوینده ۱,,,,,,,,0,2,2,17,,,,,,,,,,,,,57.450646042008884,,,,,,,,,,,,,,,,,,,,,,,,,,,,,,,,,,,,,,,,,,,,,57.42703854199499,57.450646042008884,57.450646042008884,57.450646042008884,57.450646042008884,57.46009958335392,57.450646042008884,57.450646042008884,57.70116737499484,Correct! صحیح است,1,0.24866762501187623,None,1,0,57.70524358400144,57.71779966700706,59.707038584019756,,,,,,,,,,,,,,,,,,,,,,,,,,,841875,001,2024-06-28_11h59.32.828,5-20,2024.1.4,None,2024-06-28 11h59.38.170350 +0900,
Images/Speaker1.jpg,Images/Speaker2.jpg,Images/Speaker3.jpg,Images/Speaker4.jpg,Audio/Speaker1_Per/P1-1-Per.wav,Speaker1,گوینده ۱,,,,,,,,0,3,3,0,,,,,,,,,,,,,59.733278083993355,,,,,,,,,,,,,,,,,,,,,,,,,,,,,,,,,,,,,,,,,,,,,59.707660917018075,59.733278083993355,59.733278083993355,59.733278083993355,59.733278083993355,59.740187833326246,59.733278083993355,59.733278083993355,60.02150412500487,Correct! صحیح است,1,0.2803312079922762,None,2,0,60.02577512501739,60.03683079199982,62.02976029200363,,,,,,,,,,,,,,,,,,,,,,,,,,,841875,001,2024-06-28_11h59.32.828,5-20,2024.1.4,None,2024-06-28 11h59.38.170350 +0900,
Images/Speaker1.jpg,Images/Speaker2.jpg,Images/Speaker3.jpg,Images/Speaker4.jpg,Audio/Speaker3_Per/P3-3-Per.wav,Speaker3,گوینده۳,,,,,,,,0,4,4,42,,,,,,,,,,,,,62.0525118749938,,,,,,,,,,,,,,,,,,,,,,,,,,,,,,,,,,,,,,,,,,,,,62.0299566250178,62.0525118749938,62.0525118749938,62.0525118749938,62.0525118749938,62.04636691668226,62.0525118749938,62.0525118749938,62.26758600000176,Incorrect! The correct answer is Speaker3. نادرست! پاسخ صحیح گوینده۳ است,1,0.21280070798820816,None,2,0,62.27142712500063,62.284659416996874,64.27852008401533,,,,,,,,,,,,,,,,,,,,,,,,,,,841875,001,2024-06-28_11h59.32.828,5-20,2024.1.4,None,2024-06-28 11h59.38.170350 +0900,
Images/Speaker1.jpg,Images/Speaker2.jpg,Images/Speaker3.jpg,Images/Speaker4.jpg,Audio/Speaker1_Per/P1-17-Per.wav,Speaker1,گوینده ۱,,,,,,,,0,5,5,16,,,,,,,,,,,,,64.30077195900958,,,,,,,,,,,,,,,,,,,,,,,,,,,,,,,,,,,,,,,,,,,,,64.27868704200955,64.30077195900958,64.30077195900958,64.30077195900958,64.30077195900958,64.29515112567266,64.30077195900958,64.30077195900958,64.30140629201196,Correct! صحیح است,1,2.1754891249875072,None,3,0,64.30510216701077,64.3134748339944,66.30573849999928,,,,,,,,,,,,,,,,,,,,,,,,,,,841875,001,2024-06-28_11h59.32.828,5-20,2024.1.4,None,2024-06-28 11h59.38.170350 +0900,
Images/Speaker1.jpg,Images/Speaker2.jpg,Images/Speaker3.jpg,Images/Speaker4.jpg,Audio/Speaker3_Per/P3-16-Per.wav,Speaker3,گوینده۳,,,,,,,,0,6,6,55,,,,,,,,,,,,,66.32859820901649,,,,,,,,,,,,,,,,,,,,,,,,,,,,,,,,,,,,,,,,,,,,,66.30592770900694,66.32859820901649,66.32859820901649,66.32859820901649,66.32859820901649,66.33904041734834,66.32859820901649,66.32859820901649,66.51349666700116,Incorrect! The correct answer is Speaker3. نادرست! پاسخ صحیح گوینده۳ است,1,0.175331082980847,None,3,0,66.51738212502096,66.5301541670051,68.51450062499498,68.54041975000291,,,,,,,,,,,,,,,,,,,,,,,,,,841875,001,2024-06-28_11h59.32.828,5-20,2024.1.4,None,2024-06-28 11h59.38.170350 +0900,
Images/Speaker1.jpg,Images/Speaker2.jpg,Images/Speaker3.jpg,Images/Speaker4.jpg,Audio/Speaker3_Per/P3-13-Per.wav,Speaker3,گوینده۳,,,,,,,,0,7,7,52,,,,,,,,,,,,,68.54041975000291,,,,,,,,,,,,,,,,,,,,,,,,,,,,,,,,,,,,,,,,,,,,,68.51469712500693,68.54041975000291,68.54041975000291,68.54041975000291,68.54041975000291,68.53085387568377,68.54041975000291,68.54041975000291,68.54105175001314,Incorrect! The correct answer is Speaker3. نادرست! پاسخ صحیح گوینده۳ است,1,2.19706095798756,None,3,0,68.54139245901024,68.55223966701305,70.53635370900156,70.55969508399721,,,,,,,,,,,,,,,,,,,,,,,,,,841875,001,2024-06-28_11h59.32.828,5-20,2024.1.4,None,2024-06-28 11h59.38.170350 +0900,
Images/Speaker1.jpg,Images/Speaker2.jpg,Images/Speaker3.jpg,Images/Speaker4.jpg,Audio/Speaker2_Per/P2-5-Per.wav,Speaker2,گوینده۲,,,,,,,,0,8,8,24,,,,,,,,,,,,,70.55969508399721,,,,,,,,,,,,,,,,,,,,,,,,,,,,,,,,,,,,,,,,,,,,,70.53655779201654,70.55969508399721,70.55969508399721,70.55969508399721,70.55969508399721,70.56946545834265,70.55969508399721,70.55969508399721,70.7539538340061,Incorrect! The correct answer is Speaker2. نادرست! پاسخ صحیح گوینده۲ است,1,0.18876241697580554,None,3,0,70.75766437500715,70.77017945901025,72.75942183399457,,,,,,,,,,,,,,,,,,,,,,,,,,,841875,001,2024-06-28_11h59.32.828,5-20,2024.1.4,None,2024-06-28 11h59.38.170350 +0900,
Images/Speaker1.jpg,Images/Speaker2.jpg,Images/Speaker3.jpg,Images/Speaker4.jpg,Audio/Speaker2_Per/P2-16-Per.wav,Speaker2,گوینده۲,,,,,,,,0,9,9,35,,,,,,,,,,,,,72.78176199999871,,,,,,,,,,,,,,,,,,,,,,,,,,,,,,,,,,,,,,,,,,,,,72.75958141701994,72.78176199999871,72.78176199999871,72.78176199999871,72.78176199999871,72.77604133368392,72.78176199999871,72.78176199999871,72.78235679201316,Incorrect! The correct answer is Speaker2. نادرست! پاسخ صحیح گوینده۲ است,1,2.174148874997627,None,3,0,72.7860769169929,72.79609741701279,74.77882637499715,74.80382129200734,,,,,,,,,,,,,,,,,,,,,,,,,,841875,001,2024-06-28_11h59.32.828,5-20,2024.1.4,None,2024-06-28 11h59.38.170350 +0900,
Images/Speaker1.jpg,Images/Speaker2.jpg,Images/Speaker3.jpg,Images/Speaker4.jpg,Audio/Speaker2_Per/P2-8-Per.wav,Speaker2,گوینده۲,,,,,,,,0,10,10,27,,,,,,,,,,,,,74.80382129200734,,,,,,,,,,,,,,,,,,,,,,,,,,,,,,,,,,,,,,,,,,,,,74.77898458400159,74.80382129200734,74.80382129200734,74.80382129200734,74.80382129200734,74.8119365003445,74.80382129200734,74.80382129200734,74.8868077500083,Incorrect! The correct answer is Speaker2. نادرست! پاسخ صحیح گوینده۲ است,1,0.07495862498763017,None,3,0,74.89082312499522,74.90322116701282,76.88980812500813,76.91736104199663,,,,,,,,,,,,,,,,,,,,,,,,,,841875,001,2024-06-28_11h59.32.828,5-20,2024.1.4,None,2024-06-28 11h59.38.170350 +0900,
Images/Speaker1.jpg,Images/Speaker2.jpg,Images/Speaker3.jpg,Images/Speaker4.jpg,Audio/Speaker3_Per/P3-5-Per.wav,Speaker3,گوینده۳,,,,,,,,0,11,11,44,,,,,,,,,,,,,76.91736104199663,,,,,,,,,,,,,,,,,,,,,,,,,,,,,,,,,,,,,,,,,,,,,76.89063883401104,76.91736104199663,76.91736104199663,76.91736104199663,76.91736104199663,76.92223329234596,76.91736104199663,76.91736104199663,76.91792950002127,Incorrect! The correct answer is Speaker3. نادرست! پاسخ صحیح گوینده۳ است,1,2.0012119169987272,None,3,0,76.91829883400351,76.92779491702095,78.91886258401792,,,,,,,,,,,,,,,,,,,,,,,,,,,841875,001,2024-06-28_11h59.32.828,5-20,2024.1.4,None,2024-06-28 11h59.38.170350 +0900,
Images/Speaker1.jpg,Images/Speaker2.jpg,Images/Speaker3.jpg,Images/Speaker4.jpg,Audio/Speaker4_Per/P4-19-Per.wav,Speaker4,گوینده۴,,,,,,,,0,12,12,78,,,,,,,,,,,,,78.94443200001842,,,,,,,,,,,,,,,,,,,,,,,,,,,,,,,,,,,,,,,,,,,,,78.91943162502139,78.94443200001842,78.94443200001842,78.94443200001842,78.94443200001842,78.95204045833864,78.94443200001842,78.94443200001842,79.25757654200424,Incorrect! The correct answer is Speaker4. نادرست! پاسخ صحیح گوینده۴ است,1,0.31052333299885504,None,3,0,79.2615001249942,79.27504979202058,81.25813904200913,81.28124654199928,,,,,,,,,,,,,,,,,,,,,,,,,,841875,001,2024-06-28_11h59.32.828,5-20,2024.1.4,None,2024-06-28 11h59.38.170350 +0900,
Images/Speaker1.jpg,Images/Speaker2.jpg,Images/Speaker3.jpg,Images/Speaker4.jpg,Audio/Speaker3_Per/P3-4-Per.wav,Speaker3,گوینده۳,,,,,,,,0,13,13,43,,,,,,,,,,,,,81.28124654199928,,,,,,,,,,,,,,,,,,,,,,,,,,,,,,,,,,,,,,,,,,,,,81.25830712501192,81.28124654199928,81.28124654199928,81.28124654199928,81.28124654199928,81.29115425033572,81.28124654199928,81.28124654199928,81.28189608399407,Incorrect! The correct answer is Speaker3. نادرست! پاسخ صحیح گوینده۳ است,1,2.188623791007558,None,3,0,81.28234999999404,81.29302233399358,83.27809462501318,83.30256887502037,,,,,,,,,,,,,,,,,,,,,,,,,,841875,001,2024-06-28_11h59.32.828,5-20,2024.1.4,None,2024-06-28 11h59.38.170350 +0900,
Images/Speaker1.jpg,Images/Speaker2.jpg,Images/Speaker3.jpg,Images/Speaker4.jpg,Audio/Speaker4_Per/P4-3-Per.wav,Speaker4,گوینده۴,,,,,,,,0,14,14,62,,,,,,,,,,,,,83.30256887502037,,,,,,,,,,,,,,,,,,,,,,,,,,,,,,,,,,,,,,,,,,,,,83.27827958401758,83.30256887502037,83.30256887502037,83.30256887502037,83.30256887502037,83.31121400034365,83.30256887502037,83.30256887502037,83.30329183401773,Incorrect! The correct answer is Speaker4. نادرست! پاسخ صحیح گوینده۴ است,1,1.8791370840044692,None,3,0,83.30362458401942,83.31393420899985,85.29747679200955,85.32119345900719,,,,,,,,,,,,,,,,,,,,,,,,,,841875,001,2024-06-28_11h59.32.828,5-20,2024.1.4,None,2024-06-28 11h59.38.170350 +0900,
Images/Speaker1.jpg,Images/Speaker2.jpg,Images/Speaker3.jpg,Images/Speaker4.jpg,Audio/Speaker1_Per/P1-16-Per.wav,Speaker1,گوینده ۱,,,,,,,,0,15,15,15,,,,,,,,,,,,,85.32119345900719,,,,,,,,,,,,,,,,,,,,,,,,,,,,,,,,,,,,,,,,,,,,,85.29765191700426,85.32119345900719,85.32119345900719,85.32119345900719,85.32119345900719,85.33055233333337,85.32119345900719,85.32119345900719,85.32178283401299,Correct! صحیح است,1,1.968716667004628,None,4,0,85.32205725001404,85.33045012500952,87.31431679200614,87.33529800001998,,,,,,,,,,,,,,,,,,,,,,,,,,841875,001,2024-06-28_11h59.32.828,5-20,2024.1.4,None,2024-06-28 11h59.38.170350 +0900,
Images/Speaker1.jpg,Images/Speaker2.jpg,Images/Speaker3.jpg,Images/Speaker4.jpg,Audio/Speaker1_Per/P1-3-Per.wav,Speaker1,گوینده ۱,,,,,,,,0,16,16,2,,,,,,,,,,,,,87.33529800001998,,,,,,,,,,,,,,,,,,,,,,,,,,,,,,,,,,,,,,,,,,,,,87.31452533401898,87.33529800001998,87.33529800001998,87.33529800001998,87.33529800001998,87.33074858365968,87.33529800001998,87.33529800001998,87.33586279200972,Correct! صحیح است,1,1.7885089999763295,None,5,0,87.33960687500075,87.3476603750023,89.33096254200791,89.35486225000932,,,,,,,,,,,,,,,,,,,,,,,,,,841875,001,2024-06-28_11h59.32.828,5-20,2024.1.4,None,2024-06-28 11h59.38.170350 +0900,
Images/Speaker1.jpg,Images/Speaker2.jpg,Images/Speaker3.jpg,Images/Speaker4.jpg,Audio/Speaker1_Per/P1-19-Per.wav,Speaker1,گوینده ۱,,,,,,,,0,17,17,18,,,,,,,,,,,,,89.35486225000932,,,,,,,,,,,,,,,,,,,,,,,,,,,,,,,,,,,,,,,,,,,,,89.33115949999774,89.35486225000932,89.35486225000932,89.35486225000932,89.35486225000932,89.36405604234508,89.35486225000932,89.35486225000932,89.35542841700953,Correct! صحیح است,1,0.22512395802186802,None,6,0,89.35584637499414,89.3647075839981,91.34891266701743,91.37531608401332,,,,,,,,,,,,,,,,,,,,,,,,,,841875,001,2024-06-28_11h59.32.828,5-20,2024.1.4,None,2024-06-28 11h59.38.170350 +0900,
Images/Speaker1.jpg,Images/Speaker2.jpg,Images/Speaker3.jpg,Images/Speaker4.jpg,Audio/Speaker1_Per/P1-8-Per.wav,Speaker1,گوینده ۱,,,,,,,,0,18,18,7,,,,,,,,,,,,,91.37531608401332,,,,,,,,,,,,,,,,,,,,,,,,,,,,,,,,,,,,,,,,,,,,,91.349098125007,91.37531608401332,91.37531608401332,91.37531608401332,91.37531608401332,91.38153862534867,91.37531608401332,91.37531608401332,91.37593158401432,Correct! صحیح است,1,1.992481791996397,None,7,0,91.37616270899889,91.38463675000821,93.36982358401292,93.39332750000176,,,,,,,,,,,,,,,,,,,,,,,,,,841875,001,2024-06-28_11h59.32.828,5-20,2024.1.4,None,2024-06-28 11h59.38.170350 +0900,
Images/Speaker1.jpg,Images/Speaker2.jpg,Images/Speaker3.jpg,Images/Speaker4.jpg,Audio/Speaker1_Per/P1-5-Per.wav,Speaker1,گوینده ۱,,,,,,,,0,19,19,4,,,,,,,,,,,,,93.39332750000176,,,,,,,,,,,,,,,,,,,,,,,,,,,,,,,,,,,,,,,,,,,,,93.36999583401484,93.39332750000176,93.39332750000176,93.39332750000176,93.39332750000176,93.40284316734372,93.39332750000176,93.39332750000176,93.45922704201075,Correct! صحیح است,1,0.06464920801226981,None,8,0,93.4633765000035,93.47451933400589,95.46034137500101,95.4837781249953,,,,,,,,,,,,,,,,,,,,,,,,,,841875,001,2024-06-28_11h59.32.828,5-20,2024.1.4,None,2024-06-28 11h59.38.170350 +0900,
Images/Speaker1.jpg,Images/Speaker2.jpg,Images/Speaker3.jpg,Images/Speaker4.jpg,Audio/Speaker3_Per/P3-12-Per.wav,Speaker3,گوینده۳,,,,,,,,0,20,20,51,,,,,,,,,,,,,95.4837781249953,,,,,,,,,,,,,,,,,,,,,,,,,,,,,,,,,,,,,,,,,,,,,95.46053183401818,95.4837781249953,95.4837781249953,95.4837781249953,95.4837781249953,95.49344808335493,95.4837781249953,95.4837781249953,95.64634974999353,Incorrect! The correct answer is Speaker3. نادرست! پاسخ صحیح گوینده۳ است,1,0.1613468750147149,None,8,0,95.65060250001261,95.66360450000502,97.65096216701204,,,,,,,,,,,,,,,,,,,,,,,,,,,841875,001,2024-06-28_11h59.32.828,5-20,2024.1.4,None,2024-06-28 11h59.38.170350 +0900,
Images/Speaker1.jpg,Images/Speaker2.jpg,Images/Speaker3.jpg,Images/Speaker4.jpg,Audio/Speaker4_Per/P4-2-Per.wav,Speaker4,گوینده۴,,,,,,,,0,21,21,61,,,,,,,,,,,,,97.67819058400346,,,,,,,,,,,,,,,,,,,,,,,,,,,,,,,,,,,,,,,,,,,,,97.65112916700309,97.67819058400346,97.67819058400346,97.67819058400346,97.67819058400346,97.68424725032722,97.67819058400346,97.67819058400346,97.67881870901329,Incorrect! The correct answer is Speaker4. نادرست! پاسخ صحیح گوینده۴ است,1,2.1819686669914518,None,8,0,97.67937483399874,97.68959795901901,99.67557358401245,99.69816916700802,,,,,,,,,,,,,,,,,,,,,,,,,,841875,001,2024-06-28_11h59.32.828,5-20,2024.1.4,None,2024-06-28 11h59.38.170350 +0900,
Images/Speaker1.jpg,Images/Speaker2.jpg,Images/Speaker3.jpg,Images/Speaker4.jpg,Audio/Speaker3_Per/P3-20-Per.wav,Speaker3,گوینده۳,,,,,,,,0,22,22,59,,,,,,,,,,,,,99.69816916700802,,,,,,,,,,,,,,,,,,,,,,,,,,,,,,,,,,,,,,,,,,,,,99.67580229201121,99.69816916700802,99.69816916700802,99.69816916700802,99.69816916700802,99.69201758367514,99.69816916700802,99.69816916700802,99.85799120902084,Incorrect! The correct answer is Speaker3. نادرست! پاسخ صحیح گوینده۳ است,1,0.14957470798981376,None,8,0,99.86186508400715,99.87474262501928,101.86985604200163,,,,,,,,,,,,,,,,,,,,,,,,,,,841875,001,2024-06-28_11h59.32.828,5-20,2024.1.4,None,2024-06-28 11h59.38.170350 +0900,
Images/Speaker1.jpg,Images/Speaker2.jpg,Images/Speaker3.jpg,Images/Speaker4.jpg,Audio/Speaker2_Per/P2-11-Per.wav,Speaker2,گوینده۲,,,,,,,,0,23,23,30,,,,,,,,,,,,,101.89686562499264,,,,,,,,,,,,,,,,,,,,,,,,,,,,,,,,,,,,,,,,,,,,,101.87051808400429,101.89686562499264,101.89686562499264,101.89686562499264,101.89686562499264,101.90304616734696,101.89686562499264,101.89686562499264,102.0295892500144,Incorrect! The correct answer is Speaker2. نادرست! پاسخ صحیح گوینده۲ است,1,0.13079466699855402,None,8,0,102.03377633402124,102.04678299999796,104.03098599999794,104.05561333399964,,,,,,,,,,,,,,,,,,,,,,,,,,841875,001,2024-06-28_11h59.32.828,5-20,2024.1.4,None,2024-06-28 11h59.38.170350 +0900,
Images/Speaker1.jpg,Images/Speaker2.jpg,Images/Speaker3.jpg,Images/Speaker4.jpg,Audio/Speaker4_Per/P4-9-Per.wav,Speaker4,گوینده۴,,,,,,,,0,24,24,68,,,,,,,,,,,,,104.05561333399964,,,,,,,,,,,,,,,,,,,,,,,,,,,,,,,,,,,,,,,,,,,,,104.0311496250215,104.05561333399964,104.05561333399964,104.05561333399964,104.05561333399964,104.06406783333708,104.05561333399964,104.05561333399964,104.0562473750033,Incorrect! The correct answer is Speaker4. نادرست! پاسخ صحیح گوینده۴ است,1,2.0793521250016056,None,8,0,104.05654762501945,104.06612237502122,106.04929170900141,106.07267466699705,,,,,,,,,,,,,,,,,,,,,,,,,,841875,001,2024-06-28_11h59.32.828,5-20,2024.1.4,None,2024-06-28 11h59.38.170350 +0900,
Images/Speaker1.jpg,Images/Speaker2.jpg,Images/Speaker3.jpg,Images/Speaker4.jpg,Audio/Speaker1_Per/P1-2-Per.wav,Speaker1,گوینده ۱,,,,,,,,0,25,25,1,,,,,,,,,,,,,106.07267466699705,,,,,,,,,,,,,,,,,,,,,,,,,,,,,,,,,,,,,,,,,,,,,106.0494539590145,106.07267466699705,106.07267466699705,106.07267466699705,106.07267466699705,106.08234266733828,106.07267466699705,106.07267466699705,106.07322812499478,Correct! صحیح است,1,1.7241480840020813,None,9,0,106.07374804202118,106.0821102920163,108.07559008401586,,,,,,,,,,,,,,,,,,,,,,,,,,,841875,001,2024-06-28_11h59.32.828,5-20,2024.1.4,None,2024-06-28 11h59.38.170350 +0900,
Images/Speaker1.jpg,Images/Speaker2.jpg,Images/Speaker3.jpg,Images/Speaker4.jpg,Audio/Speaker2_Per/P2-13-Per.wav,Speaker2,گوینده۲,,,,,,,,0,26,26,32,,,,,,,,,,,,,108.09999616700225,,,,,,,,,,,,,,,,,,,,,,,,,,,,,,,,,,,,,,,,,,,,,108.07623583401437,108.09999616700225,108.09999616700225,108.09999616700225,108.09999616700225,108.10872012534722,108.09999616700225,108.09999616700225,108.10059058401384,Incorrect! The correct answer is Speaker2. نادرست! پاسخ صحیح گوینده۲ است,1,1.7059936249861494,None,9,0,108.10095958400052,108.11095500001102,110.09794029200566,110.12134899999364,,,,,,,,,,,,,,,,,,,,,,,,,,841875,001,2024-06-28_11h59.32.828,5-20,2024.1.4,None,2024-06-28 11h59.38.170350 +0900,
Images/Speaker1.jpg,Images/Speaker2.jpg,Images/Speaker3.jpg,Images/Speaker4.jpg,Audio/Speaker2_Per/P2-4-Per.wav,Speaker2,گوینده۲,,,,,,,,0,27,27,23,,,,,,,,,,,,,110.12134899999364,,,,,,,,,,,,,,,,,,,,,,,,,,,,,,,,,,,,,,,,,,,,,110.09812229199451,110.12134899999364,110.12134899999364,110.12134899999364,110.12134899999364,110.1310054173305,110.12134899999364,110.12134899999364,110.1219242500083,Incorrect! The correct answer is Speaker2. نادرست! پاسخ صحیح گوینده۲ است,1,1.743319708009949,None,9,0,110.12216758402064,110.13226066701463,112.12657920899801,,,,,,,,,,,,,,,,,,,,,,,,,,,841875,001,2024-06-28_11h59.32.828,5-20,2024.1.4,None,2024-06-28 11h59.38.170350 +0900,
Images/Speaker1.jpg,Images/Speaker2.jpg,Images/Speaker3.jpg,Images/Speaker4.jpg,Audio/Speaker3_Per/P3-2-Per.wav,Speaker3,گوینده۳,,,,,,,,0,28,28,41,,,,,,,,,,,,,112.15001075001783,,,,,,,,,,,,,,,,,,,,,,,,,,,,,,,,,,,,,,,,,,,,,112.1267525840085,112.15001075001783,112.15001075001783,112.15001075001783,112.15001075001783,112.15987637535048,112.15001075001783,112.15001075001783,112.15071350001381,Incorrect! The correct answer is Speaker3. نادرست! پاسخ صحیح گوینده۳ است,1,1.6516531670058612,None,9,0,112.15096749999793,112.16114108401234,114.1437928340165,114.16704037500313,,,,,,,,,,,,,,,,,,,,,,,,,,841875,001,2024-06-28_11h59.32.828,5-20,2024.1.4,None,2024-06-28 11h59.38.170350 +0900,
Images/Speaker1.jpg,Images/Speaker2.jpg,Images/Speaker3.jpg,Images/Speaker4.jpg,Audio/Speaker4_Per/P4-11-Per.wav,Speaker4,گوینده۴,,,,,,,,0,29,29,70,,,,,,,,,,,,,114.16704037500313,,,,,,,,,,,,,,,,,,,,,,,,,,,,,,,,,,,,,,,,,,,,,114.14398108399473,114.16704037500313,114.16704037500313,114.16704037500313,114.16704037500313,114.17691591734959,114.16704037500313,114.16704037500313,114.16765083401697,Incorrect! The correct answer is Speaker4. نادرست! پاسخ صحیح گوینده۴ است,1,1.4533928750024643,None,9,0,114.16812841701903,114.17832912501763,116.16602075000992,116.18843358400045,,,,,,,,,,,,,,,,,,,,,,,,,,841875,001,2024-06-28_11h59.32.828,5-20,2024.1.4,None,2024-06-28 11h59.38.170350 +0900,
Images/Speaker1.jpg,Images/Speaker2.jpg,Images/Speaker3.jpg,Images/Speaker4.jpg,Audio/Speaker2_Per/P2-20-Per.wav,Speaker2,گوینده۲,,,,,,,,0,30,30,39,,,,,,,,,,,,,116.18843358400045,,,,,,,,,,,,,,,,,,,,,,,,,,,,,,,,,,,,,,,,,,,,,116.16620791700552,116.18843358400045,116.18843358400045,116.18843358400045,116.18843358400045,116.18248795866772,116.18843358400045,116.18843358400045,116.18900170901907,Incorrect! The correct answer is Speaker2. نادرست! پاسخ صحیح گوینده۲ است,1,1.7264567499805707,None,9,0,116.19285387502168,116.20232645899523,118.19380041700788,,,,,,,,,,,,,,,,,,,,,,,,,,,841875,001,2024-06-28_11h59.32.828,5-20,2024.1.4,None,2024-06-28 11h59.38.170350 +0900,
Images/Speaker1.jpg,Images/Speaker2.jpg,Images/Speaker3.jpg,Images/Speaker4.jpg,Audio/Speaker2_Per/P2-19-Per.wav,Speaker2,گوینده۲,,,,,,,,0,31,31,38,,,,,,,,,,,,,118.2205398750084,,,,,,,,,,,,,,,,,,,,,,,,,,,,,,,,,,,,,,,,,,,,,118.19436191700515,118.2205398750084,118.2205398750084,118.2205398750084,118.2205398750084,118.22696379235325,118.2205398750084,118.2205398750084,118.22105079199537,Incorrect! The correct answer is Speaker2. نادرست! پاسخ صحیح گوینده۲ است,1,1.6834207079955377,None,9,0,118.22130491700955,118.23128195901518,120.2193321250088,120.24713041700306,,,,,,,,,,,,,,,,,,,,,,,,,,841875,001,2024-06-28_11h59.32.828,5-20,2024.1.4,None,2024-06-28 11h59.38.170350 +0900,
Images/Speaker1.jpg,Images/Speaker2.jpg,Images/Speaker3.jpg,Images/Speaker4.jpg,Audio/Speaker1_Per/P1-20-Per.wav,Speaker1,گوینده ۱,,,,,,,,0,32,32,19,,,,,,,,,,,,,120.24713041700306,,,,,,,,,,,,,,,,,,,,,,,,,,,,,,,,,,,,,,,,,,,,,120.2201857920154,120.24713041700306,120.24713041700306,120.24713041700306,120.24713041700306,120.25174879234012,120.24713041700306,120.24713041700306,120.24775754200527,Correct! صحیح است,1,0.1103900000161957,None,10,0,120.24819437501719,120.25662320901756,122.24840341700474,122.27370358401095,,,,,,,,,,,,,,,,,,,,,,,,,,841875,001,2024-06-28_11h59.32.828,5-20,2024.1.4,None,2024-06-28 11h59.38.170350 +0900,
Images/Speaker1.jpg,Images/Speaker2.jpg,Images/Speaker3.jpg,Images/Speaker4.jpg,Audio/Speaker1_Per/P1-12-Per.wav,Speaker1,گوینده ۱,,,,,,,,0,33,33,11,,,,,,,,,,,,,122.27370358401095,,,,,,,,,,,,,,,,,,,,,,,,,,,,,,,,,,,,,,,,,,,,,122.24911237499327,122.27370358401095,122.27370358401095,122.27370358401095,122.27370358401095,122.28089054235218,122.27370358401095,122.27370358401095,122.43820829200558,Correct! صحیح است,1,0.1568716250185389,None,11,0,122.44200016700779,122.45274441700894,124.43813991700881,124.46556258399505,,,,,,,,,,,,,,,,,,,,,,,,,,841875,001,2024-06-28_11h59.32.828,5-20,2024.1.4,None,2024-06-28 11h59.38.170350 +0900,
Images/Speaker1.jpg,Images/Speaker2.jpg,Images/Speaker3.jpg,Images/Speaker4.jpg,Audio/Speaker1_Per/P1-15-Per.wav,Speaker1,گوینده ۱,,,,,,,,0,34,34,14,,,,,,,,,,,,,124.46556258399505,,,,,,,,,,,,,,,,,,,,,,,,,,,,,,,,,,,,,,,,,,,,,124.43868179200217,124.46556258399505,124.46556258399505,124.46556258399505,124.46556258399505,124.47027975033464,124.46556258399505,124.46556258399505,124.64499737499864,Correct! صحیح است,1,0.16720070800511166,None,12,0,124.6489359170082,124.6575411670201,126.64523333401303,126.66849983402062,,,,,,,,,,,,,,,,,,,,,,,,,,841875,001,2024-06-28_11h59.32.828,5-20,2024.1.4,None,2024-06-28 11h59.38.170350 +0900,
Images/Speaker1.jpg,Images/Speaker2.jpg,Images/Speaker3.jpg,Images/Speaker4.jpg,Audio/Speaker4_Per/P4-10-Per.wav,Speaker4,گوینده۴,,,,,,,,0,35,35,69,,,,,,,,,,,,,126.66849983402062,,,,,,,,,,,,,,,,,,,,,,,,,,,,,,,,,,,,,,,,,,,,,126.64539308400708,126.66849983402062,126.66849983402062,126.66849983402062,126.66849983402062,126.67834566735158,126.66849983402062,126.66849983402062,126.80010779201984,Incorrect! The correct answer is Speaker4. نادرست! پاسخ صحیح گوینده۴ است,1,0.12935729100718163,None,12,0,126.80385933400248,126.8166463340167,128.80454787501367,,,,,,,,,,,,,,,,,,,,,,,,,,,841875,001,2024-06-28_11h59.32.828,5-20,2024.1.4,None,2024-06-28 11h59.38.170350 +0900,
Images/Speaker1.jpg,Images/Speaker2.jpg,Images/Speaker3.jpg,Images/Speaker4.jpg,Audio/Speaker3_Per/P3-7-Per.wav,Speaker3,گوینده۳,,,,,,,,0,36,36,46,,,,,,,,,,,,,128.8275661249936,,,,,,,,,,,,,,,,,,,,,,,,,,,,,,,,,,,,,,,,,,,,,128.8047097499948,128.8275661249936,128.8275661249936,128.8275661249936,128.8275661249936,128.8211737506829,128.8275661249936,128.8275661249936,128.9916012090107,Incorrect! The correct answer is Speaker3. نادرست! پاسخ صحیح گوینده۳ است,1,0.15496387501480058,None,12,0,128.99550612500752,129.0061840840208,130.99859554201248,,,,,,,,,,,,,,,,,,,,,,,,,,,841875,001,2024-06-28_11h59.32.828,5-20,2024.1.4,None,2024-06-28 11h59.38.170350 +0900,
Images/Speaker1.jpg,Images/Speaker2.jpg,Images/Speaker3.jpg,Images/Speaker4.jpg,Audio/Speaker3_Per/P3-9-Per.wav,Speaker3,گوینده۳,,,,,,,,0,37,37,48,,,,,,,,,,,,,131.02859058399918,,,,,,,,,,,,,,,,,,,,,,,,,,,,,,,,,,,,,,,,,,,,,130.99917754202033,131.02859058399918,131.02859058399918,131.02859058399918,131.02859058399918,131.03174750033264,131.02859058399918,131.02859058399918,131.02923379201093,Incorrect! The correct answer is Speaker3. نادرست! پاسخ صحیح گوینده۳ است,1,2.1666092920058873,None,12,0,131.03295024999534,131.04361629200866,133.03979554201942,,,,,,,,,,,,,,,,,,,,,,,,,,,841875,001,2024-06-28_11h59.32.828,5-20,2024.1.4,None,2024-06-28 11h59.38.170350 +0900,
Images/Speaker1.jpg,Images/Speaker2.jpg,Images/Speaker3.jpg,Images/Speaker4.jpg,Audio/Speaker4_Per/P4-6-Per.wav,Speaker4,گوینده۴,,,,,,,,0,38,38,65,,,,,,,,,,,,,133.0678057920013,,,,,,,,,,,,,,,,,,,,,,,,,,,,,,,,,,,,,,,,,,,,,133.0404559590097,133.0678057920013,133.0678057920013,133.0678057920013,133.0678057920013,133.0729514173368,133.0678057920013,133.0678057920013,133.1611192499986,Incorrect! The correct answer is Speaker4. نادرست! پاسخ صحیح گوینده۴ است,1,0.09122149998438545,None,12,0,133.1651316670177,133.17792750001536,135.1697436250106,,,,,,,,,,,,,,,,,,,,,,,,,,,841875,001,2024-06-28_11h59.32.828,5-20,2024.1.4,None,2024-06-28 11h59.38.170350 +0900,
Images/Speaker1.jpg,Images/Speaker2.jpg,Images/Speaker3.jpg,Images/Speaker4.jpg,Audio/Speaker2_Per/P2-12-Per.wav,Speaker2,گوینده۲,,,,,,,,0,39,39,31,,,,,,,,,,,,,135.1938965000154,,,,,,,,,,,,,,,,,,,,,,,,,,,,,,,,,,,,,,,,,,,,,135.16991270901053,135.1938965000154,135.1938965000154,135.1938965000154,135.1938965000154,135.20304070832987,135.1938965000154,135.1938965000154,135.19454129200312,Incorrect! The correct answer is Speaker2. نادرست! پاسخ صحیح گوینده۲ است,1,1.9975068749918137,None,12,0,135.1948142920155,135.20431229201495,137.19444154200028,137.21775395900477,,,,,,,,,,,,,,,,,,,,,,,,,,841875,001,2024-06-28_11h59.32.828,5-20,2024.1.4,None,2024-06-28 11h59.38.170350 +0900,
Images/Speaker1.jpg,Images/Speaker2.jpg,Images/Speaker3.jpg,Images/Speaker4.jpg,Audio/Speaker4_Per/P4-17-Per.wav,Speaker4,گوینده۴,,,,,,,,0,40,40,76,,,,,,,,,,,,,137.21775395900477,,,,,,,,,,,,,,,,,,,,,,,,,,,,,,,,,,,,,,,,,,,,,137.19460975000402,137.21775395900477,137.21775395900477,137.21775395900477,137.21775395900477,137.227539000342,137.21775395900477,137.21775395900477,137.2602536250197,Incorrect! The correct answer is Speaker4. نادرست! پاسخ صحیح گوینده۴ است,1,0.0377580409985967,None,12,0,137.26451691699913,137.27741545901517,139.26543425000273,,,,,,,,,,,,,,,,,,,,,,,,,,,841875,001,2024-06-28_11h59.32.828,5-20,2024.1.4,None,2024-06-28 11h59.38.170350 +0900,
Images/Speaker1.jpg,Images/Speaker2.jpg,Images/Speaker3.jpg,Images/Speaker4.jpg,Audio/Speaker3_Per/P3-15-Per.wav,Speaker3,گوینده۳,,,,,,,,0,41,41,54,,,,,,,,,,,,,139.29520616700756,,,,,,,,,,,,,,,,,,,,,,,,,,,,,,,,,,,,,,,,,,,,,139.2660358340072,139.29520616700756,139.29520616700756,139.29520616700756,139.29520616700756,139.2986111253345,139.29520616700756,139.29520616700756,139.7057598340034,Incorrect! The correct answer is Speaker3. نادرست! پاسخ صحیح گوینده۳ است,1,0.4059500409930479,None,12,0,139.70995666700765,139.72291687500547,141.70739416699507,141.73067683400586,,,,,,,,,,,,,,,,,,,,,,,,,,841875,001,2024-06-28_11h59.32.828,5-20,2024.1.4,None,2024-06-28 11h59.38.170350 +0900,
Images/Speaker1.jpg,Images/Speaker2.jpg,Images/Speaker3.jpg,Images/Speaker4.jpg,Audio/Speaker3_Per/P3-10-Per.wav,Speaker3,گوینده۳,,,,,,,,0,42,42,49,,,,,,,,,,,,,141.73067683400586,,,,,,,,,,,,,,,,,,,,,,,,,,,,,,,,,,,,,,,,,,,,,141.70758691700757,141.73067683400586,141.73067683400586,141.73067683400586,141.73067683400586,141.74048395834012,141.73067683400586,141.73067683400586,141.73131066700444,Incorrect! The correct answer is Speaker3. نادرست! پاسخ صحیح گوینده۳ است,1,2.381736290990375,None,12,0,141.73172470901045,141.74214579199906,143.7298576250032,143.75862512501772,,,,,,,,,,,,,,,,,,,,,,,,,,841875,001,2024-06-28_11h59.32.828,5-20,2024.1.4,None,2024-06-28 11h59.38.170350 +0900,
Images/Speaker1.jpg,Images/Speaker2.jpg,Images/Speaker3.jpg,Images/Speaker4.jpg,Audio/Speaker1_Per/P1-9-Per.wav,Speaker1,گوینده ۱,,,,,,,,0,43,43,8,,,,,,,,,,,,,143.75862512501772,,,,,,,,,,,,,,,,,,,,,,,,,,,,,,,,,,,,,,,,,,,,,143.7307942089974,143.75862512501772,143.75862512501772,143.75862512501772,143.75862512501772,143.7621342083517,143.75862512501772,143.75862512501772,143.90423679200467,Correct! صحیح است,1,0.14429354202002287,None,13,0,143.90836204201332,143.91922300000442,145.90299362500082,145.92675933401915,,,,,,,,,,,,,,,,,,,,,,,,,,841875,001,2024-06-28_11h59.32.828,5-20,2024.1.4,None,2024-06-28 11h59.38.170350 +0900,
Images/Speaker1.jpg,Images/Speaker2.jpg,Images/Speaker3.jpg,Images/Speaker4.jpg,Audio/Speaker4_Per/P4-12-Per.wav,Speaker4,گوینده۴,,,,,,,,0,44,44,71,,,,,,,,,,,,,145.92675933401915,,,,,,,,,,,,,,,,,,,,,,,,,,,,,,,,,,,,,,,,,,,,,145.9031765840191,145.92675933401915,145.92675933401915,145.92675933401915,145.92675933401915,145.93611750033648,145.92675933401915,145.92675933401915,146.07048095899518,Incorrect! The correct answer is Speaker4. نادرست! پاسخ صحیح گوینده۴ است,1,0.13739691700902767,None,13,0,146.0746337500168,146.0873380000121,148.08214258399676,,,,,,,,,,,,,,,,,,,,,,,,,,,841875,001,2024-06-28_11h59.32.828,5-20,2024.1.4,None,2024-06-28 11h59.38.170350 +0900,
Images/Speaker1.jpg,Images/Speaker2.jpg,Images/Speaker3.jpg,Images/Speaker4.jpg,Audio/Speaker3_Per/P3-1-Per.wav,Speaker3,گوینده۳,,,,,,,,0,45,45,40,,,,,,,,,,,,,148.10856837499887,,,,,,,,,,,,,,,,,,,,,,,,,,,,,,,,,,,,,,,,,,,,,148.08276074999594,148.10856837499887,148.10856837499887,148.10856837499887,148.10856837499887,148.11527820834505,148.10856837499887,148.10856837499887,148.1091679590172,Incorrect! The correct answer is Speaker3. نادرست! پاسخ صحیح گوینده۳ است,1,2.1006269170029555,None,13,0,148.1095662919979,148.1192259590025,150.10921837500064,150.1324533750012,,,,,,,,,,,,,,,,,,,,,,,,,,841875,001,2024-06-28_11h59.32.828,5-20,2024.1.4,None,2024-06-28 11h59.38.170350 +0900,
Images/Speaker1.jpg,Images/Speaker2.jpg,Images/Speaker3.jpg,Images/Speaker4.jpg,Audio/Speaker2_Per/P2-2-Per.wav,Speaker2,گوینده۲,,,,,,,,0,46,46,21,,,,,,,,,,,,,150.1324533750012,,,,,,,,,,,,,,,,,,,,,,,,,,,,,,,,,,,,,,,,,,,,,150.10938850001548,150.1324533750012,150.1324533750012,150.1324533750012,150.1324533750012,150.14230083334456,150.1324533750012,150.1324533750012,150.28312608401757,Incorrect! The correct answer is Speaker2. نادرست! پاسخ صحیح گوینده۲ است,1,0.1476395420031622,None,13,0,150.28708187499433,150.29968920900137,152.29400683401036,,,,,,,,,,,,,,,,,,,,,,,,,,,841875,001,2024-06-28_11h59.32.828,5-20,2024.1.4,None,2024-06-28 11h59.38.170350 +0900,
Images/Speaker1.jpg,Images/Speaker2.jpg,Images/Speaker3.jpg,Images/Speaker4.jpg,Audio/Speaker4_Per/P4-15-Per.wav,Speaker4,گوینده۴,,,,,,,,0,47,47,74,,,,,,,,,,,,,152.31797495900537,,,,,,,,,,,,,,,,,,,,,,,,,,,,,,,,,,,,,,,,,,,,,152.29418491700199,152.31797495900537,152.31797495900537,152.31797495900537,152.31797495900537,152.32730341735493,152.31797495900537,152.31797495900537,152.5163316669932,Incorrect! The correct answer is Speaker4. نادرست! پاسخ صحیح گوینده۴ است,1,None,None,13,0,152.52039954200154,152.53152925000177,154.52765595901292,,,,,,,,,,,,,,,,,,,,,,,,,,,841875,001,2024-06-28_11h59.32.828,5-20,2024.1.4,None,2024-06-28 11h59.38.170350 +0900,
Images/Speaker1.jpg,Images/Speaker2.jpg,Images/Speaker3.jpg,Images/Speaker4.jpg,Audio/Speaker3_Per/P3-11-Per.wav,Speaker3,گوینده۳,,,,,,,,0,48,48,50,,,,,,,,,,,,,154.55114220900577,,,,,,,,,,,,,,,,,,,,,,,,,,,,,,,,,,,,,,,,,,,,,154.52780529201846,154.55114220900577,154.55114220900577,154.55114220900577,154.55114220900577,154.56095387534202,154.55114220900577,154.55114220900577,154.61836229200708,Incorrect! The correct answer is Speaker3. نادرست! پاسخ صحیح گوینده۳ است,1,0.06303087502601556,None,13,0,154.6224168339977,154.63492241699714,156.62308870902052,,,,,,,,,,,,,,,,,,,,,,,,,,,841875,001,2024-06-28_11h59.32.828,5-20,2024.1.4,None,2024-06-28 11h59.38.170350 +0900,
Images/Speaker1.jpg,Images/Speaker2.jpg,Images/Speaker3.jpg,Images/Speaker4.jpg,Audio/Speaker2_Per/P2-14-Per.wav,Speaker2,گوینده۲,,,,,,,,0,49,49,33,,,,,,,,,,,,,156.64713016699534,,,,,,,,,,,,,,,,,,,,,,,,,,,,,,,,,,,,,,,,,,,,,156.62327629199717,156.64713016699534,156.64713016699534,156.64713016699534,156.64713016699534,156.65637650033074,156.64713016699534,156.64713016699534,156.67428004200337,Incorrect! The correct answer is Speaker2. نادرست! پاسخ صحیح گوینده۲ است,1,0.02586804100428708,None,13,0,156.67808483401313,156.6912828340137,158.67408608400729,158.69744416701724,,,,,,,,,,,,,,,,,,,,,,,,,,841875,001,2024-06-28_11h59.32.828,5-20,2024.1.4,None,2024-06-28 11h59.38.170350 +0900,
Images/Speaker1.jpg,Images/Speaker2.jpg,Images/Speaker3.jpg,Images/Speaker4.jpg,Audio/Speaker4_Per/P4-8-Per.wav,Speaker4,گوینده۴,,,,,,,,0,50,50,67,,,,,,,,,,,,,158.69744416701724,,,,,,,,,,,,,,,,,,,,,,,,,,,,,,,,,,,,,,,,,,,,,158.67424629200832,158.69744416701724,158.69744416701724,158.69744416701724,158.69744416701724,158.7072026253523,158.69744416701724,158.69744416701724,158.77363620899268,Incorrect! The correct answer is Speaker4. نادرست! پاسخ صحیح گوینده۴ است,1,0.071780582977226,None,13,0,158.77744125001482,158.79066870899987,160.77541095900233,160.79886712500593,,,,,,,,,,,,,,,,,,,,,,,,,,841875,001,2024-06-28_11h59.32.828,5-20,2024.1.4,None,2024-06-28 11h59.38.170350 +0900,
Images/Speaker1.jpg,Images/Speaker2.jpg,Images/Speaker3.jpg,Images/Speaker4.jpg,Audio/Speaker1_Per/P1-4-Per.wav,Speaker1,گوینده ۱,,,,,,,,0,51,51,13,,,,,,,,,,,,,160.79886712500593,,,,,,,,,,,,,,,,,,,,,,,,,,,,,,,,,,,,,,,,,,,,,160.77561491701636,160.79886712500593,160.79886712500593,160.79886712500593,160.79886712500593,160.80850362534017,160.79886712500593,160.79886712500593,160.7994496250176,Correct! صحیح است,1,1.8748886669927742,None,14,0,160.7999352500192,160.80779483402148,162.79946962499525,162.82343099999707,,,,,,,,,,,,,,,,,,,,,,,,,,841875,001,2024-06-28_11h59.32.828,5-20,2024.1.4,None,2024-06-28 11h59.38.170350 +0900,
Images/Speaker1.jpg,Images/Speaker2.jpg,Images/Speaker3.jpg,Images/Speaker4.jpg,Audio/Speaker3_Per/P3-8-Per.wav,Speaker3,گوینده۳,,,,,,,,0,52,52,47,,,,,,,,,,,,,162.82343099999707,,,,,,,,,,,,,,,,,,,,,,,,,,,,,,,,,,,,,,,,,,,,,162.79963087500073,162.82343099999707,162.82343099999707,162.82343099999707,162.82343099999707,162.83257691734667,162.82343099999707,162.82343099999707,163.1065320839989,Incorrect! The correct answer is Speaker3. نادرست! پاسخ صحیح گوینده۳ است,1,0.28153979100170545,None,14,0,163.11069724999834,163.1243764590181,165.1163117090182,,,,,,,,,,,,,,,,,,,,,,,,,,,841875,001,2024-06-28_11h59.32.828,5-20,2024.1.4,None,2024-06-28 11h59.38.170350 +0900,
Images/Speaker1.jpg,Images/Speaker2.jpg,Images/Speaker3.jpg,Images/Speaker4.jpg,Audio/Speaker3_Per/P3-17-Per.wav,Speaker3,گوینده۳,,,,,,,,0,53,53,56,,,,,,,,,,,,,165.1415802090196,,,,,,,,,,,,,,,,,,,,,,,,,,,,,,,,,,,,,,,,,,,,,165.11691524999333,165.1415802090196,165.1415802090196,165.1415802090196,165.1415802090196,165.14947725032886,165.1415802090196,165.1415802090196,165.45890562501154,Incorrect! The correct answer is Speaker3. نادرست! پاسخ صحیح گوینده۳ است,1,0.304383249982493,None,14,0,165.4628378339985,165.47586416700506,167.46586416699574,,,,,,,,,,,,,,,,,,,,,,,,,,,841875,001,2024-06-28_11h59.32.828,5-20,2024.1.4,None,2024-06-28 11h59.38.170350 +0900,
Images/Speaker1.jpg,Images/Speaker2.jpg,Images/Speaker3.jpg,Images/Speaker4.jpg,Audio/Speaker2_Per/P2-18-Per.wav,Speaker2,گوینده۲,,,,,,,,0,54,54,37,,,,,,,,,,,,,167.48951287500677,,,,,,,,,,,,,,,,,,,,,,,,,,,,,,,,,,,,,,,,,,,,,167.46621754200896,167.48951287500677,167.48951287500677,167.48951287500677,167.48951287500677,167.48244508367887,167.48951287500677,167.48951287500677,167.51747204200365,Incorrect! The correct answer is Speaker2. نادرست! پاسخ صحیح گوینده۲ است,1,0.02131954100332223,None,14,0,167.5215617500071,167.53404995900928,169.5221852090035,,,,,,,,,,,,,,,,,,,,,,,,,,,841875,001,2024-06-28_11h59.32.828,5-20,2024.1.4,None,2024-06-28 11h59.38.170350 +0900,
Images/Speaker1.jpg,Images/Speaker2.jpg,Images/Speaker3.jpg,Images/Speaker4.jpg,Audio/Speaker1_Per/P1-6-Per.wav,Speaker1,گوینده ۱,,,,,,,,0,55,55,5,,,,,,,,,,,,,169.54656208399683,,,,,,,,,,,,,,,,,,,,,,,,,,,,,,,,,,,,,,,,,,,,,169.52236083400203,169.54656208399683,169.54656208399683,169.54656208399683,169.54656208399683,169.55548083334776,169.54656208399683,169.54656208399683,169.67967283399776,Correct! صحیح است,1,0.13112570898374543,None,15,0,169.68375550000928,169.6948755000194,171.67782804201124,171.70173962501576,,,,,,,,,,,,,,,,,,,,,,,,,,841875,001,2024-06-28_11h59.32.828,5-20,2024.1.4,None,2024-06-28 11h59.38.170350 +0900,
Images/Speaker1.jpg,Images/Speaker2.jpg,Images/Speaker3.jpg,Images/Speaker4.jpg,Audio/Speaker3_Per/P3-6-Per.wav,Speaker3,گوینده۳,,,,,,,,0,56,56,45,,,,,,,,,,,,,171.70173962501576,,,,,,,,,,,,,,,,,,,,,,,,,,,,,,,,,,,,,,,,,,,,,171.6780223340029,171.70173962501576,171.70173962501576,171.70173962501576,171.70173962501576,171.71092975032713,171.70173962501576,171.70173962501576,171.73874349999824,Incorrect! The correct answer is Speaker3. نادرست! پاسخ صحیح گوینده۳ است,1,0.0324112500238698,None,15,0,171.7425030420127,171.7549964589998,173.75015783400158,,,,,,,,,,,,,,,,,,,,,,,,,,,841875,001,2024-06-28_11h59.32.828,5-20,2024.1.4,None,2024-06-28 11h59.38.170350 +0900,
Images/Speaker1.jpg,Images/Speaker2.jpg,Images/Speaker3.jpg,Images/Speaker4.jpg,Audio/Speaker4_Per/P4-5-Per.wav,Speaker4,گوینده۴,,,,,,,,0,57,57,64,,,,,,,,,,,,,173.77203762499266,,,,,,,,,,,,,,,,,,,,,,,,,,,,,,,,,,,,,,,,,,,,,173.75030725001125,173.77203762499266,173.77203762499266,173.77203762499266,173.77203762499266,173.76679045867448,173.77203762499266,173.77203762499266,173.95192166700144,Incorrect! The correct answer is Speaker4. نادرست! پاسخ صحیح گوینده۴ است,1,0.17738825001288205,None,15,0,173.95596091699554,173.96980791701935,175.9550000000163,175.97848670900567,,,,,,,,,,,,,,,,,,,,,,,,,,841875,001,2024-06-28_11h59.32.828,5-20,2024.1.4,None,2024-06-28 11h59.38.170350 +0900,
Images/Speaker1.jpg,Images/Speaker2.jpg,Images/Speaker3.jpg,Images/Speaker4.jpg,Audio/Speaker2_Per/P2-7-Per.wav,Speaker2,گوینده۲,,,,,,,,0,58,58,26,,,,,,,,,,,,,175.97848670900567,,,,,,,,,,,,,,,,,,,,,,,,,,,,,,,,,,,,,,,,,,,,,175.95520349999424,175.97848670900567,175.97848670900567,175.97848670900567,175.97848670900567,175.98805395834694,175.97848670900567,175.97848670900567,176.06804883401492,Incorrect! The correct answer is Speaker2. نادرست! پاسخ صحیح گوینده۲ است,1,0.0759164160117507,None,15,0,176.0722663750057,176.08252208400518,178.07538712501992,,,,,,,,,,,,,,,,,,,,,,,,,,,841875,001,2024-06-28_11h59.32.828,5-20,2024.1.4,None,2024-06-28 11h59.38.170350 +0900,
Images/Speaker1.jpg,Images/Speaker2.jpg,Images/Speaker3.jpg,Images/Speaker4.jpg,Audio/Speaker2_Per/P2-9-Per.wav,Speaker2,گوینده۲,,,,,,,,0,59,59,28,,,,,,,,,,,,,178.0983498750138,,,,,,,,,,,,,,,,,,,,,,,,,,,,,,,,,,,,,,,,,,,,,178.07556625001598,178.0983498750138,178.0983498750138,178.0983498750138,178.0983498750138,178.0920167916668,178.0983498750138,178.0983498750138,178.0990385840123,Incorrect! The correct answer is Speaker2. نادرست! پاسخ صحیح گوینده۲ است,1,2.0285175410099328,None,15,0,178.10313816700364,178.11263304200838,180.09591866700794,180.11992812500102,,,,,,,,,,,,,,,,,,,,,,,,,,841875,001,2024-06-28_11h59.32.828,5-20,2024.1.4,None,2024-06-28 11h59.38.170350 +0900,
Images/Speaker1.jpg,Images/Speaker2.jpg,Images/Speaker3.jpg,Images/Speaker4.jpg,Audio/Speaker4_Per/P4-18-Per.wav,Speaker4,گوینده۴,,,,,,,,0,60,60,77,,,,,,,,,,,,,180.11992812500102,,,,,,,,,,,,,,,,,,,,,,,,,,,,,,,,,,,,,,,,,,,,,180.0966298340063,180.11992812500102,180.11992812500102,180.11992812500102,180.11992812500102,180.12837612533673,180.11992812500102,180.11992812500102,180.29950058402028,Incorrect! The correct answer is Speaker4. نادرست! پاسخ صحیح گوینده۴ است,1,0.1749275000183843,None,15,0,180.30318554199766,180.31632241699845,182.30401008401532,,,,,,,,,,,,,,,,,,,,,,,,,,,841875,001,2024-06-28_11h59.32.828,5-20,2024.1.4,None,2024-06-28 11h59.38.170350 +0900,
Images/Speaker1.jpg,Images/Speaker2.jpg,Images/Speaker3.jpg,Images/Speaker4.jpg,Audio/Speaker4_Per/P4-13-Per.wav,Speaker4,گوینده۴,,,,,,,,0,61,61,72,,,,,,,,,,,,,182.32721291700727,,,,,,,,,,,,,,,,,,,,,,,,,,,,,,,,,,,,,,,,,,,,,182.30416987501667,182.32721291700727,182.32721291700727,182.32721291700727,182.32721291700727,182.33730966735362,182.32721291700727,182.32721291700727,182.32794808401377,Incorrect! The correct answer is Speaker4. نادرست! پاسخ صحیح گوینده۴ است,1,2.0813182910205796,None,15,0,182.32814691701788,182.33829562499886,184.3232704999973,184.34910833401955,,,,,,,,,,,,,,,,,,,,,,,,,,841875,001,2024-06-28_11h59.32.828,5-20,2024.1.4,None,2024-06-28 11h59.38.170350 +0900,
Images/Speaker1.jpg,Images/Speaker2.jpg,Images/Speaker3.jpg,Images/Speaker4.jpg,Audio/Speaker1_Per/P1-7-Per.wav,Speaker1,گوینده ۱,,,,,,,,0,62,62,6,,,,,,,,,,,,,184.34910833401955,,,,,,,,,,,,,,,,,,,,,,,,,,,,,,,,,,,,,,,,,,,,,184.3237887500145,184.34910833401955,184.34910833401955,184.34910833401955,184.34910833401955,184.35636404233134,184.34910833401955,184.34910833401955,184.3497750420065,Correct! صحیح است,1,1.9271335410012398,None,16,0,184.35004841699265,184.35910354199586,186.34817899999325,186.3714342089952,,,,,,,,,,,,,,,,,,,,,,,,,,841875,001,2024-06-28_11h59.32.828,5-20,2024.1.4,None,2024-06-28 11h59.38.170350 +0900,
Images/Speaker1.jpg,Images/Speaker2.jpg,Images/Speaker3.jpg,Images/Speaker4.jpg,Audio/Speaker4_Per/P4-1-Per.wav,Speaker4,گوینده۴,,,,,,,,0,63,63,60,,,,,,,,,,,,,186.3714342089952,,,,,,,,,,,,,,,,,,,,,,,,,,,,,,,,,,,,,,,,,,,,,186.34834450000199,186.3714342089952,186.3714342089952,186.3714342089952,186.3714342089952,186.381207792329,186.3714342089952,186.3714342089952,186.41253316699294,Incorrect! The correct answer is Speaker4. نادرست! پاسخ صحیح گوینده۴ است,1,0.038247959018917754,None,16,0,186.41665020899381,186.42941083401092,188.41201558400644,188.4353224170045,,,,,,,,,,,,,,,,,,,,,,,,,,841875,001,2024-06-28_11h59.32.828,5-20,2024.1.4,None,2024-06-28 11h59.38.170350 +0900,
Images/Speaker1.jpg,Images/Speaker2.jpg,Images/Speaker3.jpg,Images/Speaker4.jpg,Audio/Speaker1_Per/P1-10-Per.wav,Speaker1,گوینده ۱,,,,,,,,0,64,64,9,,,,,,,,,,,,,188.4353224170045,,,,,,,,,,,,,,,,,,,,,,,,,,,,,,,,,,,,,,,,,,,,,188.41220024999348,188.4353224170045,188.4353224170045,188.4353224170045,188.4353224170045,188.4451494173341,188.4353224170045,188.4353224170045,188.60800883400952,Correct! صحیح است,1,0.16088204199331813,None,17,0,188.61231687502004,188.62361137502012,190.60643304200494,190.63052750000497,,,,,,,,,,,,,,,,,,,,,,,,,,841875,001,2024-06-28_11h59.32.828,5-20,2024.1.4,None,2024-06-28 11h59.38.170350 +0900,
Images/Speaker1.jpg,Images/Speaker2.jpg,Images/Speaker3.jpg,Images/Speaker4.jpg,Audio/Speaker3_Per/P3-19-Per.wav,Speaker3,گوینده۳,,,,,,,,0,65,65,58,,,,,,,,,,,,,190.63052750000497,,,,,,,,,,,,,,,,,,,,,,,,,,,,,,,,,,,,,,,,,,,,,190.60660616701352,190.63052750000497,190.63052750000497,190.63052750000497,190.63052750000497,190.6394617083502,190.63052750000497,190.63052750000497,190.63113291701302,Incorrect! The correct answer is Speaker3. نادرست! پاسخ صحیح گوینده۳ است,1,2.1558782499923836,None,17,0,190.63165383401792,190.64122654200764,192.6334269590152,,,,,,,,,,,,,,,,,,,,,,,,,,,841875,001,2024-06-28_11h59.32.828,5-20,2024.1.4,None,2024-06-28 11h59.38.170350 +0900,
Images/Speaker1.jpg,Images/Speaker2.jpg,Images/Speaker3.jpg,Images/Speaker4.jpg,Audio/Speaker2_Per/P2-3-Per.wav,Speaker2,گوینده۲,,,,,,,,0,66,66,22,,,,,,,,,,,,,192.65599016699707,,,,,,,,,,,,,,,,,,,,,,,,,,,,,,,,,,,,,,,,,,,,,192.63358991700807,192.65599016699707,192.65599016699707,192.65599016699707,192.65599016699707,192.6500586256773,192.65599016699707,192.65599016699707,192.74451041701832,Incorrect! The correct answer is Speaker2. نادرست! پاسخ صحیح گوینده۲ است,1,0.08022612502099946,None,17,0,192.7482569590211,192.76065395900514,194.74419733401737,194.76654079201398,,,,,,,,,,,,,,,,,,,,,,,,,,841875,001,2024-06-28_11h59.32.828,5-20,2024.1.4,None,2024-06-28 11h59.38.170350 +0900,
Images/Speaker1.jpg,Images/Speaker2.jpg,Images/Speaker3.jpg,Images/Speaker4.jpg,Audio/Speaker4_Per/P4-20-Per.wav,Speaker4,گوینده۴,,,,,,,,0,67,67,79,,,,,,,,,,,,,194.76654079201398,,,,,,,,,,,,,,,,,,,,,,,,,,,,,,,,,,,,,,,,,,,,,194.7443867920083,194.76654079201398,194.76654079201398,194.76654079201398,194.76654079201398,194.76063429168815,194.76654079201398,194.76654079201398,194.7671492920199,Incorrect! The correct answer is Speaker4. نادرست! پاسخ صحیح گوینده۴ است,1,2.070321250008419,None,17,0,194.7713426249975,194.78188662501634,196.7756339170155,,,,,,,,,,,,,,,,,,,,,,,,,,,841875,001,2024-06-28_11h59.32.828,5-20,2024.1.4,None,2024-06-28 11h59.38.170350 +0900,
Images/Speaker1.jpg,Images/Speaker2.jpg,Images/Speaker3.jpg,Images/Speaker4.jpg,Audio/Speaker4_Per/P4-14-Per.wav,Speaker4,گوینده۴,,,,,,,,0,68,68,73,,,,,,,,,,,,,196.79929250001442,,,,,,,,,,,,,,,,,,,,,,,,,,,,,,,,,,,,,,,,,,,,,196.7758488340187,196.79929250001442,196.79929250001442,196.79929250001442,196.79929250001442,196.80892883335088,196.79929250001442,196.79929250001442,196.86236141700647,Incorrect! The correct answer is Speaker4. نادرست! پاسخ صحیح گوینده۴ است,1,0.05419787499704398,None,17,0,196.8663949590118,196.87664612501976,198.86106600001222,198.8855249590124,,,,,,,,,,,,,,,,,,,,,,,,,,841875,001,2024-06-28_11h59.32.828,5-20,2024.1.4,None,2024-06-28 11h59.38.170350 +0900,
Images/Speaker1.jpg,Images/Speaker2.jpg,Images/Speaker3.jpg,Images/Speaker4.jpg,Audio/Speaker3_Per/P3-14-Per.wav,Speaker3,گوینده۳,,,,,,,,0,69,69,53,,,,,,,,,,,,,198.8855249590124,,,,,,,,,,,,,,,,,,,,,,,,,,,,,,,,,,,,,,,,,,,,,198.86125958399498,198.8855249590124,198.8855249590124,198.8855249590124,198.8855249590124,198.894152917354,198.8855249590124,198.8855249590124,198.90937983401818,Incorrect! The correct answer is Speaker3. نادرست! پاسخ صحیح گوینده۳ است,1,0.016109874995891005,None,17,0,198.91329300001962,198.9230760000064,200.91527804199723,,,,,,,,,,,,,,,,,,,,,,,,,,,841875,001,2024-06-28_11h59.32.828,5-20,2024.1.4,None,2024-06-28 11h59.38.170350 +0900,
Images/Speaker1.jpg,Images/Speaker2.jpg,Images/Speaker3.jpg,Images/Speaker4.jpg,Audio/Speaker2_Per/P2-10-Per.wav,Speaker2,گوینده۲,,,,,,,,0,70,70,29,,,,,,,,,,,,,200.9390225840034,,,,,,,,,,,,,,,,,,,,,,,,,,,,,,,,,,,,,,,,,,,,,200.91544658399653,200.9390225840034,200.9390225840034,200.9390225840034,200.9390225840034,200.94856916735495,200.9390225840034,200.9390225840034,200.9815608340141,Incorrect! The correct answer is Speaker2. نادرست! پاسخ صحیح گوینده۲ است,1,0.04005783298634924,None,17,0,200.98583816702012,200.99996891699266,202.99428412501584,,,,,,,,,,,,,,,,,,,,,,,,,,,841875,001,2024-06-28_11h59.32.828,5-20,2024.1.4,None,2024-06-28 11h59.38.170350 +0900,
Images/Speaker1.jpg,Images/Speaker2.jpg,Images/Speaker3.jpg,Images/Speaker4.jpg,Audio/Speaker2_Per/P2-15-Per.wav,Speaker2,گوینده۲,,,,,,,,0,71,71,34,,,,,,,,,,,,,203.01826137499302,,,,,,,,,,,,,,,,,,,,,,,,,,,,,,,,,,,,,,,,,,,,,202.9944523340091,203.01826137499302,203.01826137499302,203.01826137499302,203.01826137499302,203.02757787533534,203.01826137499302,203.01826137499302,203.01893737501814,Incorrect! The correct answer is Speaker2. نادرست! پاسخ صحیح گوینده۲ است,1,2.0008356669859495,None,17,0,203.0192243750207,203.02977824999834,205.02426870900672,,,,,,,,,,,,,,,,,,,,,,,,,,,841875,001,2024-06-28_11h59.32.828,5-20,2024.1.4,None,2024-06-28 11h59.38.170350 +0900,
Images/Speaker1.jpg,Images/Speaker2.jpg,Images/Speaker3.jpg,Images/Speaker4.jpg,Audio/Speaker1_Per/P1-13-Per.wav,Speaker1,گوینده ۱,,,,,,,,0,72,72,12,,,,,,,,,,,,,205.04702937501133,,,,,,,,,,,,,,,,,,,,,,,,,,,,,,,,,,,,,,,,,,,,,205.02442620901274,205.04702937501133,205.04702937501133,205.04702937501133,205.04702937501133,205.04089704167953,205.04702937501133,205.04702937501133,205.19608887500362,Correct! صحیح است,1,0.1479872920026537,None,18,0,205.19985995901516,205.21108370900038,207.19862270899466,207.22018279202166,,,,,,,,,,,,,,,,,,,,,,,,,,841875,001,2024-06-28_11h59.32.828,5-20,2024.1.4,None,2024-06-28 11h59.38.170350 +0900,
Images/Speaker1.jpg,Images/Speaker2.jpg,Images/Speaker3.jpg,Images/Speaker4.jpg,Audio/Speaker1_Per/P1-4-Per.wav,Speaker1,گوینده ۱,,,,,,,,0,73,73,3,,,,,,,,,,,,,207.22018279202166,,,,,,,,,,,,,,,,,,,,,,,,,,,,,,,,,,,,,,,,,,,,,207.19883033400401,207.22018279202166,207.22018279202166,207.22018279202166,207.22018279202166,207.2149979166609,207.22018279202166,207.22018279202166,207.56846291699912,Correct! صحیح است,1,0.34617616698960774,None,19,0,207.57241270900704,207.58367100000032,209.5733587089926,,,,,,,,,,,,,,,,,,,,,,,,,,,841875,001,2024-06-28_11h59.32.828,5-20,2024.1.4,None,2024-06-28 11h59.38.170350 +0900,
Images/Speaker1.jpg,Images/Speaker2.jpg,Images/Speaker3.jpg,Images/Speaker4.jpg,Audio/Speaker4_Per/P4-7-Per.wav,Speaker4,گوینده۴,,,,,,,,0,74,74,66,,,,,,,,,,,,,209.5965616670146,,,,,,,,,,,,,,,,,,,,,,,,,,,,,,,,,,,,,,,,,,,,,209.57353533399873,209.5965616670146,209.5965616670146,209.5965616670146,209.5965616670146,209.60665616734383,209.5965616670146,209.5965616670146,209.77920262500993,Incorrect! The correct answer is Speaker4. نادرست! پاسخ صحیح گوینده۴ است,1,0.1800510419998318,None,19,0,209.78302737500053,209.7961354170111,211.78164933400694,211.80479387499508,,,,,,,,,,,,,,,,,,,,,,,,,,841875,001,2024-06-28_11h59.32.828,5-20,2024.1.4,None,2024-06-28 11h59.38.170350 +0900,
Images/Speaker1.jpg,Images/Speaker2.jpg,Images/Speaker3.jpg,Images/Speaker4.jpg,Audio/Speaker2_Per/P2-1-Per.wav,Speaker2,گوینده۲,,,,,,,,0,75,75,20,,,,,,,,,,,,,211.80479387499508,,,,,,,,,,,,,,,,,,,,,,,,,,,,,,,,,,,,,,,,,,,,,211.78182741699857,211.80479387499508,211.80479387499508,211.80479387499508,211.80479387499508,211.81464691734487,211.80479387499508,211.80479387499508,211.94886654202128,Incorrect! The correct answer is Speaker2. نادرست! پاسخ صحیح گوینده۲ است,1,0.13556658299057744,None,19,0,211.9532701249991,211.96637375000864,213.9576602090092,,,,,,,,,,,,,,,,,,,,,,,,,,,841875,001,2024-06-28_11h59.32.828,5-20,2024.1.4,None,2024-06-28 11h59.38.170350 +0900,
Images/Speaker1.jpg,Images/Speaker2.jpg,Images/Speaker3.jpg,Images/Speaker4.jpg,Audio/Speaker4_Per/P4-4-Per.wav,Speaker4,گوینده۴,,,,,,,,0,76,76,63,,,,,,,,,,,,,213.9808602920093,,,,,,,,,,,,,,,,,,,,,,,,,,,,,,,,,,,,,,,,,,,,,213.95781812499627,213.9808602920093,213.9808602920093,213.9808602920093,213.9808602920093,213.97429158367257,213.9808602920093,213.9808602920093,213.9971914589987,Incorrect! The correct answer is Speaker4. نادرست! پاسخ صحیح گوینده۴ است,1,0.014684916997794062,None,19,0,214.00148820900358,214.01437162500224,215.99978295899928,216.02255608400446,,,,,,,,,,,,,,,,,,,,,,,,,,841875,001,2024-06-28_11h59.32.828,5-20,2024.1.4,None,2024-06-28 11h59.38.170350 +0900,
Images/Speaker1.jpg,Images/Speaker2.jpg,Images/Speaker3.jpg,Images/Speaker4.jpg,Audio/Speaker4_Per/P4-16-Per.wav,Speaker4,گوینده۴,,,,,,,,0,77,77,75,,,,,,,,,,,,,216.02255608400446,,,,,,,,,,,,,,,,,,,,,,,,,,,,,,,,,,,,,,,,,,,,,215.9999511250062,216.02255608400446,216.02255608400446,216.02255608400446,216.02255608400446,216.01618554167024,216.02255608400446,216.02255608400446,216.02323812499526,Incorrect! The correct answer is Speaker4. نادرست! پاسخ صحیح گوینده۴ است,1,1.9679145840054844,None,19,0,216.0236485839996,216.03413675000775,218.02028491700185,218.04797012501513,,,,,,,,,,,,,,,,,,,,,,,,,,841875,001,2024-06-28_11h59.32.828,5-20,2024.1.4,None,2024-06-28 11h59.38.170350 +0900,
Images/Speaker1.jpg,Images/Speaker2.jpg,Images/Speaker3.jpg,Images/Speaker4.jpg,Audio/Speaker1_Per/P1-11-Per.wav,Speaker1,گوینده ۱,,,,,,,,0,78,78,10,,,,,,,,,,,,,218.04797012501513,,,,,,,,,,,,,,,,,,,,,,,,,,,,,,,,,,,,,,,,,,,,,218.021243708994,218.04797012501513,218.04797012501513,218.04797012501513,218.04797012501513,218.05261566735186,218.04797012501513,218.04797012501513,218.21425716701197,Correct! صحیح است,1,0.16511270898627117,None,20,0,218.21805916700396,218.2291412090126,220.21904075000202,,,,,,,,,,,,,,,,,,,,,,,,,,,841875,001,2024-06-28_11h59.32.828,5-20,2024.1.4,None,2024-06-28 11h59.38.170350 +0900,
Images/Speaker1.jpg,Images/Speaker2.jpg,Images/Speaker3.jpg,Images/Speaker4.jpg,Audio/Speaker3_Per/P3-18-Per.wav,Speaker3,گوینده۳,,,,,,,,0,79,79,57,,,,,,,,,,,,,220.24483141701785,,,,,,,,,,,,,,,,,,,,,,,,,,,,,,,,,,,,,,,,,,,,,220.21964383401792,220.24483141701785,220.24483141701785,220.24483141701785,220.24483141701785,220.25217770835349,220.24483141701785,220.24483141701785,222.76304733401048,Incorrect! The correct answer is Speaker3. نادرست! پاسخ صحیح گوینده۳ است,1,2.514865250006551,None,20,0,222.76330991700524,222.77638829199714,224.75927345899981,224.84669387500617,,,,,,,,,,,,,,,,,,,,,,,,,,841875,001,2024-06-28_11h59.32.828,5-20,2024.1.4,None,2024-06-28 11h59.38.170350 +0900,
,,,,,,,,,,,,,,,,,,,,,,,,,,,,,,,,,,,,,,,,,,,,,,,,,,,,,,,,,,,,,,,,,,,,,,,,,,,,,,,,,,,,,,,,,,,,,,224.79607695899904,224.79637058399385,TrainingGroup1,,,,,,,,,,,,,,,,,,,,,,,841875,001,2024-06-28_11h59.32.828,5-20,2024.1.4,None,2024-06-28 11h59.38.170350 +0900,
,,,,,,,Images/Speaker1.jpg,Images/Speaker2.jpg,Images/Speaker3.jpg,Images/Speaker4.jpg,Audio/Speaker4_Per/P4-4-Per.wav,Speaker4,گوینده۴,,,,,,,,,,,,,0,0,0,63,224.84669387500617,,,,,,,,,,,,,,,,,,,,,,,,,,,,,,,,,,,,,,,,,,,,,,,,,,,,,,,,,,,,,,,,,,,224.81256604200462,224.84669387500617,224.84669387500617,224.84669387500617,224.84669387500617,224.84669387500617,224.84237266735485,224.84669387500617,224.84669387500617,225.89124237501528,1,1.0350280000129715,None,1,Images/Speaker1.jpg,Images/Speaker2.jpg,Images/Speaker3.jpg,Images/Speaker4.jpg,Audio/Speaker4_Per/P4-4-Per.wav,Speaker1,گوینده ۱,,841875,001,2024-06-28_11h59.32.828,5-20,2024.1.4,None,2024-06-28 11h59.38.170350 +0900,
,,,,,,,Images/Speaker1.jpg,Images/Speaker2.jpg,Images/Speaker3.jpg,Images/Speaker4.jpg,Audio/Speaker4_Per/P4-10-Per.wav,Speaker4,گوینده۴,,,,,,,,,,,,,0,1,1,69,225.92845825001132,,,,,,,,,,,,,,,,,,,,,,,,,,,,,,,,,,,,,,,,,,,,,,,,,,,,,,,,,,,,,,,,,,,225.89567541700671,225.92845825001132,225.92845825001132,225.92845825001132,225.92845825001132,225.92845825001132,225.92368725033208,225.92845825001132,225.92845825001132,230.203091125004,1,4.273594041005708,None,1,Images/Speaker1.jpg,Images/Speaker2.jpg,Images/Speaker3.jpg,Images/Speaker4.jpg,Audio/Speaker4_Per/P4-10-Per.wav,Speaker1,گوینده ۱,,841875,001,2024-06-28_11h59.32.828,5-20,2024.1.4,None,2024-06-28 11h59.38.170350 +0900,
,,,,,,,Images/Speaker1.jpg,Images/Speaker2.jpg,Images/Speaker3.jpg,Images/Speaker4.jpg,Audio/Speaker1_Per/P1-13-Per.wav,Speaker1,گوینده ۱,,,,,,,,,,,,,0,2,2,12,230.2363022500067,,,,,,,,,,,,,,,,,,,,,,,,,,,,,,,,,,,,,,,,,,,,,,,,,,,,,,,,,,,,,,,,,,,230.2034424589947,230.2363022500067,230.2363022500067,230.2363022500067,230.2363022500067,230.2363022500067,230.23529270833438,230.2363022500067,230.2363022500067,238.08309220900992,1,7.8422800000116695,None,1,Images/Speaker1.jpg,Images/Speaker2.jpg,Images/Speaker3.jpg,Images/Speaker4.jpg,Audio/Speaker1_Per/P1-13-Per.wav,Speaker1,گوینده ۱,235.23547429201426,841875,001,2024-06-28_11h59.32.828,5-20,2024.1.4,None,2024-06-28 11h59.38.170350 +0900,
,,,,,,,Images/Speaker1.jpg,Images/Speaker2.jpg,Images/Speaker3.jpg,Images/Speaker4.jpg,Audio/Speaker3_Per/P3-12-Per.wav,Speaker3,گوینده۳,,,,,,,,,,,,,0,3,3,51,238.1174868750095,,,,,,,,,,,,,,,,,,,,,,,,,,,,,,,,,,,,,,,,,,,,,,,,,,,,,,,,,,,,,,,,,,,238.0839613340213,238.1174868750095,238.1174868750095,238.1174868750095,238.1174868750095,238.1174868750095,238.11147162534377,238.1174868750095,238.1174868750095,245.80025262502022,1,7.674578708014451,None,1,Images/Speaker1.jpg,Images/Speaker2.jpg,Images/Speaker3.jpg,Images/Speaker4.jpg,Audio/Speaker3_Per/P3-12-Per.wav,Speaker1,گوینده ۱,243.10793062500306,841875,001,2024-06-28_11h59.32.828,5-20,2024.1.4,None,2024-06-28 11h59.38.170350 +0900,
,,,,,,,Images/Speaker1.jpg,Images/Speaker2.jpg,Images/Speaker3.jpg,Images/Speaker4.jpg,Audio/Speaker2_Per/P2-6-Per.wav,Speaker2,گوینده۲,,,,,,,,,,,,,0,4,4,25,245.8313983750122,,,,,,,,,,,,,,,,,,,,,,,,,,,,,,,,,,,,,,,,,,,,,,,,,,,,,,,,,,,,,,,,,,,245.80066095900838,245.8313983750122,245.8313983750122,245.8313983750122,245.8313983750122,245.8313983750122,245.8326821673332,245.8313983750122,245.8313983750122,252.9503952920204,1,7.117808499984676,None,1,Images/Speaker1.jpg,Images/Speaker2.jpg,Images/Speaker3.jpg,Images/Speaker4.jpg,Audio/Speaker2_Per/P2-6-Per.wav,Speaker1,گوینده ۱,250.8242407499929,841875,001,2024-06-28_11h59.32.828,5-20,2024.1.4,None,2024-06-28 11h59.38.170350 +0900,
,,,,,,,Images/Speaker1.jpg,Images/Speaker2.jpg,Images/Speaker3.jpg,Images/Speaker4.jpg,Audio/Speaker1_Per/P1-12-Per.wav,Speaker1,گوینده ۱,,,,,,,,,,,,,0,5,5,11,252.98480624999502,,,,,,,,,,,,,,,,,,,,,,,,,,,,,,,,,,,,,,,,,,,,,,,,,,,,,,,,,,,,,,,,,,,252.9507981670031,252.98480624999502,252.98480624999502,252.98480624999502,252.98480624999502,252.98480624999502,252.9823925423339,252.98480624999502,252.98480624999502,266.12797308401787,1,13.140656790987123,None,1,Images/Speaker1.jpg,Images/Speaker2.jpg,Images/Speaker3.jpg,Images/Speaker4.jpg,Audio/Speaker1_Per/P1-12-Per.wav,Speaker1,گوینده ۱,257.9822076249984,841875,001,2024-06-28_11h59.32.828,5-20,2024.1.4,None,2024-06-28 11h59.38.170350 +0900,
,,,,,,,Images/Speaker1.jpg,Images/Speaker2.jpg,Images/Speaker3.jpg,Images/Speaker4.jpg,Audio/Speaker2_Per/P2-12-Per.wav,Speaker2,گوینده۲,,,,,,,,,,,,,0,6,6,31,266.1607652090024,,,,,,,,,,,,,,,,,,,,,,,,,,,,,,,,,,,,,,,,,,,,,,,,,,,,,,,,,,,,,,,,,,,266.1283986250055,266.1607652090024,266.1607652090024,266.1607652090024,266.1607652090024,266.1607652090024,266.1603787923309,266.1607652090024,266.1607652090024,267.80838654201943,2,1.6437015419942327,None,2,Images/Speaker1.jpg,Images/Speaker2.jpg,Images/Speaker3.jpg,Images/Speaker4.jpg,Audio/Speaker2_Per/P2-12-Per.wav,Speaker1,گوینده ۱,,841875,001,2024-06-28_11h59.32.828,5-20,2024.1.4,None,2024-06-28 11h59.38.170350 +0900,
,,,,,,,Images/Speaker1.jpg,Images/Speaker2.jpg,Images/Speaker3.jpg,Images/Speaker4.jpg,Audio/Speaker4_Per/P4-9-Per.wav,Speaker4,گوینده۴,,,,,,,,,,,,,0,7,7,68,267.8462508340017,,,,,,,,,,,,,,,,,,,,,,,,,,,,,,,,,,,,,,,,,,,,,,,,,,,,,,,,,,,,,,,,,,,267.8128734170168,267.8462508340017,267.8462508340017,267.8462508340017,267.8462508340017,267.8462508340017,267.8408583333444,267.8462508340017,267.8462508340017,269.43639754201286,4,1.5847868330019992,None,4,Images/Speaker1.jpg,Images/Speaker2.jpg,Images/Speaker3.jpg,Images/Speaker4.jpg,Audio/Speaker4_Per/P4-9-Per.wav,Speaker1,گوینده ۱,,841875,001,2024-06-28_11h59.32.828,5-20,2024.1.4,None,2024-06-28 11h59.38.170350 +0900,
,,,,,,,Images/Speaker1.jpg,Images/Speaker2.jpg,Images/Speaker3.jpg,Images/Speaker4.jpg,Audio/Speaker3_Per/P3-7-Per.wav,Speaker3,گوینده۳,,,,,,,,,,,,,0,8,8,46,269.47354879201157,,,,,,,,,,,,,,,,,,,,,,,,,,,,,,,,,,,,,,,,,,,,,,,,,,,,,,,,,,,,,,,,,,,269.44032925000647,269.47354879201157,269.47354879201157,269.47354879201157,269.47354879201157,269.47354879201157,269.46878575033816,269.47354879201157,269.47354879201157,270.83007650001673,3,1.3508753330097534,None,3,Images/Speaker1.jpg,Images/Speaker2.jpg,Images/Speaker3.jpg,Images/Speaker4.jpg,Audio/Speaker3_Per/P3-7-Per.wav,Speaker1,گوینده ۱,,841875,001,2024-06-28_11h59.32.828,5-20,2024.1.4,None,2024-06-28 11h59.38.170350 +0900,
,,,,,,,Images/Speaker1.jpg,Images/Speaker2.jpg,Images/Speaker3.jpg,Images/Speaker4.jpg,Audio/Speaker4_Per/P4-7-Per.wav,Speaker4,گوینده۴,,,,,,,,,,,,,0,9,9,66,270.8670518340077,,,,,,,,,,,,,,,,,,,,,,,,,,,,,,,,,,,,,,,,,,,,,,,,,,,,,,,,,,,,,,,,,,,270.83414770901436,270.8670518340077,270.8670518340077,270.8670518340077,270.8670518340077,270.8670518340077,270.8625640423347,270.8670518340077,270.8670518340077,272.4062026250176,4,1.5275832910265308,None,4,Images/Speaker1.jpg,Images/Speaker2.jpg,Images/Speaker3.jpg,Images/Speaker4.jpg,Audio/Speaker4_Per/P4-7-Per.wav,Speaker1,گوینده ۱,,841875,001,2024-06-28_11h59.32.828,5-20,2024.1.4,None,2024-06-28 11h59.38.170350 +0900,
,,,,,,,Images/Speaker1.jpg,Images/Speaker2.jpg,Images/Speaker3.jpg,Images/Speaker4.jpg,Audio/Speaker1_Per/P1-16-Per.wav,Speaker1,گوینده ۱,,,,,,,,,,,,,0,10,10,15,272.4431234590011,,,,,,,,,,,,,,,,,,,,,,,,,,,,,,,,,,,,,,,,,,,,,,,,,,,,,,,,,,,,,,,,,,,272.41042329199263,272.4431234590011,272.4431234590011,272.4431234590011,272.4431234590011,272.4431234590011,272.4386363333401,272.4431234590011,272.4431234590011,273.9628712919948,1,1.518222084006993,None,1,Images/Speaker1.jpg,Images/Speaker2.jpg,Images/Speaker3.jpg,Images/Speaker4.jpg,Audio/Speaker1_Per/P1-16-Per.wav,Speaker1,گوینده ۱,,841875,001,2024-06-28_11h59.32.828,5-20,2024.1.4,None,2024-06-28 11h59.38.170350 +0900,
,,,,,,,Images/Speaker1.jpg,Images/Speaker2.jpg,Images/Speaker3.jpg,Images/Speaker4.jpg,Audio/Speaker2_Per/P2-4-Per.wav,Speaker2,گوینده۲,,,,,,,,,,,,,0,11,11,23,274.00069300000905,,,,,,,,,,,,,,,,,,,,,,,,,,,,,,,,,,,,,,,,,,,,,,,,,,,,,,,,,,,,,,,,,,,273.9672455000109,274.00069300000905,274.00069300000905,274.00069300000905,274.00069300000905,274.00069300000905,273.9952732083407,274.00069300000905,274.00069300000905,275.08438162499806,2,1.0821819580160081,None,2,Images/Speaker1.jpg,Images/Speaker2.jpg,Images/Speaker3.jpg,Images/Speaker4.jpg,Audio/Speaker2_Per/P2-4-Per.wav,Speaker1,گوینده ۱,,841875,001,2024-06-28_11h59.32.828,5-20,2024.1.4,None,2024-06-28 11h59.38.170350 +0900,
,,,,,,,Images/Speaker1.jpg,Images/Speaker2.jpg,Images/Speaker3.jpg,Images/Speaker4.jpg,Audio/Speaker3_Per/P3-3-Per.wav,Speaker3,گوینده۳,,,,,,,,,,,,,0,12,12,42,275.1214251250203,,,,,,,,,,,,,,,,,,,,,,,,,,,,,,,,,,,,,,,,,,,,,,,,,,,,,,,,,,,,,,,,,,,275.0887902920076,275.1214251250203,275.1214251250203,275.1214251250203,275.1214251250203,275.1214251250203,275.11604858333203,275.1214251250203,275.1214251250203,276.8319664169976,3,1.7095342079992406,None,3,Images/Speaker1.jpg,Images/Speaker2.jpg,Images/Speaker3.jpg,Images/Speaker4.jpg,Audio/Speaker3_Per/P3-3-Per.wav,Speaker1,گوینده ۱,,841875,001,2024-06-28_11h59.32.828,5-20,2024.1.4,None,2024-06-28 11h59.38.170350 +0900,
,,,,,,,Images/Speaker1.jpg,Images/Speaker2.jpg,Images/Speaker3.jpg,Images/Speaker4.jpg,Audio/Speaker1_Per/P1-11-Per.wav,Speaker1,گوینده ۱,,,,,,,,,,,,,0,13,13,10,276.86972479202086,,,,,,,,,,,,,,,,,,,,,,,,,,,,,,,,,,,,,,,,,,,,,,,,,,,,,,,,,,,,,,,,,,,276.8359737090068,276.86972479202086,276.86972479202086,276.86972479202086,276.86972479202086,276.86972479202086,276.8641386253371,276.86972479202086,276.86972479202086,278.1685177500185,1,1.2901251250004862,None,1,Images/Speaker1.jpg,Images/Speaker2.jpg,Images/Speaker3.jpg,Images/Speaker4.jpg,Audio/Speaker1_Per/P1-11-Per.wav,Speaker1,گوینده ۱,,841875,001,2024-06-28_11h59.32.828,5-20,2024.1.4,None,2024-06-28 11h59.38.170350 +0900,
,,,,,,,Images/Speaker1.jpg,Images/Speaker2.jpg,Images/Speaker3.jpg,Images/Speaker4.jpg,Audio/Speaker3_Per/P3-15-Per.wav,Speaker3,گوینده۳,,,,,,,,,,,,,0,14,14,54,278.2041104590171,,,,,,,,,,,,,,,,,,,,,,,,,,,,,,,,,,,,,,,,,,,,,,,,,,,,,,,,,,,,,,,,,,,278.1728575419984,278.2041104590171,278.2041104590171,278.2041104590171,278.2041104590171,278.2041104590171,278.20091108335373,278.2041104590171,278.2041104590171,279.85979470901657,3,1.646057000005385,None,3,Images/Speaker1.jpg,Images/Speaker2.jpg,Images/Speaker3.jpg,Images/Speaker4.jpg,Audio/Speaker3_Per/P3-15-Per.wav,Speaker1,گوینده ۱,,841875,001,2024-06-28_11h59.32.828,5-20,2024.1.4,None,2024-06-28 11h59.38.170350 +0900,
,,,,,,,Images/Speaker1.jpg,Images/Speaker2.jpg,Images/Speaker3.jpg,Images/Speaker4.jpg,Audio/Speaker1_Per/P1-19-Per.wav,Speaker1,گوینده ۱,,,,,,,,,,,,,0,15,15,18,279.8978270840016,,,,,,,,,,,,,,,,,,,,,,,,,,,,,,,,,,,,,,,,,,,,,,,,,,,,,,,,,,,,,,,,,,,279.86419675001525,279.8978270840016,279.8978270840016,279.8978270840016,279.8978270840016,279.8978270840016,279.8922229173263,279.8978270840016,279.8978270840016,281.18031954200706,1,1.276147165975999,None,1,Images/Speaker1.jpg,Images/Speaker2.jpg,Images/Speaker3.jpg,Images/Speaker4.jpg,Audio/Speaker1_Per/P1-19-Per.wav,Speaker1,گوینده ۱,,841875,001,2024-06-28_11h59.32.828,5-20,2024.1.4,None,2024-06-28 11h59.38.170350 +0900,
,,,,,,,Images/Speaker1.jpg,Images/Speaker2.jpg,Images/Speaker3.jpg,Images/Speaker4.jpg,Audio/Speaker3_Per/P3-4-Per.wav,Speaker3,گوینده۳,,,,,,,,,,,,,0,16,16,43,281.21767408400774,,,,,,,,,,,,,,,,,,,,,,,,,,,,,,,,,,,,,,,,,,,,,,,,,,,,,,,,,,,,,,,,,,,281.18450629201834,281.21767408400774,281.21767408400774,281.21767408400774,281.21767408400774,281.21767408400774,281.2126611673525,281.21767408400774,281.21767408400774,282.3995509590022,3,1.174760875001084,None,3,Images/Speaker1.jpg,Images/Speaker2.jpg,Images/Speaker3.jpg,Images/Speaker4.jpg,Audio/Speaker3_Per/P3-4-Per.wav,Speaker1,گوینده ۱,,841875,001,2024-06-28_11h59.32.828,5-20,2024.1.4,None,2024-06-28 11h59.38.170350 +0900,
,,,,,,,Images/Speaker1.jpg,Images/Speaker2.jpg,Images/Speaker3.jpg,Images/Speaker4.jpg,Audio/Speaker2_Per/P2-7-Per.wav,Speaker2,گوینده۲,,,,,,,,,,,,,0,17,17,26,282.43461345901596,,,,,,,,,,,,,,,,,,,,,,,,,,,,,,,,,,,,,,,,,,,,,,,,,,,,,,,,,,,,,,,,,,,282.4038196670008,282.43461345901596,282.43461345901596,282.43461345901596,282.43461345901596,282.43461345901596,282.4319692923532,282.43461345901596,282.43461345901596,283.3964121250028,2,0.9489884999929927,None,2,Images/Speaker1.jpg,Images/Speaker2.jpg,Images/Speaker3.jpg,Images/Speaker4.jpg,Audio/Speaker2_Per/P2-7-Per.wav,Speaker1,گوینده ۱,,841875,001,2024-06-28_11h59.32.828,5-20,2024.1.4,None,2024-06-28 11h59.38.170350 +0900,
,,,,,,,Images/Speaker1.jpg,Images/Speaker2.jpg,Images/Speaker3.jpg,Images/Speaker4.jpg,Audio/Speaker1_Per/P1-15-Per.wav,Speaker1,گوینده ۱,,,,,,,,,,,,,0,18,18,14,283.4308839169971,,,,,,,,,,,,,,,,,,,,,,,,,,,,,,,,,,,,,,,,,,,,,,,,,,,,,,,,,,,,,,,,,,,283.40046083400375,283.4308839169971,283.4308839169971,283.4308839169971,283.4308839169971,283.4308839169971,283.42880333335097,283.4308839169971,283.4308839169971,284.8921490840148,1,1.454805249988567,None,1,Images/Speaker1.jpg,Images/Speaker2.jpg,Images/Speaker3.jpg,Images/Speaker4.jpg,Audio/Speaker1_Per/P1-15-Per.wav,Speaker1,گوینده ۱,,841875,001,2024-06-28_11h59.32.828,5-20,2024.1.4,None,2024-06-28 11h59.38.170350 +0900,
,,,,,,,,,,,,,,,,,,,,,,,,,,,,,,,,,,,,,,,,,,,,,,,,,,,,,,,,,,,,,,,,,,,,,,,,,,,,,,,,,,,,,,,,,,,,,,,,,284.89609820902115,,,,,,,,,,,,,,,,,,,,,,,,,,,,,
