SpeakerImage1,SpeakerImage2,SpeakerImage3,SpeakerImage4,TrainingSound,EnglishCorrectAnswer,PersianCorrectAnswer,SpeakerPhoto1,SpeakerPhoto2,SpeakerPhoto3,SpeakerPhoto4,TestingSound,EnglishCorrectResponse,PersianCorrectResponse,repeated_TrainingLoopGroup1.thisRepN,repeated_TrainingLoopGroup1.thisTrialN,repeated_TrainingLoopGroup1.thisN,repeated_TrainingLoopGroup1.thisIndex,TrainingLoopGroup1.thisRepN,TrainingLoopGroup1.thisTrialN,TrainingLoopGroup1.thisN,TrainingLoopGroup1.thisIndex,testPhase1Loop.thisRepN,testPhase1Loop.thisTrialN,testPhase1Loop.thisN,testPhase1Loop.thisIndex,thisRow.t,notes,trial.started,trial.stopped,GroupSelection.started,GroupInstructions.started,key_resp.started,GroupSelection.stopped,key_resp.keys,Introduction.started,text_2.started,image.started,sound_7.started,text_4.started,text_2.stopped,sound_8.started,image.stopped,text_4.stopped,image_7.started,sound_9.started,text_5.started,sound_10.started,image_7.stopped,text_5.stopped,image_8.started,sound_11.started,text_6.started,sound_12.started,image_8.stopped,text_6.stopped,image_9.started,sound_13.started,text_7.started,sound_14.started,image_9.stopped,text_7.stopped,Introduction.stopped,Instructions.started,InstructionText.started,InstructionText.stopped,Instructions.stopped,InitializeExperiment.started,InitializeExperiment.stopped,TrainingGroup1.started,image_1.started,image_2.started,image_3.started,image_4.started,sound1.started,Instruction.started,ResponseKey.started,TrainingGroup1.stopped,feedbackText,correct_responses_group1,total_trials_group1,ResponseKey.keys,ResponseKey.rt,ResponseKey.duration,FeedbackRoutine1.started,FeedbackText.started,FeedbackRoutine1.stopped,FeedbackText.stopped,CheckAccuracy1.started,accuracy_group1,proceed_to_test,CheckAccuracy1.stopped,WelcomeTest.started,text_12.started,text_12.stopped,WelcomeTest.stopped,TestPhase1.started,test1_image1.started,test1_image2.started,test1_image3.started,test1_image4.started,test1_sound.started,text_3.started,test1_response_keyboard.started,TestPhase1.stopped,test1_response_keyboard.keys,test1_response_keyboard.rt,test1_response_keyboard.duration,test1_response,test1_image_file1,test1_image_file2,test1_image_file3,test1_image_file4,test1_sound_file,english_correct_answer,persian_correct_answer,participant,session,date,expName,psychopyVersion,frameRate,expStart,
,,,,,,,,,,,,,,,,,,,,,,,,,,,,0.009129707999818493,0.009428290999494493,,,,,,,,,,,,,,,,,,,,,,,,,,,,,,,,,,,,,,,,,,,,,,,,,,,,,,,,,,,,,,,,,,,,,,,,,,,,,,,,,,,,,,,854927,001,2024-07-02_14h44.57.136,5-33,2024.1.4,None,2024-07-02 14h45.02.086802 +0900,
,,,,,,,,,,,,,,,,,,,,,,,,,,,,,,0.009446458003367297,0.01381841600232292,0.01381841600232292,0.8612150410044705,None,,,,,,,,,,,,,,,,,,,,,,,,,,,,,,,,,,,,,,,,,,,,,,,,,,,,,,,,,,,,,,,,,,,,,,,,,,,,,,,,,,854927,001,2024-07-02_14h44.57.136,5-33,2024.1.4,None,2024-07-02 14h45.02.086802 +0900,
,,,,,,,,,,,,,,,,,,,,,,,,,,,,,,,,,,,0.8612463329991442,0.913466291000077,5.8556124579990865,5.865092541669825,5.8556124579990865,5.902495082998939,10.872246124669134,15.853547625003557,15.853547625003557,15.858019666004111,15.870214291670225,15.858019666004111,20.861131957670537,25.85625779100519,25.85625779100519,25.861253125003714,25.872924457671857,25.861253125003714,30.86086474966966,35.851587290999305,35.851587290999305,35.851587290999305,35.86344195766675,35.851587290999305,40.8731865416669,45.844966374999785,45.844966374999785,45.84007016599935,,,,,,,,,,,,,,,,,,,,,,,,,,,,,,,,,,,,,,,,,,,,,,,,,,,,,,854927,001,2024-07-02_14h44.57.136,5-33,2024.1.4,None,2024-07-02 14h45.02.086802 +0900,
,,,,,,,,,,,,,,,,,,,,,,,,,,,,,,,,,,,,,,,,,,,,,,,,,,,,,,,,,,,,,,,45.84011150000151,45.84973266599991,46.91155270799936,46.83432791600353,,,,,,,,,,,,,,,,,,,,,,,,,,,,,,,,,,,,,,,,,,,,,,,,,,854927,001,2024-07-02_14h44.57.136,5-33,2024.1.4,None,2024-07-02 14h45.02.086802 +0900,
,,,,,,,,,,,,,,,,,,,,,,,,,,,,,,,,,,,,,,,,,,,,,,,,,,,,,,,,,,,,,,,,,,,46.834344333001354,46.834486457999446,,,,,,,,,,,,,,,,,,,,,,,,,,,,,,,,,,,,,,,,,,,,,,,,854927,001,2024-07-02_14h44.57.136,5-33,2024.1.4,None,2024-07-02 14h45.02.086802 +0900,
Images/Speaker1.jpg,Images/Speaker2.jpg,Images/Speaker3.jpg,Images/Speaker4.jpg,Audio/Speaker1_Per/P1-18-Per.wav,Speaker1,گوینده ۱,,,,,,,,0,0,0,24,0,0,0,17,,,,,46.91155270799936,,,,,,,,,,,,,,,,,,,,,,,,,,,,,,,,,,,,,,,,,,,46.886519291001605,46.91155270799936,46.91155270799936,46.91155270799936,46.91155270799936,46.917460374335256,46.91155270799936,46.91155270799936,48.89742766600102,Correct! صحیح است,1,1,1,1.977073542002472,None,48.90183662500203,48.9197572080011,50.91493041600188,,,,,,,,,,,,,,,,,,,,,,,,,,,,,,854927,001,2024-07-02_14h44.57.136,5-33,2024.1.4,None,2024-07-02 14h45.02.086802 +0900,
Images/Speaker1.jpg,Images/Speaker2.jpg,Images/Speaker3.jpg,Images/Speaker4.jpg,Audio/Speaker2_Per/P2-13-Per.wav,Speaker2,گوینده۲,,,,,,,,0,0,0,24,0,1,1,32,,,,,50.93633829100145,,,,,,,,,,,,,,,,,,,,,,,,,,,,,,,,,,,,,,,,,,,50.91512229100044,50.93633829100145,50.93633829100145,50.93633829100145,50.93633829100145,50.93155974967182,50.93633829100145,50.93633829100145,51.99775975000375,Correct! صحیح است,2,2,2,1.058232625000528,None,52.00157891600247,52.01218700000027,54.007587416002934,,,,,,,,,,,,,,,,,,,,,,,,,,,,,,854927,001,2024-07-02_14h44.57.136,5-33,2024.1.4,None,2024-07-02 14h45.02.086802 +0900,
Images/Speaker1.jpg,Images/Speaker2.jpg,Images/Speaker3.jpg,Images/Speaker4.jpg,Audio/Speaker4_Per/P4-17-Per.wav,Speaker4,گوینده۴,,,,,,,,0,0,0,24,0,2,2,76,,,,,54.03064829100185,,,,,,,,,,,,,,,,,,,,,,,,,,,,,,,,,,,,,,,,,,,54.008155250005075,54.03064829100185,54.03064829100185,54.03064829100185,54.03064829100185,54.04075920833614,54.03064829100185,54.03064829100185,55.94243387500319,Correct! صحیح است,3,3,4,1.9092273749993183,None,55.946299957999145,55.95760179100034,57.941257458005566,57.96351095800492,,,,,,,,,,,,,,,,,,,,,,,,,,,,,854927,001,2024-07-02_14h44.57.136,5-33,2024.1.4,None,2024-07-02 14h45.02.086802 +0900,
Images/Speaker1.jpg,Images/Speaker2.jpg,Images/Speaker3.jpg,Images/Speaker4.jpg,Audio/Speaker4_Per/P4-2-Per.wav,Speaker4,گوینده۴,,,,,,,,0,0,0,24,0,3,3,61,,,,,57.96351095800492,,,,,,,,,,,,,,,,,,,,,,,,,,,,,,,,,,,,,,,,,,,57.94146808300138,57.96351095800492,57.96351095800492,57.96351095800492,57.96351095800492,57.95772687466912,57.96351095800492,57.96351095800492,59.112668541005405,Correct! صحیح است,4,4,4,1.1461200000048848,None,59.11694150000403,59.12853287500184,61.11472974999924,61.13949970800604,,,,,,,,,,,,,,,,,,,,,,,,,,,,,854927,001,2024-07-02_14h44.57.136,5-33,2024.1.4,None,2024-07-02 14h45.02.086802 +0900,
Images/Speaker1.jpg,Images/Speaker2.jpg,Images/Speaker3.jpg,Images/Speaker4.jpg,Audio/Speaker1_Per/P1-6-Per.wav,Speaker1,گوینده ۱,,,,,,,,0,0,0,24,0,4,4,5,,,,,61.13949970800604,,,,,,,,,,,,,,,,,,,,,,,,,,,,,,,,,,,,,,,,,,,61.11532454100234,61.13949970800604,61.13949970800604,61.13949970800604,61.13949970800604,61.147127166332695,61.13949970800604,61.13949970800604,62.82048770800611,Correct! صحیح است,5,5,1,1.6796302499933518,None,62.824430625005334,62.83676866600581,64.82015312500153,64.84022629100218,,,,,,,,,,,,,,,,,,,,,,,,,,,,,854927,001,2024-07-02_14h44.57.136,5-33,2024.1.4,None,2024-07-02 14h45.02.086802 +0900,
Images/Speaker1.jpg,Images/Speaker2.jpg,Images/Speaker3.jpg,Images/Speaker4.jpg,Audio/Speaker3_Per/P3-16-Per.wav,Speaker3,گوینده۳,,,,,,,,0,0,0,24,0,5,5,55,,,,,64.84022629100218,,,,,,,,,,,,,,,,,,,,,,,,,,,,,,,,,,,,,,,,,,,64.82032725000317,64.84022629100218,64.84022629100218,64.84022629100218,64.84022629100218,64.83656658266797,64.84022629100218,64.84022629100218,67.17227904100582,Correct! صحیح است,6,6,3,2.3224005829979433,None,67.17635887500364,67.18828933300392,69.17151137500332,69.19333379100135,,,,,,,,,,,,,,,,,,,,,,,,,,,,,854927,001,2024-07-02_14h44.57.136,5-33,2024.1.4,None,2024-07-02 14h45.02.086802 +0900,
Images/Speaker1.jpg,Images/Speaker2.jpg,Images/Speaker3.jpg,Images/Speaker4.jpg,Audio/Speaker4_Per/P4-4-Per.wav,Speaker4,گوینده۴,,,,,,,,0,0,0,24,0,6,6,63,,,,,69.19333379100135,,,,,,,,,,,,,,,,,,,,,,,,,,,,,,,,,,,,,,,,,,,69.17170112500025,69.19333379100135,69.19333379100135,69.19333379100135,69.19333379100135,69.1878939996716,69.19333379100135,69.19333379100135,72.2808531250048,Correct! صحیح است,7,7,4,3.0855459999947925,None,72.28607362500043,72.29921066600218,74.28324191600404,74.30609029100015,,,,,,,,,,,,,,,,,,,,,,,,,,,,,854927,001,2024-07-02_14h44.57.136,5-33,2024.1.4,None,2024-07-02 14h45.02.086802 +0900,
Images/Speaker1.jpg,Images/Speaker2.jpg,Images/Speaker3.jpg,Images/Speaker4.jpg,Audio/Speaker3_Per/P3-20-Per.wav,Speaker3,گوینده۳,,,,,,,,0,0,0,24,0,7,7,59,,,,,74.30609029100015,,,,,,,,,,,,,,,,,,,,,,,,,,,,,,,,,,,,,,,,,,,74.28421683300257,74.30609029100015,74.30609029100015,74.30609029100015,74.30609029100015,74.31572629133782,74.30609029100015,74.30609029100015,77.32033958300599,Correct! صحیح است,8,8,3,3.00875658300356,None,77.32058016600058,77.33239441600017,79.31598429100268,79.33800220800185,,,,,,,,,,,,,,,,,,,,,,,,,,,,,854927,001,2024-07-02_14h44.57.136,5-33,2024.1.4,None,2024-07-02 14h45.02.086802 +0900,
Images/Speaker1.jpg,Images/Speaker2.jpg,Images/Speaker3.jpg,Images/Speaker4.jpg,Audio/Speaker3_Per/P3-13-Per.wav,Speaker3,گوینده۳,,,,,,,,0,0,0,24,0,8,8,52,,,,,79.33800220800185,,,,,,,,,,,,,,,,,,,,,,,,,,,,,,,,,,,,,,,,,,,79.31617691599968,79.33800220800185,79.33800220800185,79.33800220800185,79.33800220800185,79.33241720767207,79.33800220800185,79.33800220800185,81.0582621249996,Correct! صحیح است,9,9,3,1.7141391670011217,None,81.0620557910006,81.07534225000563,83.06196545800049,83.08381104100408,,,,,,,,,,,,,,,,,,,,,,,,,,,,,854927,001,2024-07-02_14h44.57.136,5-33,2024.1.4,None,2024-07-02 14h45.02.086802 +0900,
Images/Speaker1.jpg,Images/Speaker2.jpg,Images/Speaker3.jpg,Images/Speaker4.jpg,Audio/Speaker3_Per/P3-15-Per.wav,Speaker3,گوینده۳,,,,,,,,0,0,0,24,0,9,9,54,,,,,83.08381104100408,,,,,,,,,,,,,,,,,,,,,,,,,,,,,,,,,,,,,,,,,,,83.06213266600389,83.08381104100408,83.08381104100408,83.08381104100408,83.08381104100408,83.07834829167065,83.08381104100408,83.08381104100408,84.21760208300111,Correct! صحیح است,10,10,3,1.128929792001145,None,84.22173108300194,84.23288304100424,86.21610700000019,86.23813483300182,,,,,,,,,,,,,,,,,,,,,,,,,,,,,854927,001,2024-07-02_14h44.57.136,5-33,2024.1.4,None,2024-07-02 14h45.02.086802 +0900,
Images/Speaker1.jpg,Images/Speaker2.jpg,Images/Speaker3.jpg,Images/Speaker4.jpg,Audio/Speaker3_Per/P3-8-Per.wav,Speaker3,گوینده۳,,,,,,,,0,0,0,24,0,10,10,47,,,,,86.23813483300182,,,,,,,,,,,,,,,,,,,,,,,,,,,,,,,,,,,,,,,,,,,86.21628679100104,86.23813483300182,86.23813483300182,86.23813483300182,86.23813483300182,86.23256999966931,86.23813483300182,86.23813483300182,88.46021841600304,Incorrect! The correct answer is Speaker3. نادرست! پاسخ صحیح گوینده۳ است,10,11,1,2.214233750004496,None,88.46395425000082,88.47497866600315,90.46563754100498,,,,,,,,,,,,,,,,,,,,,,,,,,,,,,854927,001,2024-07-02_14h44.57.136,5-33,2024.1.4,None,2024-07-02 14h45.02.086802 +0900,
Images/Speaker1.jpg,Images/Speaker2.jpg,Images/Speaker3.jpg,Images/Speaker4.jpg,Audio/Speaker2_Per/P2-4-Per.wav,Speaker2,گوینده۲,,,,,,,,0,0,0,24,0,11,11,23,,,,,90.49094704100571,,,,,,,,,,,,,,,,,,,,,,,,,,,,,,,,,,,,,,,,,,,90.46635787500418,90.49094704100571,90.49094704100571,90.49094704100571,90.49094704100571,90.49881795833838,90.49094704100571,90.49094704100571,92.37149258299905,Correct! صحیح است,11,12,2,1.8683309580010246,None,92.37521379100508,92.38641612500214,94.37075025000377,94.39057125000545,,,,,,,,,,,,,,,,,,,,,,,,,,,,,854927,001,2024-07-02_14h44.57.136,5-33,2024.1.4,None,2024-07-02 14h45.02.086802 +0900,
Images/Speaker1.jpg,Images/Speaker2.jpg,Images/Speaker3.jpg,Images/Speaker4.jpg,Audio/Speaker3_Per/P3-17-Per.wav,Speaker3,گوینده۳,,,,,,,,0,0,0,24,0,12,12,56,,,,,94.39057125000545,,,,,,,,,,,,,,,,,,,,,,,,,,,,,,,,,,,,,,,,,,,94.37090708300093,94.39057125000545,94.39057125000545,94.39057125000545,94.39057125000545,94.38717841666609,94.39057125000545,94.39057125000545,96.87707441599923,Correct! صحیح است,12,13,3,2.4789603749959497,None,96.87727258300583,96.887952916004,98.87538816600136,98.89750204099983,,,,,,,,,,,,,,,,,,,,,,,,,,,,,854927,001,2024-07-02_14h44.57.136,5-33,2024.1.4,None,2024-07-02 14h45.02.086802 +0900,
Images/Speaker1.jpg,Images/Speaker2.jpg,Images/Speaker3.jpg,Images/Speaker4.jpg,Audio/Speaker3_Per/P3-5-Per.wav,Speaker3,گوینده۳,,,,,,,,0,0,0,24,0,13,13,44,,,,,98.89750204099983,,,,,,,,,,,,,,,,,,,,,,,,,,,,,,,,,,,,,,,,,,,98.87556900000345,98.89750204099983,98.89750204099983,98.89750204099983,98.89750204099983,98.89177962467171,98.89750204099983,98.89750204099983,100.42581008300476,Correct! صحیح است,13,14,3,1.5271776669978863,None,100.42956633300491,100.44123012500495,102.4249810830006,102.44606658300472,,,,,,,,,,,,,,,,,,,,,,,,,,,,,854927,001,2024-07-02_14h44.57.136,5-33,2024.1.4,None,2024-07-02 14h45.02.086802 +0900,
Images/Speaker1.jpg,Images/Speaker2.jpg,Images/Speaker3.jpg,Images/Speaker4.jpg,Audio/Speaker2_Per/P2-18-Per.wav,Speaker2,گوینده۲,,,,,,,,0,0,0,24,0,14,14,37,,,,,102.44606658300472,,,,,,,,,,,,,,,,,,,,,,,,,,,,,,,,,,,,,,,,,,,102.42517808300181,102.44606658300472,102.44606658300472,102.44606658300472,102.44606658300472,102.44144666666786,102.44606658300472,102.44606658300472,104.24665645800269,Correct! صحیح است,14,15,2,1.7981252919998951,None,104.25090341600298,104.26238600000215,106.24811883300572,106.26895870800217,,,,,,,,,,,,,,,,,,,,,,,,,,,,,854927,001,2024-07-02_14h44.57.136,5-33,2024.1.4,None,2024-07-02 14h45.02.086802 +0900,
Images/Speaker1.jpg,Images/Speaker2.jpg,Images/Speaker3.jpg,Images/Speaker4.jpg,Audio/Speaker3_Per/P3-9-Per.wav,Speaker3,گوینده۳,,,,,,,,0,0,0,24,0,15,15,48,,,,,106.26895870800217,,,,,,,,,,,,,,,,,,,,,,,,,,,,,,,,,,,,,,,,,,,106.24831112500397,106.26895870800217,106.26895870800217,106.26895870800217,106.26895870800217,106.26457891666747,106.26895870800217,106.26895870800217,107.75352316600038,Correct! صحیح است,15,16,3,1.4799939170043217,None,107.7575852910013,107.76965420800116,109.75316700000258,109.77395204100321,,,,,,,,,,,,,,,,,,,,,,,,,,,,,854927,001,2024-07-02_14h44.57.136,5-33,2024.1.4,None,2024-07-02 14h45.02.086802 +0900,
Images/Speaker1.jpg,Images/Speaker2.jpg,Images/Speaker3.jpg,Images/Speaker4.jpg,Audio/Speaker4_Per/P4-18-Per.wav,Speaker4,گوینده۴,,,,,,,,0,0,0,24,0,16,16,77,,,,,109.77395204100321,,,,,,,,,,,,,,,,,,,,,,,,,,,,,,,,,,,,,,,,,,,109.7533669580007,109.77395204100321,109.77395204100321,109.77395204100321,109.77395204100321,109.76964424967106,109.77395204100321,109.77395204100321,111.27984866600309,Correct! صحیح است,16,17,4,1.5028078329996788,None,111.28377325000474,111.2952407910052,113.28234912500193,113.30595395799901,,,,,,,,,,,,,,,,,,,,,,,,,,,,,854927,001,2024-07-02_14h44.57.136,5-33,2024.1.4,None,2024-07-02 14h45.02.086802 +0900,
Images/Speaker1.jpg,Images/Speaker2.jpg,Images/Speaker3.jpg,Images/Speaker4.jpg,Audio/Speaker3_Per/P3-14-Per.wav,Speaker3,گوینده۳,,,,,,,,0,0,0,24,0,17,17,53,,,,,113.30595395799901,,,,,,,,,,,,,,,,,,,,,,,,,,,,,,,,,,,,,,,,,,,113.28327620799973,113.30595395799901,113.30595395799901,113.30595395799901,113.30595395799901,113.31488649933502,113.30595395799901,113.30595395799901,114.83094654100569,Correct! صحیح است,17,18,3,1.521975832998578,None,114.8346795000034,114.84620758300298,116.84162241600279,,,,,,,,,,,,,,,,,,,,,,,,,,,,,,854927,001,2024-07-02_14h44.57.136,5-33,2024.1.4,None,2024-07-02 14h45.02.086802 +0900,
Images/Speaker1.jpg,Images/Speaker2.jpg,Images/Speaker3.jpg,Images/Speaker4.jpg,Audio/Speaker1_Per/P1-15-Per.wav,Speaker1,گوینده ۱,,,,,,,,0,0,0,24,0,18,18,14,,,,,116.8678393750015,,,,,,,,,,,,,,,,,,,,,,,,,,,,,,,,,,,,,,,,,,,116.8423120830048,116.8678393750015,116.8678393750015,116.8678393750015,116.8678393750015,116.87477933333915,116.8678393750015,116.8678393750015,118.14274770799966,Correct! صحیح است,18,19,1,1.2720740830045543,None,118.14695337500598,118.15849554099987,120.1414370410057,120.16351583300275,,,,,,,,,,,,,,,,,,,,,,,,,,,,,854927,001,2024-07-02_14h44.57.136,5-33,2024.1.4,None,2024-07-02 14h45.02.086802 +0900,
Images/Speaker1.jpg,Images/Speaker2.jpg,Images/Speaker3.jpg,Images/Speaker4.jpg,Audio/Speaker2_Per/P2-11-Per.wav,Speaker2,گوینده۲,,,,,,,,0,0,0,24,0,19,19,30,,,,,120.16351583300275,,,,,,,,,,,,,,,,,,,,,,,,,,,,,,,,,,,,,,,,,,,120.14161170800071,120.16351583300275,120.16351583300275,120.16351583300275,120.16351583300275,120.15788462466686,120.16351583300275,120.16351583300275,121.33486737500061,Correct! صحیح است,19,20,2,1.167994750001526,None,121.33951050000178,121.35297754100611,123.3485958750025,,,,,,,,,,,,,,,,,,,,,,,,,,,,,,854927,001,2024-07-02_14h44.57.136,5-33,2024.1.4,None,2024-07-02 14h45.02.086802 +0900,
Images/Speaker1.jpg,Images/Speaker2.jpg,Images/Speaker3.jpg,Images/Speaker4.jpg,Audio/Speaker1_Per/P1-1-Per.wav,Speaker1,گوینده ۱,,,,,,,,0,0,0,24,0,20,20,0,,,,,123.36863904100028,,,,,,,,,,,,,,,,,,,,,,,,,,,,,,,,,,,,,,,,,,,123.34875750000356,123.36863904100028,123.36863904100028,123.36863904100028,123.36863904100028,123.36522899967191,123.36863904100028,123.36863904100028,124.83807729100226,Correct! صحیح است,20,21,1,1.464393417001702,None,124.8422600000049,124.85415458300122,126.84429754099983,,,,,,,,,,,,,,,,,,,,,,,,,,,,,,854927,001,2024-07-02_14h44.57.136,5-33,2024.1.4,None,2024-07-02 14h45.02.086802 +0900,
Images/Speaker1.jpg,Images/Speaker2.jpg,Images/Speaker3.jpg,Images/Speaker4.jpg,Audio/Speaker2_Per/P2-15-Per.wav,Speaker2,گوینده۲,,,,,,,,0,0,0,24,0,21,21,34,,,,,126.86543266600347,,,,,,,,,,,,,,,,,,,,,,,,,,,,,,,,,,,,,,,,,,,126.84447641600127,126.86543266600347,126.86543266600347,126.86543266600347,126.86543266600347,126.86093045767144,126.86543266600347,126.86543266600347,128.05817716599995,Correct! صحیح است,21,22,2,1.1865594999981113,None,128.06195645800472,128.0731890829993,130.0585125409998,130.0798975409998,,,,,,,,,,,,,,,,,,,,,,,,,,,,,854927,001,2024-07-02_14h44.57.136,5-33,2024.1.4,None,2024-07-02 14h45.02.086802 +0900,
Images/Speaker1.jpg,Images/Speaker2.jpg,Images/Speaker3.jpg,Images/Speaker4.jpg,Audio/Speaker4_Per/P4-7-Per.wav,Speaker4,گوینده۴,,,,,,,,0,0,0,24,0,22,22,66,,,,,130.0798975409998,,,,,,,,,,,,,,,,,,,,,,,,,,,,,,,,,,,,,,,,,,,130.05870850000065,130.0798975409998,130.0798975409998,130.0798975409998,130.0798975409998,130.07492683266562,130.0798975409998,130.0798975409998,132.100646333005,Correct! صحیح است,22,23,4,2.0174618329983787,None,132.1047889160036,132.11746074999974,134.1051592080039,134.1281374579994,,,,,,,,,,,,,,,,,,,,,,,,,,,,,854927,001,2024-07-02_14h44.57.136,5-33,2024.1.4,None,2024-07-02 14h45.02.086802 +0900,
Images/Speaker1.jpg,Images/Speaker2.jpg,Images/Speaker3.jpg,Images/Speaker4.jpg,Audio/Speaker4_Per/P4-20-Per.wav,Speaker4,گوینده۴,,,,,,,,0,0,0,24,0,23,23,79,,,,,134.1281374579994,,,,,,,,,,,,,,,,,,,,,,,,,,,,,,,,,,,,,,,,,,,134.10578454100323,134.1281374579994,134.1281374579994,134.1281374579994,134.1281374579994,134.13758791633933,134.1281374579994,134.1281374579994,136.50882145800279,Correct! صحیح است,23,24,4,2.3792250420010532,None,136.51265020800201,136.52429320800002,138.51449175000016,,,,,,,,,,,,,,,,,,,,,,,,,,,,,,854927,001,2024-07-02_14h44.57.136,5-33,2024.1.4,None,2024-07-02 14h45.02.086802 +0900,
Images/Speaker1.jpg,Images/Speaker2.jpg,Images/Speaker3.jpg,Images/Speaker4.jpg,Audio/Speaker2_Per/P2-7-Per.wav,Speaker2,گوینده۲,,,,,,,,0,0,0,24,0,24,24,26,,,,,138.53816779100453,,,,,,,,,,,,,,,,,,,,,,,,,,,,,,,,,,,,,,,,,,,138.51508104100503,138.53816779100453,138.53816779100453,138.53816779100453,138.53816779100453,138.54763045833585,138.53816779100453,138.53816779100453,140.10954625000159,Correct! صحیح است,24,25,2,1.5604481670015957,None,140.1136338330034,140.12215350000042,142.10817545800091,142.12949704100174,,,,,,,,,,,,,,,,,,,,,,,,,,,,,854927,001,2024-07-02_14h44.57.136,5-33,2024.1.4,None,2024-07-02 14h45.02.086802 +0900,
Images/Speaker1.jpg,Images/Speaker2.jpg,Images/Speaker3.jpg,Images/Speaker4.jpg,Audio/Speaker1_Per/P1-13-Per.wav,Speaker1,گوینده ۱,,,,,,,,0,0,0,24,0,25,25,12,,,,,142.12949704100174,,,,,,,,,,,,,,,,,,,,,,,,,,,,,,,,,,,,,,,,,,,142.10835366600077,142.12949704100174,142.12949704100174,142.12949704100174,142.12949704100174,142.12461637466575,142.12949704100174,142.12949704100174,143.29781262500182,Correct! صحیح است,25,26,1,1.1576711669986253,None,143.30202445800387,143.31090583300102,145.30466879100277,,,,,,,,,,,,,,,,,,,,,,,,,,,,,,854927,001,2024-07-02_14h44.57.136,5-33,2024.1.4,None,2024-07-02 14h45.02.086802 +0900,
Images/Speaker1.jpg,Images/Speaker2.jpg,Images/Speaker3.jpg,Images/Speaker4.jpg,Audio/Speaker3_Per/P3-10-Per.wav,Speaker3,گوینده۳,,,,,,,,0,0,0,24,0,26,26,49,,,,,145.32866891600133,,,,,,,,,,,,,,,,,,,,,,,,,,,,,,,,,,,,,,,,,,,145.30539070800296,145.32866891600133,145.32866891600133,145.32866891600133,145.32866891600133,145.33784687433268,145.32866891600133,145.32866891600133,146.79213004100166,Correct! صحیح است,26,27,3,1.4547787499977858,None,146.79611733300408,146.80479408300016,148.79694045799988,,,,,,,,,,,,,,,,,,,,,,,,,,,,,,854927,001,2024-07-02_14h44.57.136,5-33,2024.1.4,None,2024-07-02 14h45.02.086802 +0900,
Images/Speaker1.jpg,Images/Speaker2.jpg,Images/Speaker3.jpg,Images/Speaker4.jpg,Audio/Speaker2_Per/P2-2-Per.wav,Speaker2,گوینده۲,,,,,,,,0,0,0,24,0,27,27,21,,,,,148.8209323330011,,,,,,,,,,,,,,,,,,,,,,,,,,,,,,,,,,,,,,,,,,,148.7976208750042,148.8209323330011,148.8209323330011,148.8209323330011,148.8209323330011,148.83013395833456,148.8209323330011,148.8209323330011,150.35625083299965,Correct! صحیح است,27,28,2,1.5337851669974043,None,150.36018529099965,150.37167783300538,152.36470912500226,,,,,,,,,,,,,,,,,,,,,,,,,,,,,,854927,001,2024-07-02_14h44.57.136,5-33,2024.1.4,None,2024-07-02 14h45.02.086802 +0900,
Images/Speaker1.jpg,Images/Speaker2.jpg,Images/Speaker3.jpg,Images/Speaker4.jpg,Audio/Speaker2_Per/P2-19-Per.wav,Speaker2,گوینده۲,,,,,,,,0,0,0,24,0,28,28,38,,,,,152.38768458300183,,,,,,,,,,,,,,,,,,,,,,,,,,,,,,,,,,,,,,,,,,,152.36527887500415,152.38768458300183,152.38768458300183,152.38768458300183,152.38768458300183,152.39782670833716,152.38768458300183,152.38768458300183,154.24027816600574,Correct! صحیح است,28,29,2,1.8490110829952755,None,154.24426791600126,154.2554040410032,156.23874404100206,156.2588583750039,,,,,,,,,,,,,,,,,,,,,,,,,,,,,854927,001,2024-07-02_14h44.57.136,5-33,2024.1.4,None,2024-07-02 14h45.02.086802 +0900,
Images/Speaker1.jpg,Images/Speaker2.jpg,Images/Speaker3.jpg,Images/Speaker4.jpg,Audio/Speaker4_Per/P4-1-Per.wav,Speaker4,گوینده۴,,,,,,,,0,0,0,24,0,29,29,60,,,,,156.2588583750039,,,,,,,,,,,,,,,,,,,,,,,,,,,,,,,,,,,,,,,,,,,156.23892637500103,156.2588583750039,156.2588583750039,156.2588583750039,156.2588583750039,156.25520716666895,156.2588583750039,156.2588583750039,158.5776350830056,Correct! صحیح است,29,30,4,2.314678249997087,None,158.58160854100424,158.59329950000392,160.5808562500024,160.60721233300137,,,,,,,,,,,,,,,,,,,,,,,,,,,,,854927,001,2024-07-02_14h44.57.136,5-33,2024.1.4,None,2024-07-02 14h45.02.086802 +0900,
Images/Speaker1.jpg,Images/Speaker2.jpg,Images/Speaker3.jpg,Images/Speaker4.jpg,Audio/Speaker3_Per/P3-11-Per.wav,Speaker3,گوینده۳,,,,,,,,0,0,0,24,0,30,30,50,,,,,160.60721233300137,,,,,,,,,,,,,,,,,,,,,,,,,,,,,,,,,,,,,,,,,,,160.58145850000437,160.60721233300137,160.60721233300137,160.60721233300137,160.60721233300137,160.61321633333915,160.60721233300137,160.60721233300137,162.16236349999963,Correct! صحیح است,30,31,3,1.5537457919999724,None,162.16744437500165,162.1802459160026,164.16461712500313,164.18917941600375,,,,,,,,,,,,,,,,,,,,,,,,,,,,,854927,001,2024-07-02_14h44.57.136,5-33,2024.1.4,None,2024-07-02 14h45.02.086802 +0900,
Images/Speaker1.jpg,Images/Speaker2.jpg,Images/Speaker3.jpg,Images/Speaker4.jpg,Audio/Speaker4_Per/P4-3-Per.wav,Speaker4,گوینده۴,,,,,,,,0,0,0,24,0,31,31,62,,,,,164.18917941600375,,,,,,,,,,,,,,,,,,,,,,,,,,,,,,,,,,,,,,,,,,,164.16521350000403,164.18917941600375,164.18917941600375,164.18917941600375,164.18917941600375,164.19701158333243,164.18917941600375,164.18917941600375,165.64570862500113,Correct! صحیح است,31,32,4,1.4543567090004217,None,165.64998249999917,165.6613629160056,167.6450735000035,167.66663125000196,,,,,,,,,,,,,,,,,,,,,,,,,,,,,854927,001,2024-07-02_14h44.57.136,5-33,2024.1.4,None,2024-07-02 14h45.02.086802 +0900,
Images/Speaker1.jpg,Images/Speaker2.jpg,Images/Speaker3.jpg,Images/Speaker4.jpg,Audio/Speaker1_Per/P1-8-Per.wav,Speaker1,گوینده ۱,,,,,,,,0,0,0,24,0,32,32,7,,,,,167.66663125000196,,,,,,,,,,,,,,,,,,,,,,,,,,,,,,,,,,,,,,,,,,,167.6452552080009,167.66663125000196,167.66663125000196,167.66663125000196,167.66663125000196,167.6614302496712,167.66663125000196,167.66663125000196,169.51978500000405,Correct! صحیح است,32,33,1,1.8480988749943208,None,169.5238298750046,169.53487591600424,171.52253175000078,171.5449027909999,,,,,,,,,,,,,,,,,,,,,,,,,,,,,854927,001,2024-07-02_14h44.57.136,5-33,2024.1.4,None,2024-07-02 14h45.02.086802 +0900,
Images/Speaker1.jpg,Images/Speaker2.jpg,Images/Speaker3.jpg,Images/Speaker4.jpg,Audio/Speaker4_Per/P4-9-Per.wav,Speaker4,گوینده۴,,,,,,,,0,0,0,24,0,33,33,68,,,,,171.5449027909999,,,,,,,,,,,,,,,,,,,,,,,,,,,,,,,,,,,,,,,,,,,171.52273316599894,171.5449027909999,171.5449027909999,171.5449027909999,171.5449027909999,171.53896929166902,171.5449027909999,171.5449027909999,173.464904708002,Correct! صحیح است,33,34,4,1.9111127500000293,None,173.4687365830032,173.47978020799928,175.46251358299924,175.48456962500495,,,,,,,,,,,,,,,,,,,,,,,,,,,,,854927,001,2024-07-02_14h44.57.136,5-33,2024.1.4,None,2024-07-02 14h45.02.086802 +0900,
Images/Speaker1.jpg,Images/Speaker2.jpg,Images/Speaker3.jpg,Images/Speaker4.jpg,Audio/Speaker1_Per/P1-11-Per.wav,Speaker1,گوینده ۱,,,,,,,,0,0,0,24,0,34,34,10,,,,,175.48456962500495,,,,,,,,,,,,,,,,,,,,,,,,,,,,,,,,,,,,,,,,,,,175.46269466599915,175.48456962500495,175.48456962500495,175.48456962500495,175.48456962500495,175.47889262466586,175.48456962500495,175.48456962500495,176.95805212500272,Correct! صحیح است,34,35,1,1.461494875002245,None,176.96261149999918,176.97571512500144,178.9648060410036,,,,,,,,,,,,,,,,,,,,,,,,,,,,,,854927,001,2024-07-02_14h44.57.136,5-33,2024.1.4,None,2024-07-02 14h45.02.086802 +0900,
Images/Speaker1.jpg,Images/Speaker2.jpg,Images/Speaker3.jpg,Images/Speaker4.jpg,Audio/Speaker3_Per/P3-6-Per.wav,Speaker3,گوینده۳,,,,,,,,0,0,0,24,0,35,35,45,,,,,178.98642987500352,,,,,,,,,,,,,,,,,,,,,,,,,,,,,,,,,,,,,,,,,,,178.96499383300397,178.98642987500352,178.98642987500352,178.98642987500352,178.98642987500352,178.98142149966978,178.98642987500352,178.98642987500352,180.4208064580016,Incorrect! The correct answer is Speaker3. نادرست! پاسخ صحیح گوینده۳ است,34,36,4,1.4241608329975861,None,180.42475604100036,180.43822362500214,182.43020533300296,,,,,,,,,,,,,,,,,,,,,,,,,,,,,,854927,001,2024-07-02_14h44.57.136,5-33,2024.1.4,None,2024-07-02 14h45.02.086802 +0900,
Images/Speaker1.jpg,Images/Speaker2.jpg,Images/Speaker3.jpg,Images/Speaker4.jpg,Audio/Speaker2_Per/P2-10-Per.wav,Speaker2,گوینده۲,,,,,,,,0,0,0,24,0,36,36,29,,,,,182.45253924999997,,,,,,,,,,,,,,,,,,,,,,,,,,,,,,,,,,,,,,,,,,,182.43087045800348,182.45253924999997,182.45253924999997,182.45253924999997,182.45253924999997,182.4467256246683,182.45253924999997,182.45253924999997,184.96370783300517,Correct! صحیح است,35,37,2,2.508539833004761,None,184.96755079099967,184.97860533300263,186.96125470800325,186.98156550000567,,,,,,,,,,,,,,,,,,,,,,,,,,,,,854927,001,2024-07-02_14h44.57.136,5-33,2024.1.4,None,2024-07-02 14h45.02.086802 +0900,
Images/Speaker1.jpg,Images/Speaker2.jpg,Images/Speaker3.jpg,Images/Speaker4.jpg,Audio/Speaker4_Per/P4-8-Per.wav,Speaker4,گوینده۴,,,,,,,,0,0,0,24,0,37,37,67,,,,,186.98156550000567,,,,,,,,,,,,,,,,,,,,,,,,,,,,,,,,,,,,,,,,,,,186.96144754100533,186.98156550000567,186.98156550000567,186.98156550000567,186.98156550000567,186.97768645766726,186.98156550000567,186.98156550000567,188.29211866600235,Correct! صحیح است,36,38,4,1.308785875000467,None,188.29630945800454,188.30799649999972,190.29069045800134,190.31455270800507,,,,,,,,,,,,,,,,,,,,,,,,,,,,,854927,001,2024-07-02_14h44.57.136,5-33,2024.1.4,None,2024-07-02 14h45.02.086802 +0900,
Images/Speaker1.jpg,Images/Speaker2.jpg,Images/Speaker3.jpg,Images/Speaker4.jpg,Audio/Speaker1_Per/P1-9-Per.wav,Speaker1,گوینده ۱,,,,,,,,0,0,0,24,0,38,38,8,,,,,190.31455270800507,,,,,,,,,,,,,,,,,,,,,,,,,,,,,,,,,,,,,,,,,,,190.29088720800064,190.31455270800507,190.31455270800507,190.31455270800507,190.31455270800507,190.3238154583383,190.31455270800507,190.31455270800507,192.21178833299928,Correct! صحیح است,37,39,1,1.8918970839949907,None,192.21568341600505,192.22719420800422,194.21636666600534,194.24104358300247,,,,,,,,,,,,,,,,,,,,,,,,,,,,,854927,001,2024-07-02_14h44.57.136,5-33,2024.1.4,None,2024-07-02 14h45.02.086802 +0900,
Images/Speaker1.jpg,Images/Speaker2.jpg,Images/Speaker3.jpg,Images/Speaker4.jpg,Audio/Speaker4_Per/P4-11-Per.wav,Speaker4,گوینده۴,,,,,,,,0,0,0,24,0,39,39,70,,,,,194.24104358300247,,,,,,,,,,,,,,,,,,,,,,,,,,,,,,,,,,,,,,,,,,,194.2173732500014,194.24104358300247,194.24104358300247,194.24104358300247,194.24104358300247,194.2486643743328,194.24104358300247,194.24104358300247,196.06571512500523,Correct! صحیح است,38,40,4,1.811018458000035,None,196.06951508299971,196.08057345799898,198.07157608299894,,,,,,,,,,,,,,,,,,,,,,,,,,,,,,854927,001,2024-07-02_14h44.57.136,5-33,2024.1.4,None,2024-07-02 14h45.02.086802 +0900,
Images/Speaker1.jpg,Images/Speaker2.jpg,Images/Speaker3.jpg,Images/Speaker4.jpg,Audio/Speaker2_Per/P2-17-Per.wav,Speaker2,گوینده۲,,,,,,,,0,0,0,24,0,40,40,36,,,,,198.09467791600036,,,,,,,,,,,,,,,,,,,,,,,,,,,,,,,,,,,,,,,,,,,198.07220983300067,198.09467791600036,198.09467791600036,198.09467791600036,198.09467791600036,198.0880934996715,198.09467791600036,198.09467791600036,199.38813454100455,Correct! صحیح است,39,41,2,1.2893150839954615,None,199.39199666600325,199.403580916005,201.38753437500418,201.41085050000402,,,,,,,,,,,,,,,,,,,,,,,,,,,,,854927,001,2024-07-02_14h44.57.136,5-33,2024.1.4,None,2024-07-02 14h45.02.086802 +0900,
Images/Speaker1.jpg,Images/Speaker2.jpg,Images/Speaker3.jpg,Images/Speaker4.jpg,Audio/Speaker4_Per/P4-15-Per.wav,Speaker4,گوینده۴,,,,,,,,0,0,0,24,0,41,41,74,,,,,201.41085050000402,,,,,,,,,,,,,,,,,,,,,,,,,,,,,,,,,,,,,,,,,,,201.38772133300517,201.41085050000402,201.41085050000402,201.41085050000402,201.41085050000402,201.4206722083332,201.41085050000402,201.41085050000402,203.573051708001,Correct! صحیح است,40,42,4,2.159753959000227,None,203.57733150000422,203.58876308300387,205.5795909160006,,,,,,,,,,,,,,,,,,,,,,,,,,,,,,854927,001,2024-07-02_14h44.57.136,5-33,2024.1.4,None,2024-07-02 14h45.02.086802 +0900,
Images/Speaker1.jpg,Images/Speaker2.jpg,Images/Speaker3.jpg,Images/Speaker4.jpg,Audio/Speaker2_Per/P2-3-Per.wav,Speaker2,گوینده۲,,,,,,,,0,0,0,24,0,42,42,22,,,,,205.60013533299934,,,,,,,,,,,,,,,,,,,,,,,,,,,,,,,,,,,,,,,,,,,205.5797635830022,205.60013533299934,205.60013533299934,205.60013533299934,205.60013533299934,205.596219457668,205.60013533299934,205.60013533299934,206.96765308300382,Correct! صحیح است,41,43,2,1.3654248749953695,None,206.97171675000573,206.98296941599983,208.97367179100547,,,,,,,,,,,,,,,,,,,,,,,,,,,,,,854927,001,2024-07-02_14h44.57.136,5-33,2024.1.4,None,2024-07-02 14h45.02.086802 +0900,
Images/Speaker1.jpg,Images/Speaker2.jpg,Images/Speaker3.jpg,Images/Speaker4.jpg,Audio/Speaker1_Per/P1-7-Per.wav,Speaker1,گوینده ۱,,,,,,,,0,0,0,24,0,43,43,6,,,,,208.99484650000522,,,,,,,,,,,,,,,,,,,,,,,,,,,,,,,,,,,,,,,,,,,208.9738380830022,208.99484650000522,208.99484650000522,208.99484650000522,208.99484650000522,208.99030337467073,208.99484650000522,208.99484650000522,210.34293674999935,Correct! صحیح است,42,44,1,1.3427844999969238,None,210.347042625006,210.35855429100047,212.3473630830049,,,,,,,,,,,,,,,,,,,,,,,,,,,,,,854927,001,2024-07-02_14h44.57.136,5-33,2024.1.4,None,2024-07-02 14h45.02.086802 +0900,
Images/Speaker1.jpg,Images/Speaker2.jpg,Images/Speaker3.jpg,Images/Speaker4.jpg,Audio/Speaker3_Per/P3-18-Per.wav,Speaker3,گوینده۳,,,,,,,,0,0,0,24,0,44,44,57,,,,,212.36990766600502,,,,,,,,,,,,,,,,,,,,,,,,,,,,,,,,,,,,,,,,,,,212.3480410830016,212.36990766600502,212.36990766600502,212.36990766600502,212.36990766600502,212.36386587466794,212.36990766600502,212.36990766600502,214.04635350000171,Correct! صحیح است,43,45,3,1.6754033750039525,None,214.05018199999904,214.0618394580015,216.05426895800338,,,,,,,,,,,,,,,,,,,,,,,,,,,,,,854927,001,2024-07-02_14h44.57.136,5-33,2024.1.4,None,2024-07-02 14h45.02.086802 +0900,
Images/Speaker1.jpg,Images/Speaker2.jpg,Images/Speaker3.jpg,Images/Speaker4.jpg,Audio/Speaker1_Per/P1-20-Per.wav,Speaker1,گوینده ۱,,,,,,,,0,0,0,24,0,45,45,19,,,,,216.07452325000486,,,,,,,,,,,,,,,,,,,,,,,,,,,,,,,,,,,,,,,,,,,216.0544411660012,216.07452325000486,216.07452325000486,216.07452325000486,216.07452325000486,216.07089962467242,216.07452325000486,216.07452325000486,217.530504416005,Correct! صحیح است,44,46,1,1.4492173329999787,None,217.53465095800493,217.55345891600155,219.54855966600007,,,,,,,,,,,,,,,,,,,,,,,,,,,,,,854927,001,2024-07-02_14h44.57.136,5-33,2024.1.4,None,2024-07-02 14h45.02.086802 +0900,
Images/Speaker1.jpg,Images/Speaker2.jpg,Images/Speaker3.jpg,Images/Speaker4.jpg,Audio/Speaker3_Per/P3-1-Per.wav,Speaker3,گوینده۳,,,,,,,,0,0,0,24,0,46,46,40,,,,,219.57528679100506,,,,,,,,,,,,,,,,,,,,,,,,,,,,,,,,,,,,,,,,,,,219.54918195800565,219.57528679100506,219.57528679100506,219.57528679100506,219.57528679100506,219.5817339583378,219.57528679100506,219.57528679100506,221.32315070800541,Correct! صحیح است,45,47,3,1.7449427920000744,None,221.32744779100176,221.33899816600024,223.32351562500116,223.34927654100466,,,,,,,,,,,,,,,,,,,,,,,,,,,,,854927,001,2024-07-02_14h44.57.136,5-33,2024.1.4,None,2024-07-02 14h45.02.086802 +0900,
Images/Speaker1.jpg,Images/Speaker2.jpg,Images/Speaker3.jpg,Images/Speaker4.jpg,Audio/Speaker2_Per/P2-16-Per.wav,Speaker2,گوینده۲,,,,,,,,0,0,0,24,0,47,47,35,,,,,223.34927654100466,,,,,,,,,,,,,,,,,,,,,,,,,,,,,,,,,,,,,,,,,,,223.32432258300105,223.34927654100466,223.34927654100466,223.34927654100466,223.34927654100466,223.35602541633904,223.34927654100466,223.34927654100466,224.64147379100177,Correct! صحیح است,46,48,2,1.2810562910017325,None,224.64649912500317,224.65905395799928,226.64894708300562,,,,,,,,,,,,,,,,,,,,,,,,,,,,,,854927,001,2024-07-02_14h44.57.136,5-33,2024.1.4,None,2024-07-02 14h45.02.086802 +0900,
Images/Speaker1.jpg,Images/Speaker2.jpg,Images/Speaker3.jpg,Images/Speaker4.jpg,Audio/Speaker1_Per/P1-19-Per.wav,Speaker1,گوینده ۱,,,,,,,,0,0,0,24,0,48,48,18,,,,,226.67456954099907,,,,,,,,,,,,,,,,,,,,,,,,,,,,,,,,,,,,,,,,,,,226.6496265829992,226.67456954099907,226.67456954099907,226.67456954099907,226.67456954099907,226.68210749933547,226.67456954099907,226.67456954099907,227.94621879100305,Correct! صحیح است,47,49,1,1.2625459999981103,None,227.95028475000436,227.96175187500194,229.94983933299955,229.97298299999966,,,,,,,,,,,,,,,,,,,,,,,,,,,,,854927,001,2024-07-02_14h44.57.136,5-33,2024.1.4,None,2024-07-02 14h45.02.086802 +0900,
Images/Speaker1.jpg,Images/Speaker2.jpg,Images/Speaker3.jpg,Images/Speaker4.jpg,Audio/Speaker4_Per/P4-14-Per.wav,Speaker4,گوینده۴,,,,,,,,0,0,0,24,0,49,49,73,,,,,229.97298299999966,,,,,,,,,,,,,,,,,,,,,,,,,,,,,,,,,,,,,,,,,,,229.95082404099958,229.97298299999966,229.97298299999966,229.97298299999966,229.97298299999966,229.98213716633524,229.97298299999966,229.97298299999966,231.2841640830011,Correct! صحیح است,48,50,4,1.3099355409940472,None,231.28837449999992,231.29980966600124,233.29064720799943,,,,,,,,,,,,,,,,,,,,,,,,,,,,,,854927,001,2024-07-02_14h44.57.136,5-33,2024.1.4,None,2024-07-02 14h45.02.086802 +0900,
Images/Speaker1.jpg,Images/Speaker2.jpg,Images/Speaker3.jpg,Images/Speaker4.jpg,Audio/Speaker1_Per/P1-17-Per.wav,Speaker1,گوینده ۱,,,,,,,,0,0,0,24,0,50,50,16,,,,,233.31414137500542,,,,,,,,,,,,,,,,,,,,,,,,,,,,,,,,,,,,,,,,,,,233.29123291600263,233.31414137500542,233.31414137500542,233.31414137500542,233.31414137500542,233.32380216633516,233.31414137500542,233.31414137500542,234.56406825000158,Correct! صحیح است,49,51,1,1.2485035409990815,None,234.5684126250053,234.5803151250002,236.5663157500021,236.58803062500374,,,,,,,,,,,,,,,,,,,,,,,,,,,,,854927,001,2024-07-02_14h44.57.136,5-33,2024.1.4,None,2024-07-02 14h45.02.086802 +0900,
Images/Speaker1.jpg,Images/Speaker2.jpg,Images/Speaker3.jpg,Images/Speaker4.jpg,Audio/Speaker3_Per/P3-19-Per.wav,Speaker3,گوینده۳,,,,,,,,0,0,0,24,0,51,51,58,,,,,236.58803062500374,,,,,,,,,,,,,,,,,,,,,,,,,,,,,,,,,,,,,,,,,,,236.56651166600204,236.58803062500374,236.58803062500374,236.58803062500374,236.58803062500374,236.58277208266762,236.58803062500374,236.58803062500374,238.37675704100548,Correct! صحیح است,50,52,3,1.7839612500029034,None,238.3806410410034,238.39204116600013,240.38114974999917,,,,,,,,,,,,,,,,,,,,,,,,,,,,,,854927,001,2024-07-02_14h44.57.136,5-33,2024.1.4,None,2024-07-02 14h45.02.086802 +0900,
Images/Speaker1.jpg,Images/Speaker2.jpg,Images/Speaker3.jpg,Images/Speaker4.jpg,Audio/Speaker3_Per/P3-2-Per.wav,Speaker3,گوینده۳,,,,,,,,0,0,0,24,0,52,52,41,,,,,240.4079506660055,,,,,,,,,,,,,,,,,,,,,,,,,,,,,,,,,,,,,,,,,,,240.38185237500147,240.4079506660055,240.4079506660055,240.4079506660055,240.4079506660055,240.41426095833646,240.4079506660055,240.4079506660055,241.6138216660038,Correct! صحیح است,51,53,3,1.1962116659997264,None,241.61814329100162,241.6296547910024,243.61276083300618,243.63357120800356,,,,,,,,,,,,,,,,,,,,,,,,,,,,,854927,001,2024-07-02_14h44.57.136,5-33,2024.1.4,None,2024-07-02 14h45.02.086802 +0900,
Images/Speaker1.jpg,Images/Speaker2.jpg,Images/Speaker3.jpg,Images/Speaker4.jpg,Audio/Speaker4_Per/P4-19-Per.wav,Speaker4,گوینده۴,,,,,,,,0,0,0,24,0,53,53,78,,,,,243.63357120800356,,,,,,,,,,,,,,,,,,,,,,,,,,,,,,,,,,,,,,,,,,,243.61295820800296,243.63357120800356,243.63357120800356,243.63357120800356,243.63357120800356,243.6292230826696,243.63357120800356,243.63357120800356,245.406030750004,Correct! صحیح است,52,54,4,1.7616478339987225,None,245.41034587500326,245.4215045000019,247.40406408299896,247.42460366600426,,,,,,,,,,,,,,,,,,,,,,,,,,,,,854927,001,2024-07-02_14h44.57.136,5-33,2024.1.4,None,2024-07-02 14h45.02.086802 +0900,
Images/Speaker1.jpg,Images/Speaker2.jpg,Images/Speaker3.jpg,Images/Speaker4.jpg,Audio/Speaker2_Per/P2-12-Per.wav,Speaker2,گوینده۲,,,,,,,,0,0,0,24,0,54,54,31,,,,,247.42460366600426,,,,,,,,,,,,,,,,,,,,,,,,,,,,,,,,,,,,,,,,,,,247.4042409160029,247.42460366600426,247.42460366600426,247.42460366600426,247.42460366600426,247.42050879166734,247.42460366600426,247.42460366600426,249.04008095800236,Correct! صحیح است,53,55,2,1.6105727910035057,None,249.04415662500105,249.05572433300404,251.04040662500483,251.06259362499986,,,,,,,,,,,,,,,,,,,,,,,,,,,,,854927,001,2024-07-02_14h44.57.136,5-33,2024.1.4,None,2024-07-02 14h45.02.086802 +0900,
Images/Speaker1.jpg,Images/Speaker2.jpg,Images/Speaker3.jpg,Images/Speaker4.jpg,Audio/Speaker4_Per/P4-16-Per.wav,Speaker4,گوینده۴,,,,,,,,0,0,0,24,0,55,55,75,,,,,251.06259362499986,,,,,,,,,,,,,,,,,,,,,,,,,,,,,,,,,,,,,,,,,,,251.0412995000006,251.06259362499986,251.06259362499986,251.06259362499986,251.06259362499986,251.05611412466922,251.06259362499986,251.06259362499986,253.17515187500248,Correct! صحیح است,54,56,4,2.1037454580000485,None,253.17944170800183,253.19107020800584,255.17406004100485,255.19518679100293,,,,,,,,,,,,,,,,,,,,,,,,,,,,,854927,001,2024-07-02_14h44.57.136,5-33,2024.1.4,None,2024-07-02 14h45.02.086802 +0900,
Images/Speaker1.jpg,Images/Speaker2.jpg,Images/Speaker3.jpg,Images/Speaker4.jpg,Audio/Speaker2_Per/P2-1-Per.wav,Speaker2,گوینده۲,,,,,,,,0,0,0,24,0,56,56,20,,,,,255.19518679100293,,,,,,,,,,,,,,,,,,,,,,,,,,,,,,,,,,,,,,,,,,,255.17425412500597,255.19518679100293,255.19518679100293,255.19518679100293,255.19518679100293,255.1905166666659,255.19518679100293,255.19518679100293,256.9031369580043,Correct! صحیح است,55,57,2,1.7025273330000346,None,256.9072369580026,256.91880295800365,258.90428266600065,258.928757665999,,,,,,,,,,,,,,,,,,,,,,,,,,,,,854927,001,2024-07-02_14h44.57.136,5-33,2024.1.4,None,2024-07-02 14h45.02.086802 +0900,
Images/Speaker1.jpg,Images/Speaker2.jpg,Images/Speaker3.jpg,Images/Speaker4.jpg,Audio/Speaker4_Per/P4-6-Per.wav,Speaker4,گوینده۴,,,,,,,,0,0,0,24,0,57,57,65,,,,,258.928757665999,,,,,,,,,,,,,,,,,,,,,,,,,,,,,,,,,,,,,,,,,,,258.9047244579997,258.928757665999,258.928757665999,258.928757665999,258.928757665999,258.9369999993364,258.928757665999,258.928757665999,260.1795895410032,Correct! صحیح است,56,58,4,1.249089458004164,None,260.1836460830018,260.19479816600506,262.1810724160023,262.2068888330032,,,,,,,,,,,,,,,,,,,,,,,,,,,,,854927,001,2024-07-02_14h44.57.136,5-33,2024.1.4,None,2024-07-02 14h45.02.086802 +0900,
Images/Speaker1.jpg,Images/Speaker2.jpg,Images/Speaker3.jpg,Images/Speaker4.jpg,Audio/Speaker3_Per/P3-4-Per.wav,Speaker3,گوینده۳,,,,,,,,0,0,0,24,0,58,58,43,,,,,262.2068888330032,,,,,,,,,,,,,,,,,,,,,,,,,,,,,,,,,,,,,,,,,,,262.18161091599904,262.2068888330032,262.2068888330032,262.2068888330032,262.2068888330032,262.2133922913349,262.2068888330032,262.2068888330032,264.25843312500365,Incorrect! The correct answer is Speaker3. نادرست! پاسخ صحیح گوینده۳ است,56,59,1,2.0457791670050938,None,264.2623332910007,264.2754006250034,266.2663910830015,,,,,,,,,,,,,,,,,,,,,,,,,,,,,,854927,001,2024-07-02_14h44.57.136,5-33,2024.1.4,None,2024-07-02 14h45.02.086802 +0900,
Images/Speaker1.jpg,Images/Speaker2.jpg,Images/Speaker3.jpg,Images/Speaker4.jpg,Audio/Speaker1_Per/P1-4-Per.wav,Speaker1,گوینده ۱,,,,,,,,0,0,0,24,0,59,59,13,,,,,266.2915290410019,,,,,,,,,,,,,,,,,,,,,,,,,,,,,,,,,,,,,,,,,,,266.26707945800445,266.2915290410019,266.2915290410019,266.2915290410019,266.2915290410019,266.2995349163325,266.2915290410019,266.2915290410019,269.89295170800324,Correct! صحیح است,57,60,1,3.598479291998956,None,269.8931972909995,269.9044175000017,271.88985200000025,271.91326675000164,,,,,,,,,,,,,,,,,,,,,,,,,,,,,854927,001,2024-07-02_14h44.57.136,5-33,2024.1.4,None,2024-07-02 14h45.02.086802 +0900,
Images/Speaker1.jpg,Images/Speaker2.jpg,Images/Speaker3.jpg,Images/Speaker4.jpg,Audio/Speaker1_Per/P1-2-Per.wav,Speaker1,گوینده ۱,,,,,,,,0,0,0,24,0,60,60,1,,,,,271.91326675000164,,,,,,,,,,,,,,,,,,,,,,,,,,,,,,,,,,,,,,,,,,,271.8903845829991,271.91326675000164,271.91326675000164,271.91326675000164,271.91326675000164,271.92225412433663,271.91326675000164,271.91326675000164,274.03825045800477,Correct! صحیح است,58,61,1,2.123654750001151,None,274.0430223750009,274.05540254100197,276.0390415830043,276.0629415410003,,,,,,,,,,,,,,,,,,,,,,,,,,,,,854927,001,2024-07-02_14h44.57.136,5-33,2024.1.4,None,2024-07-02 14h45.02.086802 +0900,
Images/Speaker1.jpg,Images/Speaker2.jpg,Images/Speaker3.jpg,Images/Speaker4.jpg,Audio/Speaker1_Per/P1-10-Per.wav,Speaker1,گوینده ۱,,,,,,,,0,0,0,24,0,61,61,9,,,,,276.0629415410003,,,,,,,,,,,,,,,,,,,,,,,,,,,,,,,,,,,,,,,,,,,276.03999045800447,276.0629415410003,276.0629415410003,276.0629415410003,276.0629415410003,276.07130533333884,276.0629415410003,276.0629415410003,277.5646678750054,Correct! صحیح است,59,62,1,1.5000753329950385,None,277.5698457500039,277.5870843750017,279.57755945800454,,,,,,,,,,,,,,,,,,,,,,,,,,,,,,854927,001,2024-07-02_14h44.57.136,5-33,2024.1.4,None,2024-07-02 14h45.02.086802 +0900,
Images/Speaker1.jpg,Images/Speaker2.jpg,Images/Speaker3.jpg,Images/Speaker4.jpg,Audio/Speaker3_Per/P3-7-Per.wav,Speaker3,گوینده۳,,,,,,,,0,0,0,24,0,62,62,46,,,,,279.59936820800067,,,,,,,,,,,,,,,,,,,,,,,,,,,,,,,,,,,,,,,,,,,279.5777522499993,279.59936820800067,279.59936820800067,279.59936820800067,279.59936820800067,279.5941732916656,279.59936820800067,279.59936820800067,281.06440566600213,Correct! صحیح است,60,63,3,1.4567740830025286,None,281.0683516249992,281.07768912500615,283.0653899579993,283.08580637500563,,,,,,,,,,,,,,,,,,,,,,,,,,,,,854927,001,2024-07-02_14h44.57.136,5-33,2024.1.4,None,2024-07-02 14h45.02.086802 +0900,
Images/Speaker1.jpg,Images/Speaker2.jpg,Images/Speaker3.jpg,Images/Speaker4.jpg,Audio/Speaker4_Per/P4-12-Per.wav,Speaker4,گوینده۴,,,,,,,,0,0,0,24,0,63,63,71,,,,,283.08580637500563,,,,,,,,,,,,,,,,,,,,,,,,,,,,,,,,,,,,,,,,,,,283.0655583330008,283.08580637500563,283.08580637500563,283.08580637500563,283.08580637500563,283.0818345416667,283.08580637500563,283.08580637500563,285.4963332500047,Correct! صحیح است,61,64,4,2.4005689159967005,None,285.50024716600456,285.5121297500009,287.5059894580045,,,,,,,,,,,,,,,,,,,,,,,,,,,,,,854927,001,2024-07-02_14h44.57.136,5-33,2024.1.4,None,2024-07-02 14h45.02.086802 +0900,
Images/Speaker1.jpg,Images/Speaker2.jpg,Images/Speaker3.jpg,Images/Speaker4.jpg,Audio/Speaker4_Per/P4-10-Per.wav,Speaker4,گوینده۴,,,,,,,,0,0,0,24,0,64,64,69,,,,,287.53222270800325,,,,,,,,,,,,,,,,,,,,,,,,,,,,,,,,,,,,,,,,,,,287.50666812500276,287.53222270800325,287.53222270800325,287.53222270800325,287.53222270800325,287.5391319583364,287.53222270800325,287.53222270800325,289.9281462910003,Correct! صحیح است,62,65,4,2.3926366659943596,None,289.93206770800316,289.9431092080049,291.9300050830061,291.95066591600335,,,,,,,,,,,,,,,,,,,,,,,,,,,,,854927,001,2024-07-02_14h44.57.136,5-33,2024.1.4,None,2024-07-02 14h45.02.086802 +0900,
Images/Speaker1.jpg,Images/Speaker2.jpg,Images/Speaker3.jpg,Images/Speaker4.jpg,Audio/Speaker2_Per/P2-9-Per.wav,Speaker2,گوینده۲,,,,,,,,0,0,0,24,0,65,65,28,,,,,291.95066591600335,,,,,,,,,,,,,,,,,,,,,,,,,,,,,,,,,,,,,,,,,,,291.93018049999955,291.95066591600335,291.95066591600335,291.95066591600335,291.95066591600335,291.94634008266826,291.95066591600335,291.95066591600335,293.86764933300583,Correct! صحیح است,63,66,2,1.9134382920019561,None,293.8717563329992,293.8834951250028,295.8810073749992,,,,,,,,,,,,,,,,,,,,,,,,,,,,,,854927,001,2024-07-02_14h44.57.136,5-33,2024.1.4,None,2024-07-02 14h45.02.086802 +0900,
Images/Speaker1.jpg,Images/Speaker2.jpg,Images/Speaker3.jpg,Images/Speaker4.jpg,Audio/Speaker1_Per/P1-16-Per.wav,Speaker1,گوینده ۱,,,,,,,,0,0,0,24,0,66,66,15,,,,,295.90220587500517,,,,,,,,,,,,,,,,,,,,,,,,,,,,,,,,,,,,,,,,,,,295.8812322080048,295.90220587500517,295.90220587500517,295.90220587500517,295.90220587500517,295.8976292076661,295.90220587500517,295.90220587500517,297.32844495800236,Correct! صحیح است,64,67,1,1.4207040830006008,None,297.3324642910011,297.3439499160013,299.33240308300446,299.35465820800164,,,,,,,,,,,,,,,,,,,,,,,,,,,,,854927,001,2024-07-02_14h44.57.136,5-33,2024.1.4,None,2024-07-02 14h45.02.086802 +0900,
Images/Speaker1.jpg,Images/Speaker2.jpg,Images/Speaker3.jpg,Images/Speaker4.jpg,Audio/Speaker1_Per/P1-3-Per.wav,Speaker1,گوینده ۱,,,,,,,,0,0,0,24,0,67,67,2,,,,,299.35465820800164,,,,,,,,,,,,,,,,,,,,,,,,,,,,,,,,,,,,,,,,,,,299.3326300830013,299.35465820800164,299.35465820800164,299.35465820800164,299.35465820800164,299.34875549967205,299.35465820800164,299.35465820800164,300.55909266600065,Correct! صحیح است,65,68,1,1.199349832997541,None,300.56310558300174,300.5741840410046,302.5667157909993,,,,,,,,,,,,,,,,,,,,,,,,,,,,,,854927,001,2024-07-02_14h44.57.136,5-33,2024.1.4,None,2024-07-02 14h45.02.086802 +0900,
Images/Speaker1.jpg,Images/Speaker2.jpg,Images/Speaker3.jpg,Images/Speaker4.jpg,Audio/Speaker4_Per/P4-13-Per.wav,Speaker4,گوینده۴,,,,,,,,0,0,0,24,0,68,68,72,,,,,302.5913600410058,,,,,,,,,,,,,,,,,,,,,,,,,,,,,,,,,,,,,,,,,,,302.5673649160017,302.5913600410058,302.5913600410058,302.5913600410058,302.5913600410058,302.59990641633385,302.5913600410058,302.5913600410058,304.3644341660038,Correct! صحیح است,66,69,4,1.7694708749986603,None,304.3684419160054,304.379535125001,306.3699290000004,,,,,,,,,,,,,,,,,,,,,,,,,,,,,,854927,001,2024-07-02_14h44.57.136,5-33,2024.1.4,None,2024-07-02 14h45.02.086802 +0900,
Images/Speaker1.jpg,Images/Speaker2.jpg,Images/Speaker3.jpg,Images/Speaker4.jpg,Audio/Speaker2_Per/P2-6-Per.wav,Speaker2,گوینده۲,,,,,,,,0,0,0,24,0,69,69,25,,,,,306.3904952080047,,,,,,,,,,,,,,,,,,,,,,,,,,,,,,,,,,,,,,,,,,,306.37008895799954,306.3904952080047,306.3904952080047,306.3904952080047,306.3904952080047,306.3865628326714,306.3904952080047,306.3904952080047,307.75770283300517,Correct! صحیح است,67,70,2,1.3641686659975676,None,307.7615975830049,307.7734555000061,309.75727220800036,309.7787177909995,,,,,,,,,,,,,,,,,,,,,,,,,,,,,854927,001,2024-07-02_14h44.57.136,5-33,2024.1.4,None,2024-07-02 14h45.02.086802 +0900,
Images/Speaker1.jpg,Images/Speaker2.jpg,Images/Speaker3.jpg,Images/Speaker4.jpg,Audio/Speaker3_Per/P3-3-Per.wav,Speaker3,گوینده۳,,,,,,,,0,0,0,24,0,70,70,42,,,,,309.7787177909995,,,,,,,,,,,,,,,,,,,,,,,,,,,,,,,,,,,,,,,,,,,309.7574534160012,309.7787177909995,309.7787177909995,309.7787177909995,309.7787177909995,309.77372974966806,309.7787177909995,309.7787177909995,311.72080516600545,Correct! صحیح است,68,71,3,1.9385015410007327,None,311.7246660000019,311.7366282080038,313.7229716660004,313.74505625000165,,,,,,,,,,,,,,,,,,,,,,,,,,,,,854927,001,2024-07-02_14h44.57.136,5-33,2024.1.4,None,2024-07-02 14h45.02.086802 +0900,
Images/Speaker1.jpg,Images/Speaker2.jpg,Images/Speaker3.jpg,Images/Speaker4.jpg,Audio/Speaker1_Per/P1-4-Per.wav,Speaker1,گوینده ۱,,,,,,,,0,0,0,24,0,71,71,3,,,,,313.74505625000165,,,,,,,,,,,,,,,,,,,,,,,,,,,,,,,,,,,,,,,,,,,313.72317587500584,313.74505625000165,313.74505625000165,313.74505625000165,313.74505625000165,313.739338749667,313.74505625000165,313.74505625000165,315.02222512500157,Correct! صحیح است,69,72,1,1.2752281249995576,None,315.0262907080032,315.037527708002,317.03198979100125,,,,,,,,,,,,,,,,,,,,,,,,,,,,,,854927,001,2024-07-02_14h44.57.136,5-33,2024.1.4,None,2024-07-02 14h45.02.086802 +0900,
Images/Speaker1.jpg,Images/Speaker2.jpg,Images/Speaker3.jpg,Images/Speaker4.jpg,Audio/Speaker1_Per/P1-5-Per.wav,Speaker1,گوینده ۱,,,,,,,,0,0,0,24,0,72,72,4,,,,,317.057756000002,,,,,,,,,,,,,,,,,,,,,,,,,,,,,,,,,,,,,,,,,,,317.03262800000084,317.057756000002,317.057756000002,317.057756000002,317.057756000002,317.0651549583349,317.057756000002,317.057756000002,318.59678633300064,Correct! صحیح است,70,73,1,1.534787457996572,None,318.60193362500286,318.6137493749993,320.60604750000493,,,,,,,,,,,,,,,,,,,,,,,,,,,,,,854927,001,2024-07-02_14h44.57.136,5-33,2024.1.4,None,2024-07-02 14h45.02.086802 +0900,
Images/Speaker1.jpg,Images/Speaker2.jpg,Images/Speaker3.jpg,Images/Speaker4.jpg,Audio/Speaker4_Per/P4-5-Per.wav,Speaker4,گوینده۴,,,,,,,,0,0,0,24,0,73,73,64,,,,,320.6333798330015,,,,,,,,,,,,,,,,,,,,,,,,,,,,,,,,,,,,,,,,,,,320.6066917080025,320.6333798330015,320.6333798330015,320.6333798330015,320.6333798330015,320.63914699933275,320.6333798330015,320.6333798330015,322.1128680410038,Correct! صحیح است,71,74,4,1.4740656659996603,None,322.1175340000045,322.13020395800413,324.12176691600325,,,,,,,,,,,,,,,,,,,,,,,,,,,,,,854927,001,2024-07-02_14h44.57.136,5-33,2024.1.4,None,2024-07-02 14h45.02.086802 +0900,
Images/Speaker1.jpg,Images/Speaker2.jpg,Images/Speaker3.jpg,Images/Speaker4.jpg,Audio/Speaker3_Per/P3-12-Per.wav,Speaker3,گوینده۳,,,,,,,,0,0,0,24,0,74,74,51,,,,,324.14274750000186,,,,,,,,,,,,,,,,,,,,,,,,,,,,,,,,,,,,,,,,,,,324.12197204100084,324.14274750000186,324.14274750000186,324.14274750000186,324.14274750000186,324.1383826666681,324.14274750000186,324.14274750000186,325.84300887500285,Correct! صحیح است,72,75,3,1.6895368750047055,None,325.8481064580046,325.86100483300106,327.8439160410053,327.86437045800267,,,,,,,,,,,,,,,,,,,,,,,,,,,,,854927,001,2024-07-02_14h44.57.136,5-33,2024.1.4,None,2024-07-02 14h45.02.086802 +0900,
Images/Speaker1.jpg,Images/Speaker2.jpg,Images/Speaker3.jpg,Images/Speaker4.jpg,Audio/Speaker1_Per/P1-12-Per.wav,Speaker1,گوینده ۱,,,,,,,,0,0,0,24,0,75,75,11,,,,,327.86437045800267,,,,,,,,,,,,,,,,,,,,,,,,,,,,,,,,,,,,,,,,,,,327.8441174160034,327.86437045800267,327.86437045800267,327.86437045800267,327.86437045800267,327.8603039996708,327.86437045800267,327.86437045800267,329.0721997080036,Correct! صحیح است,73,76,1,1.2031369579999591,None,329.07607850000204,329.08908670800156,331.07630825000524,,,,,,,,,,,,,,,,,,,,,,,,,,,,,,854927,001,2024-07-02_14h44.57.136,5-33,2024.1.4,None,2024-07-02 14h45.02.086802 +0900,
Images/Speaker1.jpg,Images/Speaker2.jpg,Images/Speaker3.jpg,Images/Speaker4.jpg,Audio/Speaker2_Per/P2-14-Per.wav,Speaker2,گوینده۲,,,,,,,,0,0,0,24,0,76,76,33,,,,,331.09816016600234,,,,,,,,,,,,,,,,,,,,,,,,,,,,,,,,,,,,,,,,,,,331.07646991599904,331.09816016600234,331.09816016600234,331.09816016600234,331.09816016600234,331.0929421246658,331.09816016600234,331.09816016600234,332.5986429160039,Correct! صحیح است,74,77,2,1.497390666998399,None,332.602660250006,332.61394100000325,334.5991472080059,334.619425416,,,,,,,,,,,,,,,,,,,,,,,,,,,,,854927,001,2024-07-02_14h44.57.136,5-33,2024.1.4,None,2024-07-02 14h45.02.086802 +0900,
Images/Speaker1.jpg,Images/Speaker2.jpg,Images/Speaker3.jpg,Images/Speaker4.jpg,Audio/Speaker2_Per/P2-5-Per.wav,Speaker2,گوینده۲,,,,,,,,0,0,0,24,0,77,77,24,,,,,334.619425416,,,,,,,,,,,,,,,,,,,,,,,,,,,,,,,,,,,,,,,,,,,334.59931812500145,334.619425416,334.619425416,334.619425416,334.619425416,334.6154914576657,334.619425416,334.619425416,335.8479976660019,Correct! صحیح است,75,78,2,1.2256032080040313,None,335.8520365000004,335.8631759160053,337.8471705000047,337.8684111660041,,,,,,,,,,,,,,,,,,,,,,,,,,,,,854927,001,2024-07-02_14h44.57.136,5-33,2024.1.4,None,2024-07-02 14h45.02.086802 +0900,
Images/Speaker1.jpg,Images/Speaker2.jpg,Images/Speaker3.jpg,Images/Speaker4.jpg,Audio/Speaker2_Per/P2-8-Per.wav,Speaker2,گوینده۲,,,,,,,,0,0,0,24,0,78,78,27,,,,,337.8684111660041,,,,,,,,,,,,,,,,,,,,,,,,,,,,,,,,,,,,,,,,,,,337.8473587080007,337.8684111660041,337.8684111660041,337.8684111660041,337.8684111660041,337.86362529166604,337.8684111660041,337.8684111660041,339.1740610410052,Correct! صحیح است,76,79,2,1.2962422909986344,None,339.17802704100177,339.18720895799925,341.17438229099935,341.1996206660042,,,,,,,,,,,,,,,,,,,,,,,,,,,,,854927,001,2024-07-02_14h44.57.136,5-33,2024.1.4,None,2024-07-02 14h45.02.086802 +0900,
Images/Speaker1.jpg,Images/Speaker2.jpg,Images/Speaker3.jpg,Images/Speaker4.jpg,Audio/Speaker2_Per/P2-20-Per.wav,Speaker2,گوینده۲,,,,,,,,0,0,0,24,0,79,79,39,,,,,341.1996206660042,,,,,,,,,,,,,,,,,,,,,,,,,,,,,,,,,,,,,,,,,,,341.17535245800536,341.1996206660042,341.1996206660042,341.1996206660042,341.1996206660042,341.20676191633584,341.1996206660042,341.1996206660042,343.0981839580054,Correct! صحیح است,77,80,2,1.8899834580006427,None,343.1020858750053,343.1110042910004,345.0991776660012,345.10483408300206,,,,,,,,,,,,,,,,,,,,,,,,,,,,,854927,001,2024-07-02_14h44.57.136,5-33,2024.1.4,None,2024-07-02 14h45.02.086802 +0900,
Images/Speaker1.jpg,Images/Speaker2.jpg,Images/Speaker3.jpg,Images/Speaker4.jpg,Audio/Speaker2_Per/P2-5-Per.wav,Speaker2,گوینده۲,,,,,,,,0,0,0,24,,,,,,,,,,,,,,,,,,,,,,,,,,,,,,,,,,,,,,,,,,,,,,,,,,,,,,,,,,,,,,,,,,,,,,,345.09951266600547,0.9625,True,345.09999004100246,,,,,,,,,,,,,,,,,,,,,,,,,854927,001,2024-07-02_14h44.57.136,5-33,2024.1.4,None,2024-07-02 14h45.02.086802 +0900,
,,,,,,,,,,,,,,,,,,,,,,,,,,,,,,,,,,,,,,,,,,,,,,,,,,,,,,,,,,,,,,,,,,,,,,,,,,,,,,,,,,,,,,,,,,,,345.1000822080023,345.10483408300206,350.13773791600397,350.09585629100184,,,,,,,,,,,,,,,,,,,,,854927,001,2024-07-02_14h44.57.136,5-33,2024.1.4,None,2024-07-02 14h45.02.086802 +0900,
,,,,,,,Images/Speaker1.jpg,Images/Speaker2.jpg,Images/Speaker3.jpg,Images/Speaker4.jpg,Audio/Speaker4_Per/P4-20-Per.wav,Speaker4,گوینده۴,,,,,,,,,0,0,0,79,350.13773791600397,,,,,,,,,,,,,,,,,,,,,,,,,,,,,,,,,,,,,,,,,,,,,,,,,,,,,,,,,,,,,,,,,,,,,,350.11452624999947,350.13773791600397,350.13773791600397,350.13773791600397,350.13773791600397,350.14558629100503,350.13773791600397,350.13773791600397,352.47443870799907,4,2.327950792001502,None,4,Images/Speaker1.jpg,Images/Speaker2.jpg,Images/Speaker3.jpg,Images/Speaker4.jpg,Audio/Speaker4_Per/P4-20-Per.wav,Speaker2,گوینده۲,854927,001,2024-07-02_14h44.57.136,5-33,2024.1.4,None,2024-07-02 14h45.02.086802 +0900,
,,,,,,,Images/Speaker1.jpg,Images/Speaker2.jpg,Images/Speaker3.jpg,Images/Speaker4.jpg,Audio/Speaker1_Per/P1-6-Per.wav,Speaker1,گوینده ۱,,,,,,,,,0,1,1,5,352.50367008300236,,,,,,,,,,,,,,,,,,,,,,,,,,,,,,,,,,,,,,,,,,,,,,,,,,,,,,,,,,,,,,,,,,,,,,352.47901724999974,352.50367008300236,352.50367008300236,352.50367008300236,352.50367008300236,352.5068845413339,352.50367008300236,352.50367008300236,354.4837440410047,1,1.9710037920012837,None,1,Images/Speaker1.jpg,Images/Speaker2.jpg,Images/Speaker3.jpg,Images/Speaker4.jpg,Audio/Speaker1_Per/P1-6-Per.wav,Speaker2,گوینده۲,854927,001,2024-07-02_14h44.57.136,5-33,2024.1.4,None,2024-07-02 14h45.02.086802 +0900,
,,,,,,,Images/Speaker1.jpg,Images/Speaker2.jpg,Images/Speaker3.jpg,Images/Speaker4.jpg,Audio/Speaker2_Per/P2-12-Per.wav,Speaker2,گوینده۲,,,,,,,,,0,2,2,31,354.5113314580012,,,,,,,,,,,,,,,,,,,,,,,,,,,,,,,,,,,,,,,,,,,,,,,,,,,,,,,,,,,,,,,,,,,,,,354.48795479100227,354.5113314580012,354.5113314580012,354.5113314580012,354.5113314580012,354.5162234993336,354.5113314580012,354.5113314580012,355.9752665000051,2,1.4590315840032417,None,2,Images/Speaker1.jpg,Images/Speaker2.jpg,Images/Speaker3.jpg,Images/Speaker4.jpg,Audio/Speaker2_Per/P2-12-Per.wav,Speaker2,گوینده۲,854927,001,2024-07-02_14h44.57.136,5-33,2024.1.4,None,2024-07-02 14h45.02.086802 +0900,
,,,,,,,Images/Speaker1.jpg,Images/Speaker2.jpg,Images/Speaker3.jpg,Images/Speaker4.jpg,Audio/Speaker2_Per/P2-4-Per.wav,Speaker2,گوینده۲,,,,,,,,,0,3,3,23,356.0050458750047,,,,,,,,,,,,,,,,,,,,,,,,,,,,,,,,,,,,,,,,,,,,,,,,,,,,,,,,,,,,,,,,,,,,,,355.9802950410012,356.0050458750047,356.0050458750047,356.0050458750047,356.0050458750047,356.00764549933274,356.0050458750047,356.0050458750047,357.39736516600533,2,1.384176874998957,None,2,Images/Speaker1.jpg,Images/Speaker2.jpg,Images/Speaker3.jpg,Images/Speaker4.jpg,Audio/Speaker2_Per/P2-4-Per.wav,Speaker2,گوینده۲,854927,001,2024-07-02_14h44.57.136,5-33,2024.1.4,None,2024-07-02 14h45.02.086802 +0900,
,,,,,,,Images/Speaker1.jpg,Images/Speaker2.jpg,Images/Speaker3.jpg,Images/Speaker4.jpg,Audio/Speaker2_Per/P2-20-Per.wav,Speaker2,گوینده۲,,,,,,,,,0,4,4,39,357.4227329580026,,,,,,,,,,,,,,,,,,,,,,,,,,,,,,,,,,,,,,,,,,,,,,,,,,,,,,,,,,,,,,,,,,,,,,357.401359083,357.4227329580026,357.4227329580026,357.4227329580026,357.4227329580026,357.4298364163337,357.4227329580026,357.4227329580026,358.7133487910032,2,1.2883190829961677,None,2,Images/Speaker1.jpg,Images/Speaker2.jpg,Images/Speaker3.jpg,Images/Speaker4.jpg,Audio/Speaker2_Per/P2-20-Per.wav,Speaker2,گوینده۲,854927,001,2024-07-02_14h44.57.136,5-33,2024.1.4,None,2024-07-02 14h45.02.086802 +0900,
,,,,,,,Images/Speaker1.jpg,Images/Speaker2.jpg,Images/Speaker3.jpg,Images/Speaker4.jpg,Audio/Speaker4_Per/P4-17-Per.wav,Speaker4,گوینده۴,,,,,,,,,0,5,5,76,358.7402960000036,,,,,,,,,,,,,,,,,,,,,,,,,,,,,,,,,,,,,,,,,,,,,,,,,,,,,,,,,,,,,,,,,,,,,,358.7172911250018,358.7402960000036,358.7402960000036,358.7402960000036,358.7402960000036,358.74583691633643,358.7402960000036,358.7402960000036,360.07923208300053,4,1.3266712500044378,None,4,Images/Speaker1.jpg,Images/Speaker2.jpg,Images/Speaker3.jpg,Images/Speaker4.jpg,Audio/Speaker4_Per/P4-17-Per.wav,Speaker2,گوینده۲,854927,001,2024-07-02_14h44.57.136,5-33,2024.1.4,None,2024-07-02 14h45.02.086802 +0900,
,,,,,,,Images/Speaker1.jpg,Images/Speaker2.jpg,Images/Speaker3.jpg,Images/Speaker4.jpg,Audio/Speaker2_Per/P2-18-Per.wav,Speaker2,گوینده۲,,,,,,,,,0,6,6,37,360.1065198330034,,,,,,,,,,,,,,,,,,,,,,,,,,,,,,,,,,,,,,,,,,,,,,,,,,,,,,,,,,,,,,,,,,,,,,360.08320504100266,360.1065198330034,360.1065198330034,360.1065198330034,360.1065198330034,360.1099933743394,360.1065198330034,360.1065198330034,361.29108745800477,2,1.1826122499987832,None,2,Images/Speaker1.jpg,Images/Speaker2.jpg,Images/Speaker3.jpg,Images/Speaker4.jpg,Audio/Speaker2_Per/P2-18-Per.wav,Speaker2,گوینده۲,854927,001,2024-07-02_14h44.57.136,5-33,2024.1.4,None,2024-07-02 14h45.02.086802 +0900,
,,,,,,,Images/Speaker1.jpg,Images/Speaker2.jpg,Images/Speaker3.jpg,Images/Speaker4.jpg,Audio/Speaker2_Per/P2-7-Per.wav,Speaker2,گوینده۲,,,,,,,,,0,7,7,26,361.31916995800566,,,,,,,,,,,,,,,,,,,,,,,,,,,,,,,,,,,,,,,,,,,,,,,,,,,,,,,,,,,,,,,,,,,,,,361.29515837500367,361.31916995800566,361.31916995800566,361.31916995800566,361.31916995800566,361.3236119993385,361.31916995800566,361.31916995800566,362.45064179100154,2,1.1250179170019692,None,2,Images/Speaker1.jpg,Images/Speaker2.jpg,Images/Speaker3.jpg,Images/Speaker4.jpg,Audio/Speaker2_Per/P2-7-Per.wav,Speaker2,گوینده۲,854927,001,2024-07-02_14h44.57.136,5-33,2024.1.4,None,2024-07-02 14h45.02.086802 +0900,
,,,,,,,Images/Speaker1.jpg,Images/Speaker2.jpg,Images/Speaker3.jpg,Images/Speaker4.jpg,Audio/Speaker3_Per/P3-16-Per.wav,Speaker3,گوینده۳,,,,,,,,,0,8,8,55,362.4772401250011,,,,,,,,,,,,,,,,,,,,,,,,,,,,,,,,,,,,,,,,,,,,,,,,,,,,,,,,,,,,,,,,,,,,,,362.4545063330006,362.4772401250011,362.4772401250011,362.4772401250011,362.4772401250011,362.4831598743335,362.4772401250011,362.4772401250011,363.81361529100104,3,1.3335434170003282,None,3,Images/Speaker1.jpg,Images/Speaker2.jpg,Images/Speaker3.jpg,Images/Speaker4.jpg,Audio/Speaker3_Per/P3-16-Per.wav,Speaker2,گوینده۲,854927,001,2024-07-02_14h44.57.136,5-33,2024.1.4,None,2024-07-02 14h45.02.086802 +0900,
,,,,,,,,,,,,,,,,,,,,,,,,,,363.84185208300187,,,,,,,,,,,,,,,,,,,,,,,,,,,,,,,,,,,,,,,,,,,,,,,,,,,,,,,,,,,,,,,,,,,,,,363.8179270410037,363.84185208300187,363.84185208300187,363.84185208300187,363.84185208300187,363.84613870833755,363.84185208300187,363.84185208300187,,,,,,,,,,,,,,,,,,,,
