SpeakerImage1,SpeakerImage2,SpeakerImage3,SpeakerImage4,TrainingSound,EnglishCorrectAnswer,PersianCorrectAnswer,TrainingLoopGroup1.thisRepN,TrainingLoopGroup1.thisTrialN,TrainingLoopGroup1.thisN,TrainingLoopGroup1.thisIndex,TrainingLoopGroup2.thisRepN,TrainingLoopGroup2.thisTrialN,TrainingLoopGroup2.thisN,TrainingLoopGroup2.thisIndex,TrainingLoopGroup3.thisRepN,TrainingLoopGroup3.thisTrialN,TrainingLoopGroup3.thisN,TrainingLoopGroup3.thisIndex,thisRow.t,notes,trial.started,trial.stopped,GroupSelection.started,GroupInstructions.started,ker_resp.started,GroupSelection.stopped,ker_resp.keys,ker_resp.rt,ker_resp.duration,Introduction.started,text_2.started,image.started,sound_7.started,text_4.started,text_2.stopped,sound_8.started,image.stopped,text_4.stopped,image_7.started,sound_9.started,text_5.started,sound_10.started,image_7.stopped,text_5.stopped,image_8.started,sound_11.started,text_6.started,sound_12.started,image_8.stopped,text_6.stopped,image_9.started,sound_13.started,text_7.started,sound_14.started,image_9.stopped,text_7.stopped,Introduction.stopped,Instructions.started,InstructionText.started,InstructionText.stopped,Instructions.stopped,InitializeExperiment.started,InitializeExperiment.stopped,TrainingGroup3.started,SpeakerPicture3.started,image_15.started,image_16.started,image_17.started,Sound3.started,Instruction3.started,Response3.started,TrainingGroup3.stopped,feedbackText,Response3.keys,Response3.rt,Response3.duration,correct_responses,total_trials,FeedbackRoutine3.started,FeedbackText3.started,FeedbackRoutine3.stopped,FeedbackText3.stopped,TransitionRoutine.started,participant,session,date,expName,psychopyVersion,frameRate,expStart,
,,,,,,,,,,,,,,,,,,,,,0.009960457973647863,0.010319665976567194,,,,,,,,,,,,,,,,,,,,,,,,,,,,,,,,,,,,,,,,,,,,,,,,,,,,,,,,,,,,,,868230,001,2024-06-26_09h50.14.867,5-17,2024.1.4,None,2024-06-26 09h50.20.681380 +0900,
,,,,,,,,,,,,,,,,,,,,,,,0.010336040984839201,0.01614712498849258,0.01614712498849258,0.6766836249735206,3,0.6155284580017906,None,,,,,,,,,,,,,,,,,,,,,,,,,,,,,,,,,,,,,,,,,,,,,,,,,,,,,,,868230,001,2024-06-26_09h50.14.867,5-17,2024.1.4,None,2024-06-26 09h50.20.681380 +0900,
,,,,,,,,,,,,,,,,,,,,,,,,,,,,,,0.6767118329880759,0.733901582978433,5.676708457991481,5.682925249657516,5.676708457991481,5.733323665976059,10.677063541665364,15.667211540974677,15.667211540974677,15.667211540974677,15.677418374664073,15.667211540974677,20.690904457649836,25.65990604099352,25.65990604099352,25.67196379098459,25.676572707660185,25.67196379098459,30.687437207645658,35.65998870797921,35.65998870797921,35.67538308299845,35.676655374645875,35.67538308299845,40.6763644996429,45.67647654097527,45.67647654097527,45.67181079098373,,,,,,,,,,,,,,,,,,,,,,,,,,,868230,001,2024-06-26_09h50.14.867,5-17,2024.1.4,None,2024-06-26 09h50.20.681380 +0900,
,,,,,,,,,,,,,,,,,,,,,,,,,,,,,,,,,,,,,,,,,,,,,,,,,,,,,,,,,,45.67189224998583,45.67647654097527,50.74478470798931,50.66395595797803,,,,,,,,,,,,,,,,,,,,,,,868230,001,2024-06-26_09h50.14.867,5-17,2024.1.4,None,2024-06-26 09h50.20.681380 +0900,
,,,,,,,,,,,,,,,,,,,,,,,,,,,,,,,,,,,,,,,,,,,,,,,,,,,,,,,,,,,,,,50.6640071659931,50.664283665973926,,,,,,,,,,,,,,,,,,,,,868230,001,2024-06-26_09h50.14.867,5-17,2024.1.4,None,2024-06-26 09h50.20.681380 +0900,
Images/Speaker1.jpg,Images/Speaker2.jpg,Images/Speaker3.jpg,Images/Speaker4.jpg,Audio/Speaker2_En/P2-10-En.wav,Speaker2,گوینده۲,,,,,,,,,0,0,0,29,50.74478470798931,,,,,,,,,,,,,,,,,,,,,,,,,,,,,,,,,,,,,,,,,,,,,50.71936116597499,50.74478470798931,50.74478470798931,50.74478470798931,50.74478470798931,50.746398416309,50.74478470798931,50.74478470798931,53.15998116598348,Correct! صحیح است,2,2.412228083005175,None,0,1,53.16417466598796,53.17801508298726,55.17277141599334,,,868230,001,2024-06-26_09h50.14.867,5-17,2024.1.4,None,2024-06-26 09h50.20.681380 +0900,
Images/Speaker1.jpg,Images/Speaker2.jpg,Images/Speaker3.jpg,Images/Speaker4.jpg,Audio/Speaker2_En/P2-7-En.wav,Speaker2,گوینده۲,,,,,,,,,0,1,1,26,55.19738729097298,,,,,,,,,,,,,,,,,,,,,,,,,,,,,,,,,,,,,,,,,,,,,55.17336908300058,55.19738729097298,55.19738729097298,55.19738729097298,55.19738729097298,55.20592254133274,55.19738729097298,55.19738729097298,59.92897633300163,Incorrect! The correct answer is Speaker2. نادرست! پاسخ صحیح گوینده۲ است,3,4.720265165989986,None,0,2,59.9292210409767,59.940976124984445,61.93367754097562,,,868230,001,2024-06-26_09h50.14.867,5-17,2024.1.4,None,2024-06-26 09h50.20.681380 +0900,
Images/Speaker1.jpg,Images/Speaker2.jpg,Images/Speaker3.jpg,Images/Speaker4.jpg,Audio/Speaker1_En/P1-9-En.wav,Speaker1,گوینده ۱,,,,,,,,,0,2,2,8,61.960118707997026,,,,,,,,,,,,,,,,,,,,,,,,,,,,,,,,,,,,,,,,,,,,,61.934330541000236,61.960118707997026,61.960118707997026,61.960118707997026,61.960118707997026,61.96680824930857,61.960118707997026,61.960118707997026,64.8217474159901,Correct! صحیح است,1,2.8599945830064826,None,0,3,64.82584487498389,64.83821124999668,66.82567441597348,66.84823729097843,,868230,001,2024-06-26_09h50.14.867,5-17,2024.1.4,None,2024-06-26 09h50.20.681380 +0900,
Images/Speaker1.jpg,Images/Speaker2.jpg,Images/Speaker3.jpg,Images/Speaker4.jpg,Audio/Speaker3_En/P3-10-En.wav,Speaker3,گوینده۳,,,,,,,,,0,3,3,49,66.84823729097843,,,,,,,,,,,,,,,,,,,,,,,,,,,,,,,,,,,,,,,,,,,,,66.82583416599664,66.84823729097843,66.84823729097843,66.84823729097843,66.84823729097843,66.84212545765719,66.84823729097843,66.84823729097843,68.64522274999763,Correct! صحیح است,3,1.7918154999788385,None,0,4,68.64895574998809,68.65997145799338,70.65514429099858,,,868230,001,2024-06-26_09h50.14.867,5-17,2024.1.4,None,2024-06-26 09h50.20.681380 +0900,
Images/Speaker1.jpg,Images/Speaker2.jpg,Images/Speaker3.jpg,Images/Speaker4.jpg,Audio/Speaker2_En/P2-9-En.wav,Speaker2,گوینده۲,,,,,,,,,0,4,4,28,70.67822816598346,,,,,,,,,,,,,,,,,,,,,,,,,,,,,,,,,,,,,,,,,,,,,70.65580008298275,70.67822816598346,70.67822816598346,70.67822816598346,70.67822816598346,70.68831883330907,70.67822816598346,70.67822816598346,71.82154845798505,Correct! صحیح است,2,1.139767832995858,None,0,5,71.8267462499789,71.8384991659841,73.82574233299238,73.85011704097269,,868230,001,2024-06-26_09h50.14.867,5-17,2024.1.4,None,2024-06-26 09h50.20.681380 +0900,
Images/Speaker1.jpg,Images/Speaker2.jpg,Images/Speaker3.jpg,Images/Speaker4.jpg,Audio/Speaker4_En/P4-5-En.wav,Speaker4,گوینده۴,,,,,,,,,0,5,5,64,73.85011704097269,,,,,,,,,,,,,,,,,,,,,,,,,,,,,,,,,,,,,,,,,,,,,73.82675495799049,73.85011704097269,73.85011704097269,73.85011704097269,73.85011704097269,73.85796504130897,73.85011704097269,73.85011704097269,76.238472832978,Correct! صحیح است,4,2.3874753339914605,None,0,6,76.2424583749962,76.25352558298619,78.24936462499318,,,868230,001,2024-06-26_09h50.14.867,5-17,2024.1.4,None,2024-06-26 09h50.20.681380 +0900,
Images/Speaker1.jpg,Images/Speaker2.jpg,Images/Speaker3.jpg,Images/Speaker4.jpg,Audio/Speaker2_En/P2-15-En.wav,Speaker2,گوینده۲,,,,,,,,,0,6,6,34,78.27495370799443,,,,,,,,,,,,,,,,,,,,,,,,,,,,,,,,,,,,,,,,,,,,,78.24997670800076,78.27495370799443,78.27495370799443,78.27495370799443,78.27495370799443,78.2825085833106,78.27495370799443,78.27495370799443,80.26815674998215,Correct! صحیح است,2,1.9856448749778792,None,0,7,80.27219120800146,80.28055312499055,82.27287583297584,,,868230,001,2024-06-26_09h50.14.867,5-17,2024.1.4,None,2024-06-26 09h50.20.681380 +0900,
Images/Speaker1.jpg,Images/Speaker2.jpg,Images/Speaker3.jpg,Images/Speaker4.jpg,Audio/Speaker4_En/P4-9-En.wav,Speaker4,گوینده۴,,,,,,,,,0,7,7,68,82.29628179100109,,,,,,,,,,,,,,,,,,,,,,,,,,,,,,,,,,,,,,,,,,,,,82.27345829099067,82.29628179100109,82.29628179100109,82.29628179100109,82.29628179100109,82.3060384993228,82.29628179100109,82.29628179100109,84.92903845797991,Correct! صحیح است,4,2.6318424160126597,None,0,8,84.93279233298381,84.94410824999795,86.93632424998214,,,868230,001,2024-06-26_09h50.14.867,5-17,2024.1.4,None,2024-06-26 09h50.20.681380 +0900,
Images/Speaker1.jpg,Images/Speaker2.jpg,Images/Speaker3.jpg,Images/Speaker4.jpg,Audio/Speaker2_En/P2-1-En.wav,Speaker2,گوینده۲,,,,,,,,,0,8,8,20,86.95842650000122,,,,,,,,,,,,,,,,,,,,,,,,,,,,,,,,,,,,,,,,,,,,,86.93648320797365,86.95842650000122,86.95842650000122,86.95842650000122,86.95842650000122,86.95295899964209,86.95842650000122,86.95842650000122,89.75031170799048,Correct! صحیح است,2,2.7843110829999205,None,0,9,89.75411079099285,89.76255716598826,91.75663287498173,,,868230,001,2024-06-26_09h50.14.867,5-17,2024.1.4,None,2024-06-26 09h50.20.681380 +0900,
Images/Speaker1.jpg,Images/Speaker2.jpg,Images/Speaker3.jpg,Images/Speaker4.jpg,Audio/Speaker4_En/P4-3-En.wav,Speaker4,گوینده۴,,,,,,,,,0,9,9,62,91.7831249999872,,,,,,,,,,,,,,,,,,,,,,,,,,,,,,,,,,,,,,,,,,,,,91.75725758299814,91.7831249999872,91.7831249999872,91.7831249999872,91.7831249999872,91.78977991632613,91.7831249999872,91.7831249999872,93.43327016598778,Correct! صحیح است,4,1.6409790419857018,None,0,10,93.4375561249908,93.44672329098103,95.43341345799854,95.4610717909818,,868230,001,2024-06-26_09h50.14.867,5-17,2024.1.4,None,2024-06-26 09h50.20.681380 +0900,
Images/Speaker1.jpg,Images/Speaker2.jpg,Images/Speaker3.jpg,Images/Speaker4.jpg,Audio/Speaker1_En/P1-11-En.wav,Speaker1,گوینده ۱,,,,,,,,,0,10,10,10,95.4610717909818,,,,,,,,,,,,,,,,,,,,,,,,,,,,,,,,,,,,,,,,,,,,,95.43425945797935,95.4610717909818,95.4610717909818,95.4610717909818,95.4610717909818,95.46592279131485,95.4610717909818,95.4610717909818,96.78367049997905,Correct! صحیح است,1,1.3187532080046367,None,0,11,96.7877790829807,96.80002054097713,98.79219724997529,,,868230,001,2024-06-26_09h50.14.867,5-17,2024.1.4,None,2024-06-26 09h50.20.681380 +0900,
Images/Speaker1.jpg,Images/Speaker2.jpg,Images/Speaker3.jpg,Images/Speaker4.jpg,Audio/Speaker1_En/P1-16-En.wav,Speaker1,گوینده ۱,,,,,,,,,0,11,11,15,98.81589020797401,,,,,,,,,,,,,,,,,,,,,,,,,,,,,,,,,,,,,,,,,,,,,98.79279429098824,98.81589020797401,98.81589020797401,98.81589020797401,98.81589020797401,98.82535370832969,98.81589020797401,98.81589020797401,100.64989916599006,Correct! صحیح است,1,1.831713249994209,None,0,12,100.65407216598396,100.66981849999866,102.65373108297354,102.6777644159738,,868230,001,2024-06-26_09h50.14.867,5-17,2024.1.4,None,2024-06-26 09h50.20.681380 +0900,
Images/Speaker1.jpg,Images/Speaker2.jpg,Images/Speaker3.jpg,Images/Speaker4.jpg,Audio/Speaker4_En/P4-12-En.wav,Speaker4,گوینده۴,,,,,,,,,0,12,12,71,102.6777644159738,,,,,,,,,,,,,,,,,,,,,,,,,,,,,,,,,,,,,,,,,,,,,102.65389254098409,102.6777644159738,102.6777644159738,102.6777644159738,102.6777644159738,102.68686141633273,102.6777644159738,102.6777644159738,105.27565691599739,Correct! صحیح است,4,2.595653249998577,None,0,13,105.27948079098132,105.2907152499829,107.28001683298498,,,868230,001,2024-06-26_09h50.14.867,5-17,2024.1.4,None,2024-06-26 09h50.20.681380 +0900,
Images/Speaker1.jpg,Images/Speaker2.jpg,Images/Speaker3.jpg,Images/Speaker4.jpg,Audio/Speaker3_En/P3-11-En.wav,Speaker3,گوینده۳,,,,,,,,,0,13,13,50,107.30807237498811,,,,,,,,,,,,,,,,,,,,,,,,,,,,,,,,,,,,,,,,,,,,,107.2807070829731,107.30807237498811,107.30807237498811,107.30807237498811,107.30807237498811,107.31316362432747,107.30807237498811,107.30807237498811,110.91317179097678,Correct! صحیح است,3,3.6037921660172287,None,0,14,110.91701154099428,110.92816620797385,112.9108936249977,112.9330068329873,,868230,001,2024-06-26_09h50.14.867,5-17,2024.1.4,None,2024-06-26 09h50.20.681380 +0900,
Images/Speaker1.jpg,Images/Speaker2.jpg,Images/Speaker3.jpg,Images/Speaker4.jpg,Audio/Speaker4_En/P4-16-En.wav,Speaker4,گوینده۴,,,,,,,,,0,14,14,75,112.9330068329873,,,,,,,,,,,,,,,,,,,,,,,,,,,,,,,,,,,,,,,,,,,,,112.91105020800023,112.9330068329873,112.9330068329873,112.9330068329873,112.9330068329873,112.92732166665179,112.9330068329873,112.9330068329873,116.11220612499164,Correct! صحیح است,4,3.170721542002866,None,0,15,116.11243270797422,116.12350054099807,118.10756733297603,118.13014337499044,,868230,001,2024-06-26_09h50.14.867,5-17,2024.1.4,None,2024-06-26 09h50.20.681380 +0900,
Images/Speaker1.jpg,Images/Speaker2.jpg,Images/Speaker3.jpg,Images/Speaker4.jpg,Audio/Speaker3_En/P3-7-En.wav,Speaker3,گوینده۳,,,,,,,,,0,15,15,46,118.13014337499044,,,,,,,,,,,,,,,,,,,,,,,,,,,,,,,,,,,,,,,,,,,,,118.10772841598373,118.13014337499044,118.13014337499044,118.13014337499044,118.13014337499044,118.12401037465703,118.13014337499044,118.13014337499044,119.68248283298453,Incorrect! The correct answer is Speaker3. نادرست! پاسخ صحیح گوینده۳ است,4,1.540235958993435,None,0,16,119.68739300000016,119.7016652499733,121.69856966598309,,,868230,001,2024-06-26_09h50.14.867,5-17,2024.1.4,None,2024-06-26 09h50.20.681380 +0900,
Images/Speaker1.jpg,Images/Speaker2.jpg,Images/Speaker3.jpg,Images/Speaker4.jpg,Audio/Speaker2_En/P2-2-En.wav,Speaker2,گوینده۲,,,,,,,,,0,16,16,21,121.72460545797367,,,,,,,,,,,,,,,,,,,,,,,,,,,,,,,,,,,,,,,,,,,,,121.69918612498441,121.72460545797367,121.72460545797367,121.72460545797367,121.72460545797367,121.73174049933053,121.72460545797367,121.72460545797367,123.20518791599898,Correct! صحیح است,2,1.4773264169925824,None,0,17,123.20925783299026,123.21983904097578,125.21436704098596,,,868230,001,2024-06-26_09h50.14.867,5-17,2024.1.4,None,2024-06-26 09h50.20.681380 +0900,
Images/Speaker1.jpg,Images/Speaker2.jpg,Images/Speaker3.jpg,Images/Speaker4.jpg,Audio/Speaker3_En/P3-1-En.wav,Speaker3,گوینده۳,,,,,,,,,0,17,17,40,125.24059483298333,,,,,,,,,,,,,,,,,,,,,,,,,,,,,,,,,,,,,,,,,,,,,125.2149632909859,125.24059483298333,125.24059483298333,125.24059483298333,125.24059483298333,125.24751612431331,125.24059483298333,125.24059483298333,127.09521654099808,Correct! صحیح است,3,1.8472600830136798,None,0,18,127.0989298329805,127.10995808299049,129.09643754098215,129.1190067079733,,868230,001,2024-06-26_09h50.14.867,5-17,2024.1.4,None,2024-06-26 09h50.20.681380 +0900,
Images/Speaker1.jpg,Images/Speaker2.jpg,Images/Speaker3.jpg,Images/Speaker4.jpg,Audio/Speaker3_En/P3-18-En.wav,Speaker3,گوینده۳,,,,,,,,,0,18,18,57,129.1190067079733,,,,,,,,,,,,,,,,,,,,,,,,,,,,,,,,,,,,,,,,,,,,,129.09662545798346,129.1190067079733,129.1190067079733,129.1190067079733,129.1190067079733,129.11288766665191,129.1190067079733,129.1190067079733,130.5499036249821,Correct! صحیح است,3,1.4231191249855328,None,0,19,130.55367287498666,130.5619224999973,132.54621395797585,132.56739379098872,,868230,001,2024-06-26_09h50.14.867,5-17,2024.1.4,None,2024-06-26 09h50.20.681380 +0900,
Images/Speaker1.jpg,Images/Speaker2.jpg,Images/Speaker3.jpg,Images/Speaker4.jpg,Audio/Speaker2_En/P2-3-En.wav,Speaker2,گوینده۲,,,,,,,,,0,19,19,22,132.56739379098872,,,,,,,,,,,,,,,,,,,,,,,,,,,,,,,,,,,,,,,,,,,,,132.54638079099823,132.56739379098872,132.56739379098872,132.56739379098872,132.56739379098872,132.56263224964303,132.56739379098872,132.56739379098872,133.55767824998475,Correct! صحیح است,2,0.9893569170089904,None,0,20,133.56245620799018,133.57457599998452,135.55783737497404,135.58164195797872,,868230,001,2024-06-26_09h50.14.867,5-17,2024.1.4,None,2024-06-26 09h50.20.681380 +0900,
Images/Speaker1.jpg,Images/Speaker2.jpg,Images/Speaker3.jpg,Images/Speaker4.jpg,Audio/Speaker3_En/P3-19-En.wav,Speaker3,گوینده۳,,,,,,,,,0,20,20,58,135.58164195797872,,,,,,,,,,,,,,,,,,,,,,,,,,,,,,,,,,,,,,,,,,,,,135.55868154097698,135.58164195797872,135.58164195797872,135.58164195797872,135.58164195797872,135.5903627083249,135.58164195797872,135.58164195797872,136.96571091597434,Correct! صحیح است,3,1.3816102090058848,None,0,21,136.96963724997477,136.98080087499693,138.96613904097467,138.98832758297794,,868230,001,2024-06-26_09h50.14.867,5-17,2024.1.4,None,2024-06-26 09h50.20.681380 +0900,
Images/Speaker1.jpg,Images/Speaker2.jpg,Images/Speaker3.jpg,Images/Speaker4.jpg,Audio/Speaker4_En/P4-18-En.wav,Speaker4,گوینده۴,,,,,,,,,0,21,21,77,138.98832758297794,,,,,,,,,,,,,,,,,,,,,,,,,,,,,,,,,,,,,,,,,,,,,138.9663149159751,138.98832758297794,138.98832758297794,138.98832758297794,138.98832758297794,138.98262720765004,138.98832758297794,138.98832758297794,140.3171093329729,Correct! صحیح است,4,1.3271098329860251,None,0,22,140.3218890829885,140.3334356659907,142.32199404097628,142.3441029159876,,868230,001,2024-06-26_09h50.14.867,5-17,2024.1.4,None,2024-06-26 09h50.20.681380 +0900,
Images/Speaker1.jpg,Images/Speaker2.jpg,Images/Speaker3.jpg,Images/Speaker4.jpg,Audio/Speaker4_En/P4-20-En.wav,Speaker4,گوینده۴,,,,,,,,,0,22,22,79,142.3441029159876,,,,,,,,,,,,,,,,,,,,,,,,,,,,,,,,,,,,,,,,,,,,,142.3221618749958,142.3441029159876,142.3441029159876,142.3441029159876,142.3441029159876,142.3384515826513,142.3441029159876,142.3441029159876,143.67105466598878,Incorrect! The correct answer is Speaker4. نادرست! پاسخ صحیح گوینده۴ است,3,1.3219848749868106,None,0,23,143.67599520797376,143.69031370797893,145.6822754999739,,,868230,001,2024-06-26_09h50.14.867,5-17,2024.1.4,None,2024-06-26 09h50.20.681380 +0900,
Images/Speaker1.jpg,Images/Speaker2.jpg,Images/Speaker3.jpg,Images/Speaker4.jpg,Audio/Speaker3_En/P3-5-En.wav,Speaker3,گوینده۳,,,,,,,,,0,23,23,44,145.7099012909748,,,,,,,,,,,,,,,,,,,,,,,,,,,,,,,,,,,,,,,,,,,,,145.68287316599162,145.7099012909748,145.7099012909748,145.7099012909748,145.7099012909748,145.7154565413153,145.7099012909748,145.7099012909748,147.77638458297588,Correct! صحیح است,3,2.058265458996175,None,0,24,147.78143387497403,147.79429270798573,149.780521165987,149.80292683298467,,868230,001,2024-06-26_09h50.14.867,5-17,2024.1.4,None,2024-06-26 09h50.20.681380 +0900,
Images/Speaker1.jpg,Images/Speaker2.jpg,Images/Speaker3.jpg,Images/Speaker4.jpg,Audio/Speaker4_En/P4-6-En.wav,Speaker4,گوینده۴,,,,,,,,,0,24,24,65,149.80292683298467,,,,,,,,,,,,,,,,,,,,,,,,,,,,,,,,,,,,,,,,,,,,,149.78069654098363,149.80292683298467,149.80292683298467,149.80292683298467,149.80292683298467,149.7969813326529,149.80292683298467,149.80292683298467,151.30753974997788,Correct! صحیح است,4,1.495626917021582,None,0,25,151.31158641597722,151.32320245797746,153.3058009579836,153.33004716597497,,868230,001,2024-06-26_09h50.14.867,5-17,2024.1.4,None,2024-06-26 09h50.20.681380 +0900,
Images/Speaker1.jpg,Images/Speaker2.jpg,Images/Speaker3.jpg,Images/Speaker4.jpg,Audio/Speaker2_En/P2-20-En.wav,Speaker2,گوینده۲,,,,,,,,,0,25,25,39,153.33004716597497,,,,,,,,,,,,,,,,,,,,,,,,,,,,,,,,,,,,,,,,,,,,,153.30598120798822,153.33004716597497,153.33004716597497,153.33004716597497,153.33004716597497,153.33893716632934,153.33004716597497,153.33004716597497,157.12621091600158,Correct! صحیح است,2,3.7935659159848,None,0,26,157.13005495799007,157.141107790987,159.13133354097954,,,868230,001,2024-06-26_09h50.14.867,5-17,2024.1.4,None,2024-06-26 09h50.20.681380 +0900,
Images/Speaker1.jpg,Images/Speaker2.jpg,Images/Speaker3.jpg,Images/Speaker4.jpg,Audio/Speaker1_En/P1-15-En.wav,Speaker1,گوینده ۱,,,,,,,,,0,26,26,14,159.15708191599697,,,,,,,,,,,,,,,,,,,,,,,,,,,,,,,,,,,,,,,,,,,,,159.13184570797603,159.15708191599697,159.15708191599697,159.15708191599697,159.15708191599697,159.16448708333388,159.15708191599697,159.15708191599697,163.70959124999354,Correct! صحیح است,1,4.550576292007463,None,0,27,163.70978866599035,163.7204136659857,165.7067214579729,165.73433699997258,,868230,001,2024-06-26_09h50.14.867,5-17,2024.1.4,None,2024-06-26 09h50.20.681380 +0900,
Images/Speaker1.jpg,Images/Speaker2.jpg,Images/Speaker3.jpg,Images/Speaker4.jpg,Audio/Speaker1_En/P1-6-En.wav,Speaker1,گوینده ۱,,,,,,,,,0,27,27,5,165.73433699997258,,,,,,,,,,,,,,,,,,,,,,,,,,,,,,,,,,,,,,,,,,,,,165.7073035829817,165.73433699997258,165.73433699997258,165.73433699997258,165.73433699997258,165.739185208317,165.73433699997258,165.73433699997258,167.84526454098523,Correct! صحیح است,1,2.1075261250080075,None,0,28,167.84981441599666,167.86263837499428,169.84731274997466,169.87011841597268,,868230,001,2024-06-26_09h50.14.867,5-17,2024.1.4,None,2024-06-26 09h50.20.681380 +0900,
Images/Speaker1.jpg,Images/Speaker2.jpg,Images/Speaker3.jpg,Images/Speaker4.jpg,Audio/Speaker3_En/P3-13-En.wav,Speaker3,گوینده۳,,,,,,,,,0,28,28,52,169.87011841597268,,,,,,,,,,,,,,,,,,,,,,,,,,,,,,,,,,,,,,,,,,,,,169.8475007499801,169.87011841597268,169.87011841597268,169.87011841597268,169.87011841597268,169.88039541632367,169.87011841597268,169.87011841597268,174.17047733298386,Correct! صحیح است,3,4.292462249984965,None,0,29,174.17069333299878,174.18183524999768,176.16559437499382,176.18797366597573,,868230,001,2024-06-26_09h50.14.867,5-17,2024.1.4,None,2024-06-26 09h50.20.681380 +0900,
Images/Speaker1.jpg,Images/Speaker2.jpg,Images/Speaker3.jpg,Images/Speaker4.jpg,Audio/Speaker1_En/P1-5-En.wav,Speaker1,گوینده ۱,,,,,,,,,0,29,29,4,176.18797366597573,,,,,,,,,,,,,,,,,,,,,,,,,,,,,,,,,,,,,,,,,,,,,176.1657472079969,176.18797366597573,176.18797366597573,176.18797366597573,176.18797366597573,176.18205916666582,176.18797366597573,176.18797366597573,179.3387315409782,Correct! صحیح است,1,3.1453186250000726,None,0,30,179.33897062498727,179.35052279097727,181.33824958300102,181.36126754098223,,868230,001,2024-06-26_09h50.14.867,5-17,2024.1.4,None,2024-06-26 09h50.20.681380 +0900,
Images/Speaker1.jpg,Images/Speaker2.jpg,Images/Speaker3.jpg,Images/Speaker4.jpg,Audio/Speaker2_En/P2-18-En.wav,Speaker2,گوینده۲,,,,,,,,,0,30,30,37,181.36126754098223,,,,,,,,,,,,,,,,,,,,,,,,,,,,,,,,,,,,,,,,,,,,,181.33844412499457,181.36126754098223,181.36126754098223,181.36126754098223,181.36126754098223,181.37132308333145,181.36126754098223,181.36126754098223,183.25948045798577,Correct! صحیح است,2,1.8913196669891477,None,0,31,183.26331166599994,183.27539254099247,185.26481424999656,,,868230,001,2024-06-26_09h50.14.867,5-17,2024.1.4,None,2024-06-26 09h50.20.681380 +0900,
Images/Speaker1.jpg,Images/Speaker2.jpg,Images/Speaker3.jpg,Images/Speaker4.jpg,Audio/Speaker1_En/P1-4-En.wav,Speaker1,گوینده ۱,,,,,,,,,0,31,31,3,185.28796716599027,,,,,,,,,,,,,,,,,,,,,,,,,,,,,,,,,,,,,,,,,,,,,185.2649841249804,185.28796716599027,185.28796716599027,185.28796716599027,185.28796716599027,185.28144249966525,185.28796716599027,185.28796716599027,186.5134692909778,Correct! صحیح است,1,1.218422667006962,None,0,32,186.51768958297907,186.5260230829881,188.51601112500066,188.54222237499198,,868230,001,2024-06-26_09h50.14.867,5-17,2024.1.4,None,2024-06-26 09h50.20.681380 +0900,
Images/Speaker1.jpg,Images/Speaker2.jpg,Images/Speaker3.jpg,Images/Speaker4.jpg,Audio/Speaker1_En/P1-13-En.wav,Speaker1,گوینده ۱,,,,,,,,,0,32,32,12,188.54222237499198,,,,,,,,,,,,,,,,,,,,,,,,,,,,,,,,,,,,,,,,,,,,,188.51687679099268,188.54222237499198,188.54222237499198,188.54222237499198,188.54222237499198,188.54843541631323,188.54222237499198,188.54222237499198,190.0363222079759,Correct! صحیح است,1,1.4884389590006322,None,0,33,190.0401825000008,190.05127483297838,192.04171541598043,,,868230,001,2024-06-26_09h50.14.867,5-17,2024.1.4,None,2024-06-26 09h50.20.681380 +0900,
Images/Speaker1.jpg,Images/Speaker2.jpg,Images/Speaker3.jpg,Images/Speaker4.jpg,Audio/Speaker2_En/P2-13-En.wav,Speaker2,گوینده۲,,,,,,,,,0,33,33,32,192.0673095829843,,,,,,,,,,,,,,,,,,,,,,,,,,,,,,,,,,,,,,,,,,,,,192.0423368329939,192.0673095829843,192.0673095829843,192.0673095829843,192.0673095829843,192.0748702083152,192.0673095829843,192.0673095829843,194.09315216599498,Correct! صحیح است,2,2.015314334013965,None,0,34,194.09710420799092,194.10770370799582,196.0915835829801,196.1134380409785,,868230,001,2024-06-26_09h50.14.867,5-17,2024.1.4,None,2024-06-26 09h50.20.681380 +0900,
Images/Speaker1.jpg,Images/Speaker2.jpg,Images/Speaker3.jpg,Images/Speaker4.jpg,Audio/Speaker1_En/P1-12-En.wav,Speaker1,گوینده ۱,,,,,,,,,0,34,34,11,196.1134380409785,,,,,,,,,,,,,,,,,,,,,,,,,,,,,,,,,,,,,,,,,,,,,196.09172899997793,196.1134380409785,196.1134380409785,196.1134380409785,196.1134380409785,196.108048624654,196.1134380409785,196.1134380409785,197.1459445829969,Correct! صحیح است,1,1.0274758750165347,None,0,35,197.1499425410002,197.16151141599403,199.14570516598178,199.16992762498558,,868230,001,2024-06-26_09h50.14.867,5-17,2024.1.4,None,2024-06-26 09h50.20.681380 +0900,
Images/Speaker1.jpg,Images/Speaker2.jpg,Images/Speaker3.jpg,Images/Speaker4.jpg,Audio/Speaker3_En/P3-2-En.wav,Speaker3,گوینده۳,,,,,,,,,0,35,35,41,199.16992762498558,,,,,,,,,,,,,,,,,,,,,,,,,,,,,,,,,,,,,,,,,,,,,199.14585762500064,199.16992762498558,199.16992762498558,199.16992762498558,199.16992762498558,199.17884008331072,199.16992762498558,199.16992762498558,201.01908037500107,Correct! صحیح است,3,1.8421626659983303,None,0,36,201.0232135829865,201.0319956249732,203.0160504579835,203.0429852079833,,868230,001,2024-06-26_09h50.14.867,5-17,2024.1.4,None,2024-06-26 09h50.20.681380 +0900,
Images/Speaker1.jpg,Images/Speaker2.jpg,Images/Speaker3.jpg,Images/Speaker4.jpg,Audio/Speaker2_En/P2-14-En.wav,Speaker2,گوینده۲,,,,,,,,,0,36,36,33,203.0429852079833,,,,,,,,,,,,,,,,,,,,,,,,,,,,,,,,,,,,,,,,,,,,,203.01692958298372,203.0429852079833,203.0429852079833,203.0429852079833,203.0429852079833,203.04851070833007,203.0429852079833,203.0429852079833,206.4382390829851,Correct! صحیح است,2,3.385004041978391,None,0,37,206.44217933298205,206.45328574997257,208.4468796250003,,,868230,001,2024-06-26_09h50.14.867,5-17,2024.1.4,None,2024-06-26 09h50.20.681380 +0900,
Images/Speaker1.jpg,Images/Speaker2.jpg,Images/Speaker3.jpg,Images/Speaker4.jpg,Audio/Speaker2_En/P2-4-En.wav,Speaker2,گوینده۲,,,,,,,,,0,37,37,23,208.47224945799098,,,,,,,,,,,,,,,,,,,,,,,,,,,,,,,,,,,,,,,,,,,,,208.4474992909818,208.47224945799098,208.47224945799098,208.47224945799098,208.47224945799098,208.48003204132743,208.47224945799098,208.47224945799098,209.6402806659753,Correct! صحیح است,2,1.1601097919919994,None,0,38,209.64395524997963,209.6552117909887,211.6458607079985,,,868230,001,2024-06-26_09h50.14.867,5-17,2024.1.4,None,2024-06-26 09h50.20.681380 +0900,
Images/Speaker1.jpg,Images/Speaker2.jpg,Images/Speaker3.jpg,Images/Speaker4.jpg,Audio/Speaker1_En/P1-4-En.wav,Speaker1,گوینده ۱,,,,,,,,,0,38,38,13,211.6679857079871,,,,,,,,,,,,,,,,,,,,,,,,,,,,,,,,,,,,,,,,,,,,,211.64601079098065,211.6679857079871,211.6679857079871,211.6679857079871,211.6679857079871,211.6624956666531,211.6679857079871,211.6679857079871,212.61766112499754,Correct! صحیح است,1,0.9454748340067454,None,0,39,212.62157079100143,212.63209083297988,214.61671033297898,214.6385083749774,,868230,001,2024-06-26_09h50.14.867,5-17,2024.1.4,None,2024-06-26 09h50.20.681380 +0900,
Images/Speaker1.jpg,Images/Speaker2.jpg,Images/Speaker3.jpg,Images/Speaker4.jpg,Audio/Speaker3_En/P3-8-En.wav,Speaker3,گوینده۳,,,,,,,,,0,39,39,47,214.6385083749774,,,,,,,,,,,,,,,,,,,,,,,,,,,,,,,,,,,,,,,,,,,,,214.61686362497858,214.6385083749774,214.6385083749774,214.6385083749774,214.6385083749774,214.6331247916426,214.6385083749774,214.6385083749774,216.41252745798556,Correct! صحیح است,3,1.7627906659909058,None,0,40,216.41627691598842,216.42751033298555,218.41723849999835,218.441662874975,,868230,001,2024-06-26_09h50.14.867,5-17,2024.1.4,None,2024-06-26 09h50.20.681380 +0900,
Images/Speaker1.jpg,Images/Speaker2.jpg,Images/Speaker3.jpg,Images/Speaker4.jpg,Audio/Speaker2_En/P2-5-En.wav,Speaker2,گوینده۲,,,,,,,,,0,40,40,24,218.441662874975,,,,,,,,,,,,,,,,,,,,,,,,,,,,,,,,,,,,,,,,,,,,,218.41820320798433,218.441662874975,218.441662874975,218.441662874975,218.441662874975,218.44945837432948,218.441662874975,218.441662874975,220.94894133298658,Correct! صحیح است,2,2.4951032499957364,None,0,41,220.95318612499977,220.96427849997417,222.95698741599335,,,868230,001,2024-06-26_09h50.14.867,5-17,2024.1.4,None,2024-06-26 09h50.20.681380 +0900,
Images/Speaker1.jpg,Images/Speaker2.jpg,Images/Speaker3.jpg,Images/Speaker4.jpg,Audio/Speaker4_En/P4-13-En.wav,Speaker4,گوینده۴,,,,,,,,,0,41,41,72,222.98345612498815,,,,,,,,,,,,,,,,,,,,,,,,,,,,,,,,,,,,,,,,,,,,,222.95754658299848,222.98345612498815,222.98345612498815,222.98345612498815,222.98345612498815,222.99013295831588,222.98345612498815,222.98345612498815,225.79059154097922,Correct! صحیح است,4,2.7951959159981925,None,0,42,225.79444587498438,225.80552774999524,227.7961835829774,,,868230,001,2024-06-26_09h50.14.867,5-17,2024.1.4,None,2024-06-26 09h50.20.681380 +0900,
Images/Speaker1.jpg,Images/Speaker2.jpg,Images/Speaker3.jpg,Images/Speaker4.jpg,Audio/Speaker1_En/P1-18-En.wav,Speaker1,گوینده ۱,,,,,,,,,0,42,42,17,227.82241645798786,,,,,,,,,,,,,,,,,,,,,,,,,,,,,,,,,,,,,,,,,,,,,227.79682991598384,227.82241645798786,227.82241645798786,227.82241645798786,227.82241645798786,227.8293527913125,227.82241645798786,227.82241645798786,229.27993137500016,Correct! صحیح است,1,1.45651024999097,None,0,43,229.2838478749909,229.29510312498314,231.29017729099724,,,868230,001,2024-06-26_09h50.14.867,5-17,2024.1.4,None,2024-06-26 09h50.20.681380 +0900,
Images/Speaker1.jpg,Images/Speaker2.jpg,Images/Speaker3.jpg,Images/Speaker4.jpg,Audio/Speaker2_En/P2-19-En.wav,Speaker2,گوینده۲,,,,,,,,,0,43,43,38,231.3158263329824,,,,,,,,,,,,,,,,,,,,,,,,,,,,,,,,,,,,,,,,,,,,,231.29072837499552,231.3158263329824,231.3158263329824,231.3158263329824,231.3158263329824,231.32333054132374,231.3158263329824,231.3158263329824,234.0071817499993,Correct! صحیح است,2,2.6903724579897244,None,0,44,234.01234654098516,234.02439391598455,236.01094254097552,236.03328191599576,,868230,001,2024-06-26_09h50.14.867,5-17,2024.1.4,None,2024-06-26 09h50.20.681380 +0900,
Images/Speaker1.jpg,Images/Speaker2.jpg,Images/Speaker3.jpg,Images/Speaker4.jpg,Audio/Speaker1_En/P1-17-En.wav,Speaker1,گوینده ۱,,,,,,,,,0,44,44,16,236.03328191599576,,,,,,,,,,,,,,,,,,,,,,,,,,,,,,,,,,,,,,,,,,,,,236.01110733297537,236.03328191599576,236.03328191599576,236.03328191599576,236.03328191599576,236.02736987464985,236.03328191599576,236.03328191599576,237.38797308297944,Correct! صحیح است,1,1.3431446249887813,None,0,45,237.39273887497257,237.4049729159742,239.38812445799704,239.41134433299885,,868230,001,2024-06-26_09h50.14.867,5-17,2024.1.4,None,2024-06-26 09h50.20.681380 +0900,
Images/Speaker1.jpg,Images/Speaker2.jpg,Images/Speaker3.jpg,Images/Speaker4.jpg,Audio/Speaker2_En/P2-11-En.wav,Speaker2,گوینده۲,,,,,,,,,0,45,45,30,239.41134433299885,,,,,,,,,,,,,,,,,,,,,,,,,,,,,,,,,,,,,,,,,,,,,239.38829033297952,239.41134433299885,239.41134433299885,239.41134433299885,239.41134433299885,239.4212387493249,239.41134433299885,239.41134433299885,240.70228991599288,Correct! صحیح است,2,1.2837187910045031,None,0,46,240.7060972909967,240.71497658299631,242.69820566597627,242.71954812499462,,868230,001,2024-06-26_09h50.14.867,5-17,2024.1.4,None,2024-06-26 09h50.20.681380 +0900,
Images/Speaker1.jpg,Images/Speaker2.jpg,Images/Speaker3.jpg,Images/Speaker4.jpg,Audio/Speaker3_En/P3-20-En.wav,Speaker3,گوینده۳,,,,,,,,,0,46,46,59,242.71954812499462,,,,,,,,,,,,,,,,,,,,,,,,,,,,,,,,,,,,,,,,,,,,,242.6983841249894,242.71954812499462,242.71954812499462,242.71954812499462,242.71954812499462,242.71458666664356,242.71954812499462,242.71954812499462,244.54283591598505,Correct! صحیح است,3,1.8179779170022812,None,0,47,244.54674133297522,244.55774720798945,246.5467074579792,246.5698300829972,,868230,001,2024-06-26_09h50.14.867,5-17,2024.1.4,None,2024-06-26 09h50.20.681380 +0900,
Images/Speaker1.jpg,Images/Speaker2.jpg,Images/Speaker3.jpg,Images/Speaker4.jpg,Audio/Speaker2_En/P2-16-En.wav,Speaker2,گوینده۲,,,,,,,,,0,47,47,35,246.5698300829972,,,,,,,,,,,,,,,,,,,,,,,,,,,,,,,,,,,,,,,,,,,,,246.54752324998844,246.5698300829972,246.5698300829972,246.5698300829972,246.5698300829972,246.57916141631046,246.5698300829972,246.5698300829972,248.30189358297503,Correct! صحیح است,2,1.7224573330022395,None,0,48,248.30613795798854,248.31461529099033,250.30091316599282,250.32420512498356,,868230,001,2024-06-26_09h50.14.867,5-17,2024.1.4,None,2024-06-26 09h50.20.681380 +0900,
Images/Speaker1.jpg,Images/Speaker2.jpg,Images/Speaker3.jpg,Images/Speaker4.jpg,Audio/Speaker3_En/P3-14-En.wav,Speaker3,گوینده۳,,,,,,,,,0,48,48,53,250.32420512498356,,,,,,,,,,,,,,,,,,,,,,,,,,,,,,,,,,,,,,,,,,,,,250.30107258298085,250.32420512498356,250.32420512498356,250.32420512498356,250.32420512498356,250.33397508331888,250.32420512498356,250.32420512498356,252.0880400829774,Correct! صحیح است,3,1.7521726670092903,None,0,49,252.09207845799392,252.1027557499765,254.08774570797686,254.11053054098738,,868230,001,2024-06-26_09h50.14.867,5-17,2024.1.4,None,2024-06-26 09h50.20.681380 +0900,
Images/Speaker1.jpg,Images/Speaker2.jpg,Images/Speaker3.jpg,Images/Speaker4.jpg,Audio/Speaker1_En/P1-8-En.wav,Speaker1,گوینده ۱,,,,,,,,,0,49,49,7,254.11053054098738,,,,,,,,,,,,,,,,,,,,,,,,,,,,,,,,,,,,,,,,,,,,,254.08809408298112,254.11053054098738,254.11053054098738,254.11053054098738,254.11053054098738,254.10416766663937,254.11053054098738,254.11053054098738,255.56522316599148,Correct! صحیح است,1,1.4522884170000907,None,0,50,255.56926458299858,255.58076220797375,257.56466154099326,257.5896239579888,,868230,001,2024-06-26_09h50.14.867,5-17,2024.1.4,None,2024-06-26 09h50.20.681380 +0900,
Images/Speaker1.jpg,Images/Speaker2.jpg,Images/Speaker3.jpg,Images/Speaker4.jpg,Audio/Speaker2_En/P2-17-En.wav,Speaker2,گوینده۲,,,,,,,,,0,50,50,36,257.5896239579888,,,,,,,,,,,,,,,,,,,,,,,,,,,,,,,,,,,,,,,,,,,,,257.56520683298004,257.5896239579888,257.5896239579888,257.5896239579888,257.5896239579888,257.59703329130616,257.5896239579888,257.5896239579888,258.774329457985,Correct! صحیح است,2,1.180941750004422,None,0,51,258.77835137498914,258.7892470829829,260.77419054097845,260.79704849998234,,868230,001,2024-06-26_09h50.14.867,5-17,2024.1.4,None,2024-06-26 09h50.20.681380 +0900,
Images/Speaker1.jpg,Images/Speaker2.jpg,Images/Speaker3.jpg,Images/Speaker4.jpg,Audio/Speaker3_En/P3-9-En.wav,Speaker3,گوینده۳,,,,,,,,,0,51,51,48,260.79704849998234,,,,,,,,,,,,,,,,,,,,,,,,,,,,,,,,,,,,,,,,,,,,,260.7743502499943,260.79704849998234,260.79704849998234,260.79704849998234,260.79704849998234,260.80718362431116,260.79704849998234,260.79704849998234,262.5541707910015,Correct! صحیح است,3,1.7558944580086973,None,0,52,262.55837162499665,262.5694423329842,264.55575754097663,264.57944895798573,,868230,001,2024-06-26_09h50.14.867,5-17,2024.1.4,None,2024-06-26 09h50.20.681380 +0900,
Images/Speaker1.jpg,Images/Speaker2.jpg,Images/Speaker3.jpg,Images/Speaker4.jpg,Audio/Speaker4_En/P4-19-En.wav,Speaker4,گوینده۴,,,,,,,,,0,52,52,78,264.57944895798573,,,,,,,,,,,,,,,,,,,,,,,,,,,,,,,,,,,,,,,,,,,,,264.55630699999165,264.57944895798573,264.57944895798573,264.57944895798573,264.57944895798573,264.5881990413259,264.57944895798573,264.57944895798573,267.37857383297523,Correct! صحیح است,4,2.798136165976757,None,0,53,267.38275412499206,267.393846166,269.3796025829797,269.4020564999955,,868230,001,2024-06-26_09h50.14.867,5-17,2024.1.4,None,2024-06-26 09h50.20.681380 +0900,
Images/Speaker1.jpg,Images/Speaker2.jpg,Images/Speaker3.jpg,Images/Speaker4.jpg,Audio/Speaker3_En/P3-16-En.wav,Speaker3,گوینده۳,,,,,,,,,0,53,53,55,269.4020564999955,,,,,,,,,,,,,,,,,,,,,,,,,,,,,,,,,,,,,,,,,,,,,269.37977270799456,269.4020564999955,269.4020564999955,269.4020564999955,269.4020564999955,269.39607929165163,269.4020564999955,269.4020564999955,272.07933558299555,Correct! صحیح است,3,2.67276012498769,None,0,54,272.0834066249954,272.0944267079758,274.080139165977,274.101955540973,,868230,001,2024-06-26_09h50.14.867,5-17,2024.1.4,None,2024-06-26 09h50.20.681380 +0900,
Images/Speaker1.jpg,Images/Speaker2.jpg,Images/Speaker3.jpg,Images/Speaker4.jpg,Audio/Speaker1_En/P1-10-En.wav,Speaker1,گوینده ۱,,,,,,,,,0,54,54,9,274.101955540973,,,,,,,,,,,,,,,,,,,,,,,,,,,,,,,,,,,,,,,,,,,,,274.0803011249809,274.101955540973,274.101955540973,274.101955540973,274.101955540973,274.0965589996524,274.101955540973,274.101955540973,275.2205979579885,Correct! صحیح است,1,1.1108837090141606,None,0,55,275.22469445798197,275.2335525829985,277.2227181659837,277.2458493329759,,868230,001,2024-06-26_09h50.14.867,5-17,2024.1.4,None,2024-06-26 09h50.20.681380 +0900,
Images/Speaker1.jpg,Images/Speaker2.jpg,Images/Speaker3.jpg,Images/Speaker4.jpg,Audio/Speaker4_En/P4-8-En.wav,Speaker4,گوینده۴,,,,,,,,,0,55,55,67,277.2458493329759,,,,,,,,,,,,,,,,,,,,,,,,,,,,,,,,,,,,,,,,,,,,,277.22321941598784,277.2458493329759,277.2458493329759,277.2458493329759,277.2458493329759,277.25507391632027,277.2458493329759,277.2458493329759,279.6842697909742,Correct! صحیح است,4,2.432968458015239,None,0,56,279.6893757079961,279.701394624979,281.68940212499,,,868230,001,2024-06-26_09h50.14.867,5-17,2024.1.4,None,2024-06-26 09h50.20.681380 +0900,
Images/Speaker1.jpg,Images/Speaker2.jpg,Images/Speaker3.jpg,Images/Speaker4.jpg,Audio/Speaker4_En/P4-15-En.wav,Speaker4,گوینده۴,,,,,,,,,0,56,56,74,281.71255649998784,,,,,,,,,,,,,,,,,,,,,,,,,,,,,,,,,,,,,,,,,,,,,281.6895734999853,281.71255649998784,281.71255649998784,281.71255649998784,281.71255649998784,281.72268024931736,281.71255649998784,281.71255649998784,283.2092905829777,Correct! صحیح است,4,1.4956987499899697,None,0,57,283.2134779999906,283.22439645798295,285.21050062499125,285.23326099998667,,868230,001,2024-06-26_09h50.14.867,5-17,2024.1.4,None,2024-06-26 09h50.20.681380 +0900,
Images/Speaker1.jpg,Images/Speaker2.jpg,Images/Speaker3.jpg,Images/Speaker4.jpg,Audio/Speaker2_En/P2-6-En.wav,Speaker2,گوینده۲,,,,,,,,,0,57,57,25,285.23326099998667,,,,,,,,,,,,,,,,,,,,,,,,,,,,,,,,,,,,,,,,,,,,,285.21065741599887,285.23326099998667,285.23326099998667,285.23326099998667,285.23326099998667,285.2269426666646,285.23326099998667,285.23326099998667,286.7136473749997,Correct! صحیح است,2,1.474328875017818,None,0,58,286.71788804099197,286.729000790976,288.714652249997,288.74060045799706,,868230,001,2024-06-26_09h50.14.867,5-17,2024.1.4,None,2024-06-26 09h50.20.681380 +0900,
Images/Speaker1.jpg,Images/Speaker2.jpg,Images/Speaker3.jpg,Images/Speaker4.jpg,Audio/Speaker4_En/P4-7-En.wav,Speaker4,گوینده۴,,,,,,,,,0,58,58,66,288.74060045799706,,,,,,,,,,,,,,,,,,,,,,,,,,,,,,,,,,,,,,,,,,,,,288.71516191598494,288.74060045799706,288.74060045799706,288.74060045799706,288.74060045799706,288.74709354132256,288.74060045799706,288.74060045799706,291.88401045798673,Correct! صحیح است,4,3.1305662079830654,None,0,59,291.8879163749807,291.8990476659965,293.88294658297673,293.91022437499487,,868230,001,2024-06-26_09h50.14.867,5-17,2024.1.4,None,2024-06-26 09h50.20.681380 +0900,
Images/Speaker1.jpg,Images/Speaker2.jpg,Images/Speaker3.jpg,Images/Speaker4.jpg,Audio/Speaker4_En/P4-14-En.wav,Speaker4,گوینده۴,,,,,,,,,0,59,59,73,293.91022437499487,,,,,,,,,,,,,,,,,,,,,,,,,,,,,,,,,,,,,,,,,,,,,293.883799290983,293.91022437499487,293.91022437499487,293.91022437499487,293.91022437499487,293.9153364163144,293.91022437499487,293.91022437499487,295.41844854099327,Correct! صحیح است,4,1.504857166990405,None,0,60,295.4225894580013,295.43435087497346,297.4212627079978,297.44388187499135,,868230,001,2024-06-26_09h50.14.867,5-17,2024.1.4,None,2024-06-26 09h50.20.681380 +0900,
Images/Speaker1.jpg,Images/Speaker2.jpg,Images/Speaker3.jpg,Images/Speaker4.jpg,Audio/Speaker1_En/P1-2-En.wav,Speaker1,گوینده ۱,,,,,,,,,0,60,60,1,297.44388187499135,,,,,,,,,,,,,,,,,,,,,,,,,,,,,,,,,,,,,,,,,,,,,297.42143358298927,297.44388187499135,297.44388187499135,297.44388187499135,297.44388187499135,297.43755354165137,297.44388187499135,297.44388187499135,298.9649267499917,Correct! صحیح است,1,1.5130160830158275,None,0,61,298.96888237498933,298.9778192079975,300.9623742909753,300.9858060829865,,868230,001,2024-06-26_09h50.14.867,5-17,2024.1.4,None,2024-06-26 09h50.20.681380 +0900,
Images/Speaker1.jpg,Images/Speaker2.jpg,Images/Speaker3.jpg,Images/Speaker4.jpg,Audio/Speaker3_En/P3-4-En.wav,Speaker3,گوینده۳,,,,,,,,,0,61,61,43,300.9858060829865,,,,,,,,,,,,,,,,,,,,,,,,,,,,,,,,,,,,,,,,,,,,,300.96255362499505,300.9858060829865,300.9858060829865,300.9858060829865,300.9858060829865,300.9954820413336,300.9858060829865,300.9858060829865,303.8718122499995,Correct! صحیح است,3,2.875515749998158,None,0,62,303.8757837500016,303.88687224997557,305.8814567499794,,,868230,001,2024-06-26_09h50.14.867,5-17,2024.1.4,None,2024-06-26 09h50.20.681380 +0900,
Images/Speaker1.jpg,Images/Speaker2.jpg,Images/Speaker3.jpg,Images/Speaker4.jpg,Audio/Speaker1_En/P1-7-En.wav,Speaker1,گوینده ۱,,,,,,,,,0,62,62,6,305.90722549997736,,,,,,,,,,,,,,,,,,,,,,,,,,,,,,,,,,,,,,,,,,,,,305.88204291599686,305.90722549997736,305.90722549997736,305.90722549997736,305.90722549997736,305.91458533332525,305.90722549997736,305.90722549997736,307.2598405829922,Correct! صحیح است,1,1.3509248750051484,None,0,63,307.2636197079846,307.27456562497537,309.25962695799535,309.28133091598283,,868230,001,2024-06-26_09h50.14.867,5-17,2024.1.4,None,2024-06-26 09h50.20.681380 +0900,
Images/Speaker1.jpg,Images/Speaker2.jpg,Images/Speaker3.jpg,Images/Speaker4.jpg,Audio/Speaker2_En/P2-8-En.wav,Speaker2,گوینده۲,,,,,,,,,0,63,63,27,309.28133091598283,,,,,,,,,,,,,,,,,,,,,,,,,,,,,,,,,,,,,,,,,,,,,309.2597759999917,309.28133091598283,309.28133091598283,309.28133091598283,309.28133091598283,309.27610099965045,309.28133091598283,309.28133091598283,311.132255332981,Correct! صحیح است,2,1.8486360420065466,None,0,64,311.1364209999738,311.14751887499006,313.13112266597454,313.1538911659736,,868230,001,2024-06-26_09h50.14.867,5-17,2024.1.4,None,2024-06-26 09h50.20.681380 +0900,
Images/Speaker1.jpg,Images/Speaker2.jpg,Images/Speaker3.jpg,Images/Speaker4.jpg,Audio/Speaker1_En/P1-1-En.wav,Speaker1,گوینده ۱,,,,,,,,,0,64,64,0,313.1538911659736,,,,,,,,,,,,,,,,,,,,,,,,,,,,,,,,,,,,,,,,,,,,,313.1313119159895,313.1538911659736,313.1538911659736,313.1538911659736,313.1538911659736,313.1475574576509,313.1538911659736,313.1538911659736,314.5699174159963,Correct! صحیح است,1,1.4114097909769043,None,0,65,314.5736796249985,314.58523362499545,316.5740687499929,316.5972867909877,,868230,001,2024-06-26_09h50.14.867,5-17,2024.1.4,None,2024-06-26 09h50.20.681380 +0900,
Images/Speaker1.jpg,Images/Speaker2.jpg,Images/Speaker3.jpg,Images/Speaker4.jpg,Audio/Speaker4_En/P4-17-En.wav,Speaker4,گوینده۴,,,,,,,,,0,65,65,76,316.5972867909877,,,,,,,,,,,,,,,,,,,,,,,,,,,,,,,,,,,,,,,,,,,,,316.5745794159884,316.5972867909877,316.5972867909877,316.5972867909877,316.5972867909877,316.6065307913309,316.5972867909877,316.5972867909877,318.2066504159884,Correct! صحیح است,4,1.6024354999826755,None,0,66,318.21058699997957,318.2215426659968,320.2066197079839,320.22948029098916,,868230,001,2024-06-26_09h50.14.867,5-17,2024.1.4,None,2024-06-26 09h50.20.681380 +0900,
Images/Speaker1.jpg,Images/Speaker2.jpg,Images/Speaker3.jpg,Images/Speaker4.jpg,Audio/Speaker4_En/P4-10-En.wav,Speaker4,گوینده۴,,,,,,,,,0,66,66,69,320.22948029098916,,,,,,,,,,,,,,,,,,,,,,,,,,,,,,,,,,,,,,,,,,,,,320.20716995798284,320.22948029098916,320.22948029098916,320.22948029098916,320.22948029098916,320.23896662431844,320.22948029098916,320.22948029098916,321.3508396659745,Correct! صحیح است,4,1.1165336249978282,None,0,67,321.35458787498646,321.3656844579964,323.358132415975,,,868230,001,2024-06-26_09h50.14.867,5-17,2024.1.4,None,2024-06-26 09h50.20.681380 +0900,
Images/Speaker1.jpg,Images/Speaker2.jpg,Images/Speaker3.jpg,Images/Speaker4.jpg,Audio/Speaker1_En/P1-20-En.wav,Speaker1,گوینده ۱,,,,,,,,,0,67,67,19,323.38509712499217,,,,,,,,,,,,,,,,,,,,,,,,,,,,,,,,,,,,,,,,,,,,,323.3588285000005,323.38509712499217,323.38509712499217,323.38509712499217,323.38509712499217,323.3912715833071,323.38509712499217,323.38509712499217,324.80102683298173,Correct! صحیح است,1,1.4082692920055706,None,0,68,324.80495558297844,324.81341479098774,326.7985674579977,326.8215594579815,,868230,001,2024-06-26_09h50.14.867,5-17,2024.1.4,None,2024-06-26 09h50.20.681380 +0900,
Images/Speaker1.jpg,Images/Speaker2.jpg,Images/Speaker3.jpg,Images/Speaker4.jpg,Audio/Speaker3_En/P3-12-En.wav,Speaker3,گوینده۳,,,,,,,,,0,68,68,51,326.8215594579815,,,,,,,,,,,,,,,,,,,,,,,,,,,,,,,,,,,,,,,,,,,,,326.7991336659761,326.8215594579815,326.8215594579815,326.8215594579815,326.8215594579815,326.831037833334,326.8215594579815,326.8215594579815,328.52291037497343,Correct! صحیح است,3,1.6963289580016863,None,0,69,328.52713183299056,328.53773933299817,330.52131354098674,330.54392516598455,,868230,001,2024-06-26_09h50.14.867,5-17,2024.1.4,None,2024-06-26 09h50.20.681380 +0900,
Images/Speaker1.jpg,Images/Speaker2.jpg,Images/Speaker3.jpg,Images/Speaker4.jpg,Audio/Speaker3_En/P3-3-En.wav,Speaker3,گوینده۳,,,,,,,,,0,69,69,42,330.54392516598455,,,,,,,,,,,,,,,,,,,,,,,,,,,,,,,,,,,,,,,,,,,,,330.52146829100093,330.54392516598455,330.54392516598455,330.54392516598455,330.54392516598455,330.5377557496579,330.54392516598455,330.54392516598455,332.16280820799875,Correct! صحیح است,3,1.613431458012201,None,0,70,332.1665343749919,332.1782079580007,334.1646115409967,334.18621020799037,,868230,001,2024-06-26_09h50.14.867,5-17,2024.1.4,None,2024-06-26 09h50.20.681380 +0900,
Images/Speaker1.jpg,Images/Speaker2.jpg,Images/Speaker3.jpg,Images/Speaker4.jpg,Audio/Speaker2_En/P2-12-En.wav,Speaker2,گوینده۲,,,,,,,,,0,70,70,31,334.18621020799037,,,,,,,,,,,,,,,,,,,,,,,,,,,,,,,,,,,,,,,,,,,,,334.164786874986,334.18621020799037,334.18621020799037,334.18621020799037,334.18621020799037,334.18099208266744,334.18621020799037,334.18621020799037,336.2013027909852,Correct! صحیح است,2,2.01112650000141,None,0,71,336.20524849998765,336.21614908298943,338.1992732079816,338.22162174998084,,868230,001,2024-06-26_09h50.14.867,5-17,2024.1.4,None,2024-06-26 09h50.20.681380 +0900,
Images/Speaker1.jpg,Images/Speaker2.jpg,Images/Speaker3.jpg,Images/Speaker4.jpg,Audio/Speaker1_En/P1-19-En.wav,Speaker1,گوینده ۱,,,,,,,,,0,71,71,18,338.22162174998084,,,,,,,,,,,,,,,,,,,,,,,,,,,,,,,,,,,,,,,,,,,,,338.19942379099666,338.22162174998084,338.22162174998084,338.22162174998084,338.22162174998084,338.21573212466706,338.22162174998084,338.22162174998084,339.41294245797326,Correct! صحیح است,1,1.1894867499941029,None,0,72,339.4169085829926,339.4279428749869,341.41060424997704,341.4338067499921,,868230,001,2024-06-26_09h50.14.867,5-17,2024.1.4,None,2024-06-26 09h50.20.681380 +0900,
Images/Speaker1.jpg,Images/Speaker2.jpg,Images/Speaker3.jpg,Images/Speaker4.jpg,Audio/Speaker1_En/P1-3-En.wav,Speaker1,گوینده ۱,,,,,,,,,0,72,72,2,341.4338067499921,,,,,,,,,,,,,,,,,,,,,,,,,,,,,,,,,,,,,,,,,,,,,341.4107846659899,341.4338067499921,341.4338067499921,341.4338067499921,341.4338067499921,341.44365491631515,341.4338067499921,341.4338067499921,342.7422799579799,Correct! صحیح است,1,1.3013982499833219,None,0,73,342.74724916598643,342.76024337499985,344.7475358749798,,,868230,001,2024-06-26_09h50.14.867,5-17,2024.1.4,None,2024-06-26 09h50.20.681380 +0900,
Images/Speaker1.jpg,Images/Speaker2.jpg,Images/Speaker3.jpg,Images/Speaker4.jpg,Audio/Speaker3_En/P3-6-En.wav,Speaker3,گوینده۳,,,,,,,,,0,73,73,45,344.7702437079861,,,,,,,,,,,,,,,,,,,,,,,,,,,,,,,,,,,,,,,,,,,,,344.7477049579902,344.7702437079861,344.7702437079861,344.7702437079861,344.7702437079861,344.7641378326555,344.7702437079861,344.7702437079861,346.8232479579747,Correct! صحیح است,3,2.046882833004929,None,0,74,346.8275472909736,346.8394085409818,348.8288843749906,,,868230,001,2024-06-26_09h50.14.867,5-17,2024.1.4,None,2024-06-26 09h50.20.681380 +0900,
Images/Speaker1.jpg,Images/Speaker2.jpg,Images/Speaker3.jpg,Images/Speaker4.jpg,Audio/Speaker4_En/P4-4-En.wav,Speaker4,گوینده۴,,,,,,,,,0,74,74,63,348.8523277079803,,,,,,,,,,,,,,,,,,,,,,,,,,,,,,,,,,,,,,,,,,,,,348.8290421659767,348.8523277079803,348.8523277079803,348.8523277079803,348.8523277079803,348.8621822493228,348.8523277079803,348.8523277079803,352.81194345798576,Correct! صحیح است,4,3.9550702910055406,None,0,75,352.8159909999813,352.8290499159775,354.82586804099265,,,868230,001,2024-06-26_09h50.14.867,5-17,2024.1.4,None,2024-06-26 09h50.20.681380 +0900,
Images/Speaker1.jpg,Images/Speaker2.jpg,Images/Speaker3.jpg,Images/Speaker4.jpg,Audio/Speaker4_En/P4-11-En.wav,Speaker4,گوینده۴,,,,,,,,,0,75,75,70,354.85212999998475,,,,,,,,,,,,,,,,,,,,,,,,,,,,,,,,,,,,,,,,,,,,,354.82653983298223,354.85212999998475,354.85212999998475,354.85212999998475,354.85212999998475,354.85903449930674,354.85212999998475,354.85212999998475,358.1515474159969,Correct! صحیح است,4,3.2975272499897983,None,0,76,358.15543195797363,358.1664320829732,360.15527166597894,360.17966874997364,,868230,001,2024-06-26_09h50.14.867,5-17,2024.1.4,None,2024-06-26 09h50.20.681380 +0900,
Images/Speaker1.jpg,Images/Speaker2.jpg,Images/Speaker3.jpg,Images/Speaker4.jpg,Audio/Speaker3_En/P3-15-En.wav,Speaker3,گوینده۳,,,,,,,,,0,76,76,54,360.17966874997364,,,,,,,,,,,,,,,,,,,,,,,,,,,,,,,,,,,,,,,,,,,,,360.15624991597724,360.17966874997364,360.17966874997364,360.17966874997364,360.17966874997364,360.18766224932233,360.17966874997364,360.17966874997364,362.10391237499425,Correct! صحیح است,3,1.9132520830025896,None,0,77,362.1089215409884,362.1208315829863,364.11290779098636,,,868230,001,2024-06-26_09h50.14.867,5-17,2024.1.4,None,2024-06-26 09h50.20.681380 +0900,
Images/Speaker1.jpg,Images/Speaker2.jpg,Images/Speaker3.jpg,Images/Speaker4.jpg,Audio/Speaker3_En/P3-17-En.wav,Speaker3,گوینده۳,,,,,,,,,0,77,77,56,364.13612466599443,,,,,,,,,,,,,,,,,,,,,,,,,,,,,,,,,,,,,,,,,,,,,364.1130706659751,364.13612466599443,364.13612466599443,364.13612466599443,364.13612466599443,364.1462020413096,364.13612466599443,364.13612466599443,366.13072966597974,Correct! صحیح است,3,1.989971249975497,None,0,78,366.1353680409957,366.1472447499982,368.1311326249852,368.15408300000126,,868230,001,2024-06-26_09h50.14.867,5-17,2024.1.4,None,2024-06-26 09h50.20.681380 +0900,
Images/Speaker1.jpg,Images/Speaker2.jpg,Images/Speaker3.jpg,Images/Speaker4.jpg,Audio/Speaker4_En/P4-1-En.wav,Speaker4,گوینده۴,,,,,,,,,0,78,78,60,368.15408300000126,,,,,,,,,,,,,,,,,,,,,,,,,,,,,,,,,,,,,,,,,,,,,368.1312869999965,368.15408300000126,368.15408300000126,368.15408300000126,368.15408300000126,368.1642096243236,368.15408300000126,368.15408300000126,371.1699674159754,Correct! صحیح است,4,3.0084374160214793,None,0,79,371.17390395799885,371.18509433299187,373.1731372909853,373.19762362499023,,868230,001,2024-06-26_09h50.14.867,5-17,2024.1.4,None,2024-06-26 09h50.20.681380 +0900,
Images/Speaker1.jpg,Images/Speaker2.jpg,Images/Speaker3.jpg,Images/Speaker4.jpg,Audio/Speaker4_En/P4-2-En.wav,Speaker4,گوینده۴,,,,,,,,,0,79,79,61,373.19762362499023,,,,,,,,,,,,,,,,,,,,,,,,,,,,,,,,,,,,,,,,,,,,,373.17371649999404,373.19762362499023,373.19762362499023,373.19762362499023,373.19762362499023,373.20547566630603,373.19762362499023,373.19762362499023,374.46961058297893,Correct! صحیح است,4,1.269915500015486,None,0,80,374.47446854098234,374.48762674999307,376.47261762499693,,,868230,001,2024-06-26_09h50.14.867,5-17,2024.1.4,None,2024-06-26 09h50.20.681380 +0900,
,,,,,,,,,,,,,,,,,,,,,,,,,,,,,,,,,,,,,,,,,,,,,,,,,,,,,,,,,,,,,,,,,,,,,,,,,,,,,,,,,,,376.47266879098606,,,,,,,,
