SpeakerImage1,SpeakerImage2,SpeakerImage3,SpeakerImage4,TrainingSound,EnglishCorrectAnswer,PersianCorrectAnswer,SpeakerPhoto1,SpeakerPhoto2,SpeakerPhoto3,SpeakerPhoto4,TestingSound,EnglishCorrectResponse,PersianCorrectResponse,TrainingLoopGroup1.thisRepN,TrainingLoopGroup1.thisTrialN,TrainingLoopGroup1.thisN,TrainingLoopGroup1.thisIndex,TrainingLoopGroup2.thisRepN,TrainingLoopGroup2.thisTrialN,TrainingLoopGroup2.thisN,TrainingLoopGroup2.thisIndex,TrainingLoopGroup3.thisRepN,TrainingLoopGroup3.thisTrialN,TrainingLoopGroup3.thisN,TrainingLoopGroup3.thisIndex,testPhase1Loop.thisRepN,testPhase1Loop.thisTrialN,testPhase1Loop.thisN,testPhase1Loop.thisIndex,thisRow.t,notes,trial.started,trial.stopped,GroupSelection.started,GroupInstructions.started,key_resp.started,GroupSelection.stopped,key_resp.keys,key_resp.rt,key_resp.duration,Introduction.started,text_2.started,image.started,sound_7.started,text_4.started,text_2.stopped,sound_8.started,image.stopped,text_4.stopped,image_7.started,sound_9.started,text_5.started,sound_10.started,image_7.stopped,text_5.stopped,image_8.started,sound_11.started,text_6.started,sound_12.started,image_8.stopped,text_6.stopped,image_9.started,sound_13.started,text_7.started,sound_14.started,image_9.stopped,text_7.stopped,Introduction.stopped,Instructions.started,InstructionText.started,InstructionText.stopped,Instructions.stopped,InitializeExperiment.started,InitializeExperiment.stopped,TrainingGroup3.started,SpeakerPicture3.started,image_15.started,image_16.started,image_17.started,Sound3.started,Instruction3.started,Response3.started,TrainingGroup3.stopped,feedbackText,Response3.keys,Response3.rt,Response3.duration,correct_responses_group3,total_trials_group3,FeedbackRoutine3.started,FeedbackText3.started,FeedbackRoutine3.stopped,FeedbackText3.stopped,CheckAccuracy.started,accuracy_group1,accuracy_group2,accuracy_group3,proceed_to_test,CheckAccuracy.stopped,WelcomeTest.started,text_12.started,text_12.stopped,WelcomeTest.stopped,TestPhase1.started,TestPhase1.stopped,test1_response_keyboard.keys,test1_response,test1_image_file1,test1_image_file2,test1_image_file3,test1_image_file4,test1_sound_file,english_correct_answer,persian_correct_answer,participant,session,date,expName,psychopyVersion,frameRate,expStart,
,,,,,,,,,,,,,,,,,,,,,,,,,,,,,,,,0.009276624998165062,0.013548790997447213,,,,,,,,,,,,,,,,,,,,,,,,,,,,,,,,,,,,,,,,,,,,,,,,,,,,,,,,,,,,,,,,,,,,,,,,,,,,,,,,,,876297,001,2024-06-30_14h59.01.813,5-24,2024.1.4,None,2024-06-30 14h59.09.934257 +0900,
,,,,,,,,,,,,,,,,,,,,,,,,,,,,,,,,,,0.013562500000261934,0.01859254100054386,0.01859254100054386,0.6622975409991341,3,0.6052627919998486,None,,,,,,,,,,,,,,,,,,,,,,,,,,,,,,,,,,,,,,,,,,,,,,,,,,,,,,,,,,,,,,,,,,,,,,,,,,,876297,001,2024-06-30_14h59.01.813,5-24,2024.1.4,None,2024-06-30 14h59.09.934257 +0900,
,,,,,,,,,,,,,,,,,,,,,,,,,,,,,,,,,,,,,,,,,0.6623235829974874,0.7338531659988803,5.652593208000326,5.66181412466564,5.652593208000326,5.7320369579974795,10.664346832665858,15.648230332997628,15.648230332997628,15.653446124997572,15.664896999664295,15.653446124997572,20.664932082665715,25.645181207997666,25.645181207997666,25.65701345799971,25.661847874664332,25.65701345799971,30.66600054166726,35.65259624999817,35.65259624999817,35.65259624999817,35.66563174966383,35.65259624999817,40.66251129166655,45.64896887500072,45.64896887500072,45.635208832998615,,,,,,,,,,,,,,,,,,,,,,,,,,,,,,,,,,,,,,,,,,,,,,,876297,001,2024-06-30_14h59.01.813,5-24,2024.1.4,None,2024-06-30 14h59.09.934257 +0900,
,,,,,,,,,,,,,,,,,,,,,,,,,,,,,,,,,,,,,,,,,,,,,,,,,,,,,,,,,,,,,,,,,,,,,45.63522749999902,45.65484679099973,46.73827062499913,46.65234183299981,,,,,,,,,,,,,,,,,,,,,,,,,,,,,,,,,,,,,,,,,,,876297,001,2024-06-30_14h59.01.813,5-24,2024.1.4,None,2024-06-30 14h59.09.934257 +0900,
,,,,,,,,,,,,,,,,,,,,,,,,,,,,,,,,,,,,,,,,,,,,,,,,,,,,,,,,,,,,,,,,,,,,,,,,,46.65237370799878,46.65269674999945,,,,,,,,,,,,,,,,,,,,,,,,,,,,,,,,,,,,,,,,,876297,001,2024-06-30_14h59.01.813,5-24,2024.1.4,None,2024-06-30 14h59.09.934257 +0900,
Images/Speaker1.jpg,Images/Speaker2.jpg,Images/Speaker3.jpg,Images/Speaker4.jpg,Audio/Speaker2_En/P2-2-En.wav,Speaker2,گوینده۲,,,,,,,,,,,,,,,,0,0,0,21,,,,,46.73827062499913,,,,,,,,,,,,,,,,,,,,,,,,,,,,,,,,,,,,,,,,,,,,,46.71044875000007,46.73827062499913,46.73827062499913,46.73827062499913,46.73827062499913,46.73488212433343,46.73827062499913,46.73827062499913,48.759118333000515,Incorrect! The correct answer is Speaker2. نادرست! پاسخ صحیح گوینده۲ است,1,2.008974333999504,None,0,1,48.7632245829991,48.77673095799764,50.76401854099822,,,,,,,,,,,,,,,,,,,,,,,876297,001,2024-06-30_14h59.01.813,5-24,2024.1.4,None,2024-06-30 14h59.09.934257 +0900,
Images/Speaker1.jpg,Images/Speaker2.jpg,Images/Speaker3.jpg,Images/Speaker4.jpg,Audio/Speaker3_En/P3-20-En.wav,Speaker3,گوینده۳,,,,,,,,,,,,,,,,0,1,1,59,,,,,50.788089540998044,,,,,,,,,,,,,,,,,,,,,,,,,,,,,,,,,,,,,,,,,,,,,50.764199290999386,50.788089540998044,50.788089540998044,50.788089540998044,50.788089540998044,50.78061349966471,50.788089540998044,50.788089540998044,51.097916124999756,Incorrect! The correct answer is Speaker3. نادرست! پاسخ صحیح گوینده۳ است,1,0.3072705419981503,None,0,2,51.102027916000225,51.11442237499796,53.09833470800004,53.12371749999875,,,,,,,,,,,,,,,,,,,,,,876297,001,2024-06-30_14h59.01.813,5-24,2024.1.4,None,2024-06-30 14h59.09.934257 +0900,
Images/Speaker1.jpg,Images/Speaker2.jpg,Images/Speaker3.jpg,Images/Speaker4.jpg,Audio/Speaker4_En/P4-14-En.wav,Speaker4,گوینده۴,,,,,,,,,,,,,,,,0,2,2,73,,,,,53.12371749999875,,,,,,,,,,,,,,,,,,,,,,,,,,,,,,,,,,,,,,,,,,,,,53.098494833000586,53.12371749999875,53.12371749999875,53.12371749999875,53.12371749999875,53.131468749332754,53.12371749999875,53.12371749999875,53.573478165999404,Incorrect! The correct answer is Speaker4. نادرست! پاسخ صحیح گوینده۴ است,1,0.4488254579991917,None,0,3,53.577391290997184,53.58991666599832,55.57286374999967,55.59747404099835,,,,,,,,,,,,,,,,,,,,,,876297,001,2024-06-30_14h59.01.813,5-24,2024.1.4,None,2024-06-30 14h59.09.934257 +0900,
Images/Speaker1.jpg,Images/Speaker2.jpg,Images/Speaker3.jpg,Images/Speaker4.jpg,Audio/Speaker4_En/P4-16-En.wav,Speaker4,گوینده۴,,,,,,,,,,,,,,,,0,3,3,75,,,,,55.59747404099835,,,,,,,,,,,,,,,,,,,,,,,,,,,,,,,,,,,,,,,,,,,,,55.57303212499755,55.59747404099835,55.59747404099835,55.59747404099835,55.59747404099835,55.60599458333357,55.59747404099835,55.59747404099835,56.323016457998165,Incorrect! The correct answer is Speaker4. نادرست! پاسخ صحیح گوینده۴ است,1,0.7184507500023756,None,0,4,56.32809379099854,56.34222233299806,58.32630020799843,58.352477332999115,,,,,,,,,,,,,,,,,,,,,,876297,001,2024-06-30_14h59.01.813,5-24,2024.1.4,None,2024-06-30 14h59.09.934257 +0900,
Images/Speaker1.jpg,Images/Speaker2.jpg,Images/Speaker3.jpg,Images/Speaker4.jpg,Audio/Speaker4_En/P4-17-En.wav,Speaker4,گوینده۴,,,,,,,,,,,,,,,,0,4,4,76,,,,,58.352477332999115,,,,,,,,,,,,,,,,,,,,,,,,,,,,,,,,,,,,,,,,,,,,,58.327019749998726,58.352477332999115,58.352477332999115,58.352477332999115,58.352477332999115,58.35878845833261,58.352477332999115,58.352477332999115,58.8546994999997,Incorrect! The correct answer is Speaker4. نادرست! پاسخ صحیح گوینده۴ است,1,0.4922064999991562,None,0,5,58.85900379099985,58.86984712499907,60.858192249997956,60.88268208299996,,,,,,,,,,,,,,,,,,,,,,876297,001,2024-06-30_14h59.01.813,5-24,2024.1.4,None,2024-06-30 14h59.09.934257 +0900,
Images/Speaker1.jpg,Images/Speaker2.jpg,Images/Speaker3.jpg,Images/Speaker4.jpg,Audio/Speaker3_En/P3-7-En.wav,Speaker3,گوینده۳,,,,,,,,,,,,,,,,0,5,5,46,,,,,60.88268208299996,,,,,,,,,,,,,,,,,,,,,,,,,,,,,,,,,,,,,,,,,,,,,60.85875154099995,60.88268208299996,60.88268208299996,60.88268208299996,60.88268208299996,60.890689916330786,60.88268208299996,60.88268208299996,61.06713787499757,Incorrect! The correct answer is Speaker3. نادرست! پاسخ صحیح گوینده۳ است,1,0.17366279199995915,None,0,6,61.071189665999555,61.084541332998924,63.06926904099964,63.096129833000305,,,,,,,,,,,,,,,,,,,,,,876297,001,2024-06-30_14h59.01.813,5-24,2024.1.4,None,2024-06-30 14h59.09.934257 +0900,
Images/Speaker1.jpg,Images/Speaker2.jpg,Images/Speaker3.jpg,Images/Speaker4.jpg,Audio/Speaker2_En/P2-18-En.wav,Speaker2,گوینده۲,,,,,,,,,,,,,,,,0,6,6,37,,,,,63.096129833000305,,,,,,,,,,,,,,,,,,,,,,,,,,,,,,,,,,,,,,,,,,,,,63.07026491599754,63.096129833000305,63.096129833000305,63.096129833000305,63.096129833000305,63.10169308333255,63.096129833000305,63.096129833000305,63.386030833000405,Incorrect! The correct answer is Speaker2. نادرست! پاسخ صحیح گوینده۲ است,1,0.28692695800054935,None,0,7,63.39105441599895,63.405588915997214,65.3982072079998,,,,,,,,,,,,,,,,,,,,,,,876297,001,2024-06-30_14h59.01.813,5-24,2024.1.4,None,2024-06-30 14h59.09.934257 +0900,
Images/Speaker1.jpg,Images/Speaker2.jpg,Images/Speaker3.jpg,Images/Speaker4.jpg,Audio/Speaker2_En/P2-5-En.wav,Speaker2,گوینده۲,,,,,,,,,,,,,,,,0,7,7,24,,,,,65.42100916599884,,,,,,,,,,,,,,,,,,,,,,,,,,,,,,,,,,,,,,,,,,,,,65.39837679099946,65.42100916599884,65.42100916599884,65.42100916599884,65.42100916599884,65.41484033266558,65.42100916599884,65.42100916599884,65.56186754100054,Incorrect! The correct answer is Speaker2. نادرست! پاسخ صحیح گوینده۲ است,1,0.13602633299888112,None,0,8,65.56554137499916,65.5769506659999,67.56040212500011,67.58577308299937,,,,,,,,,,,,,,,,,,,,,,876297,001,2024-06-30_14h59.01.813,5-24,2024.1.4,None,2024-06-30 14h59.09.934257 +0900,
Images/Speaker1.jpg,Images/Speaker2.jpg,Images/Speaker3.jpg,Images/Speaker4.jpg,Audio/Speaker3_En/P3-18-En.wav,Speaker3,گوینده۳,,,,,,,,,,,,,,,,0,8,8,57,,,,,67.58577308299937,,,,,,,,,,,,,,,,,,,,,,,,,,,,,,,,,,,,,,,,,,,,,67.56056049999825,67.58577308299937,67.58577308299937,67.58577308299937,67.58577308299937,67.59313824933318,67.58577308299937,67.58577308299937,67.58635158299876,Incorrect! The correct answer is Speaker3. نادرست! پاسخ صحیح گوینده۳ است,1,2.1327561660000356,None,0,9,67.58681366599922,67.59710166600053,69.58297350000066,69.60739120799917,,,,,,,,,,,,,,,,,,,,,,876297,001,2024-06-30_14h59.01.813,5-24,2024.1.4,None,2024-06-30 14h59.09.934257 +0900,
Images/Speaker1.jpg,Images/Speaker2.jpg,Images/Speaker3.jpg,Images/Speaker4.jpg,Audio/Speaker3_En/P3-2-En.wav,Speaker3,گوینده۳,,,,,,,,,,,,,,,,0,9,9,41,,,,,69.60739120799917,,,,,,,,,,,,,,,,,,,,,,,,,,,,,,,,,,,,,,,,,,,,,69.58313941599772,69.60739120799917,69.60739120799917,69.60739120799917,69.60739120799917,69.6160577913329,69.60739120799917,69.60739120799917,69.60796958299761,Incorrect! The correct answer is Speaker3. نادرست! پاسخ صحیح گوینده۳ است,1,1.9787974159989972,None,0,10,69.60838524999781,69.61814524999863,71.60282658299911,71.62514783299775,,,,,,,,,,,,,,,,,,,,,,876297,001,2024-06-30_14h59.01.813,5-24,2024.1.4,None,2024-06-30 14h59.09.934257 +0900,
Images/Speaker1.jpg,Images/Speaker2.jpg,Images/Speaker3.jpg,Images/Speaker4.jpg,Audio/Speaker1_En/P1-20-En.wav,Speaker1,گوینده ۱,,,,,,,,,,,,,,,,0,10,10,19,,,,,71.62514783299775,,,,,,,,,,,,,,,,,,,,,,,,,,,,,,,,,,,,,,,,,,,,,71.6029759999983,71.62514783299775,71.62514783299775,71.62514783299775,71.62514783299775,71.61929458266629,71.62514783299775,71.62514783299775,71.63943350000045,Correct! صحیح است,1,0.005680583999492228,None,0,11,71.64341166599843,71.65384758299842,73.64089512499777,73.66381720799836,,,,,,,,,,,,,,,,,,,,,,876297,001,2024-06-30_14h59.01.813,5-24,2024.1.4,None,2024-06-30 14h59.09.934257 +0900,
Images/Speaker1.jpg,Images/Speaker2.jpg,Images/Speaker3.jpg,Images/Speaker4.jpg,Audio/Speaker1_En/P1-12-En.wav,Speaker1,گوینده ۱,,,,,,,,,,,,,,,,0,11,11,11,,,,,73.66381720799836,,,,,,,,,,,,,,,,,,,,,,,,,,,,,,,,,,,,,,,,,,,,,73.64109279100012,73.66381720799836,73.66381720799836,73.66381720799836,73.66381720799836,73.67402845833251,73.66381720799836,73.66381720799836,73.66444345799755,Correct! صحیح است,1,1.9677892090003297,None,0,12,73.66497549999985,73.67338904099961,75.66087574999983,75.68925837499773,,,,,,,,,,,,,,,,,,,,,,876297,001,2024-06-30_14h59.01.813,5-24,2024.1.4,None,2024-06-30 14h59.09.934257 +0900,
Images/Speaker1.jpg,Images/Speaker2.jpg,Images/Speaker3.jpg,Images/Speaker4.jpg,Audio/Speaker4_En/P4-3-En.wav,Speaker4,گوینده۴,,,,,,,,,,,,,,,,0,12,12,62,,,,,75.68925837499773,,,,,,,,,,,,,,,,,,,,,,,,,,,,,,,,,,,,,,,,,,,,,75.66176183299831,75.68925837499773,75.68925837499773,75.68925837499773,75.68925837499773,75.69322287433218,75.68925837499773,75.68925837499773,76.04932216599991,Incorrect! The correct answer is Speaker4. نادرست! پاسخ صحیح گوینده۴ است,1,0.3529218330004369,None,0,13,76.05440179099969,76.06795091599997,78.05068691599809,78.07448341599957,,,,,,,,,,,,,,,,,,,,,,876297,001,2024-06-30_14h59.01.813,5-24,2024.1.4,None,2024-06-30 14h59.09.934257 +0900,
Images/Speaker1.jpg,Images/Speaker2.jpg,Images/Speaker3.jpg,Images/Speaker4.jpg,Audio/Speaker1_En/P1-4-En.wav,Speaker1,گوینده ۱,,,,,,,,,,,,,,,,0,13,13,13,,,,,78.07448341599957,,,,,,,,,,,,,,,,,,,,,,,,,,,,,,,,,,,,,,,,,,,,,78.05089674999908,78.07448341599957,78.07448341599957,78.07448341599957,78.07448341599957,78.08372649933202,78.07448341599957,78.07448341599957,78.07505637500071,Correct! صحیح است,1,2.220289374999993,None,0,14,78.07528954100053,78.08367054100017,80.06839149999723,80.0912831659989,,,,,,,,,,,,,,,,,,,,,,876297,001,2024-06-30_14h59.01.813,5-24,2024.1.4,None,2024-06-30 14h59.09.934257 +0900,
Images/Speaker1.jpg,Images/Speaker2.jpg,Images/Speaker3.jpg,Images/Speaker4.jpg,Audio/Speaker4_En/P4-8-En.wav,Speaker4,گوینده۴,,,,,,,,,,,,,,,,0,14,14,67,,,,,80.0912831659989,,,,,,,,,,,,,,,,,,,,,,,,,,,,,,,,,,,,,,,,,,,,,80.06857370799844,80.0912831659989,80.0912831659989,80.0912831659989,80.0912831659989,80.08485883266646,80.0912831659989,80.0912831659989,80.26414066600046,Incorrect! The correct answer is Speaker4. نادرست! پاسخ صحیح گوینده۴ است,1,0.16608170900144614,None,0,15,80.26812995799992,80.2811039579974,82.2740345409984,,,,,,,,,,,,,,,,,,,,,,,876297,001,2024-06-30_14h59.01.813,5-24,2024.1.4,None,2024-06-30 14h59.09.934257 +0900,
Images/Speaker1.jpg,Images/Speaker2.jpg,Images/Speaker3.jpg,Images/Speaker4.jpg,Audio/Speaker2_En/P2-13-En.wav,Speaker2,گوینده۲,,,,,,,,,,,,,,,,0,15,15,32,,,,,82.29656966599941,,,,,,,,,,,,,,,,,,,,,,,,,,,,,,,,,,,,,,,,,,,,,82.27419954099969,82.29656966599941,82.29656966599941,82.29656966599941,82.29656966599941,82.29066345766502,82.29656966599941,82.29656966599941,82.47440912499951,Incorrect! The correct answer is Speaker2. نادرست! پاسخ صحیح گوینده۲ است,1,0.16875399999844376,None,0,16,82.47816445799981,82.49136312499832,84.48471479100044,,,,,,,,,,,,,,,,,,,,,,,876297,001,2024-06-30_14h59.01.813,5-24,2024.1.4,None,2024-06-30 14h59.09.934257 +0900,
Images/Speaker1.jpg,Images/Speaker2.jpg,Images/Speaker3.jpg,Images/Speaker4.jpg,Audio/Speaker4_En/P4-13-En.wav,Speaker4,گوینده۴,,,,,,,,,,,,,,,,0,16,16,72,,,,,84.5079514579993,,,,,,,,,,,,,,,,,,,,,,,,,,,,,,,,,,,,,,,,,,,,,84.48488537499725,84.5079514579993,84.5079514579993,84.5079514579993,84.5079514579993,84.50134416666721,84.5079514579993,84.5079514579993,84.69829370799926,Incorrect! The correct answer is Speaker4. نادرست! پاسخ صحیح گوینده۴ است,1,0.18445708299987018,None,0,17,84.7025384160006,84.71528124999895,86.6999478329999,86.722952832999,,,,,,,,,,,,,,,,,,,,,,876297,001,2024-06-30_14h59.01.813,5-24,2024.1.4,None,2024-06-30 14h59.09.934257 +0900,
Images/Speaker1.jpg,Images/Speaker2.jpg,Images/Speaker3.jpg,Images/Speaker4.jpg,Audio/Speaker1_En/P1-9-En.wav,Speaker1,گوینده ۱,,,,,,,,,,,,,,,,0,17,17,8,,,,,86.722952832999,,,,,,,,,,,,,,,,,,,,,,,,,,,,,,,,,,,,,,,,,,,,,86.70014204099789,86.722952832999,86.722952832999,86.722952832999,86.722952832999,86.7330537493331,86.722952832999,86.722952832999,86.90782279099949,Correct! صحیح است,1,0.17169970800023293,None,0,18,86.91165391599861,86.91998329099806,88.90280599999824,88.92640279099942,,,,,,,,,,,,,,,,,,,,,,876297,001,2024-06-30_14h59.01.813,5-24,2024.1.4,None,2024-06-30 14h59.09.934257 +0900,
Images/Speaker1.jpg,Images/Speaker2.jpg,Images/Speaker3.jpg,Images/Speaker4.jpg,Audio/Speaker4_En/P4-5-En.wav,Speaker4,گوینده۴,,,,,,,,,,,,,,,,0,18,18,64,,,,,88.92640279099942,,,,,,,,,,,,,,,,,,,,,,,,,,,,,,,,,,,,,,,,,,,,,88.90296345800016,88.92640279099942,88.92640279099942,88.92640279099942,88.92640279099942,88.93587129133132,88.92640279099942,88.92640279099942,89.11275891599871,Incorrect! The correct answer is Speaker4. نادرست! پاسخ صحیح گوینده۴ است,1,0.18526895899776719,None,0,19,89.11662133299978,89.12961449999784,91.12357616599911,,,,,,,,,,,,,,,,,,,,,,,876297,001,2024-06-30_14h59.01.813,5-24,2024.1.4,None,2024-06-30 14h59.09.934257 +0900,
Images/Speaker1.jpg,Images/Speaker2.jpg,Images/Speaker3.jpg,Images/Speaker4.jpg,Audio/Speaker2_En/P2-3-En.wav,Speaker2,گوینده۲,,,,,,,,,,,,,,,,0,19,19,22,,,,,91.14959883299889,,,,,,,,,,,,,,,,,,,,,,,,,,,,,,,,,,,,,,,,,,,,,91.12418579099904,91.14959883299889,91.14959883299889,91.14959883299889,91.14959883299889,91.15672437433071,91.14959883299889,91.14959883299889,91.16044187499938,Incorrect! The correct answer is Speaker2. نادرست! پاسخ صحیح گوینده۲ است,1,0.009412958002940286,None,0,20,91.16413162499884,91.17667929099844,93.16062579099889,93.18420166599753,,,,,,,,,,,,,,,,,,,,,,876297,001,2024-06-30_14h59.01.813,5-24,2024.1.4,None,2024-06-30 14h59.09.934257 +0900,
Images/Speaker1.jpg,Images/Speaker2.jpg,Images/Speaker3.jpg,Images/Speaker4.jpg,Audio/Speaker4_En/P4-1-En.wav,Speaker4,گوینده۴,,,,,,,,,,,,,,,,0,20,20,60,,,,,93.18420166599753,,,,,,,,,,,,,,,,,,,,,,,,,,,,,,,,,,,,,,,,,,,,,93.16078862499853,93.18420166599753,93.18420166599753,93.18420166599753,93.18420166599753,93.19370954133095,93.18420166599753,93.18420166599753,93.32291829099995,Incorrect! The correct answer is Speaker4. نادرست! پاسخ صحیح گوینده۴ است,1,0.13101308299883385,None,0,21,93.32692641599715,93.34026904100028,95.32603837499846,95.349609375,,,,,,,,,,,,,,,,,,,,,,876297,001,2024-06-30_14h59.01.813,5-24,2024.1.4,None,2024-06-30 14h59.09.934257 +0900,
Images/Speaker1.jpg,Images/Speaker2.jpg,Images/Speaker3.jpg,Images/Speaker4.jpg,Audio/Speaker3_En/P3-3-En.wav,Speaker3,گوینده۳,,,,,,,,,,,,,,,,0,21,21,42,,,,,95.349609375,,,,,,,,,,,,,,,,,,,,,,,,,,,,,,,,,,,,,,,,,,,,,95.32660670800033,95.349609375,95.349609375,95.349609375,95.349609375,95.35840133333161,95.349609375,95.349609375,95.35026412499792,Incorrect! The correct answer is Speaker3. نادرست! پاسخ صحیح گوینده۳ است,1,2.0600314579969563,None,0,22,95.35067049999998,95.36063133299831,97.34747570800027,97.37077720799789,,,,,,,,,,,,,,,,,,,,,,876297,001,2024-06-30_14h59.01.813,5-24,2024.1.4,None,2024-06-30 14h59.09.934257 +0900,
Images/Speaker1.jpg,Images/Speaker2.jpg,Images/Speaker3.jpg,Images/Speaker4.jpg,Audio/Speaker2_En/P2-6-En.wav,Speaker2,گوینده۲,,,,,,,,,,,,,,,,0,22,22,25,,,,,97.37077720799789,,,,,,,,,,,,,,,,,,,,,,,,,,,,,,,,,,,,,,,,,,,,,97.34764358299799,97.37077720799789,97.37077720799789,97.37077720799789,97.37077720799789,97.38055408333142,97.37077720799789,97.37077720799789,97.37136291599745,Incorrect! The correct answer is Speaker2. نادرست! پاسخ صحیح گوینده۲ است,1,1.9193798749984126,None,0,23,97.37161191599807,97.38135825000063,99.36953716599965,99.39808724999966,,,,,,,,,,,,,,,,,,,,,,876297,001,2024-06-30_14h59.01.813,5-24,2024.1.4,None,2024-06-30 14h59.09.934257 +0900,
Images/Speaker1.jpg,Images/Speaker2.jpg,Images/Speaker3.jpg,Images/Speaker4.jpg,Audio/Speaker4_En/P4-15-En.wav,Speaker4,گوینده۴,,,,,,,,,,,,,,,,0,23,23,74,,,,,99.39808724999966,,,,,,,,,,,,,,,,,,,,,,,,,,,,,,,,,,,,,,,,,,,,,99.37035220799953,99.39808724999966,99.39808724999966,99.39808724999966,99.39808724999966,99.40201933333131,99.39808724999966,99.39808724999966,99.39871208299883,Incorrect! The correct answer is Speaker4. نادرست! پاسخ صحیح گوینده۴ است,1,2.0159664999991946,None,0,24,99.40291791599884,99.4129265829979,101.4021697499993,101.42650495799899,,,,,,,,,,,,,,,,,,,,,,876297,001,2024-06-30_14h59.01.813,5-24,2024.1.4,None,2024-06-30 14h59.09.934257 +0900,
Images/Speaker1.jpg,Images/Speaker2.jpg,Images/Speaker3.jpg,Images/Speaker4.jpg,Audio/Speaker1_En/P1-13-En.wav,Speaker1,گوینده ۱,,,,,,,,,,,,,,,,0,24,24,12,,,,,101.42650495799899,,,,,,,,,,,,,,,,,,,,,,,,,,,,,,,,,,,,,,,,,,,,,101.40321220799888,101.42650495799899,101.42650495799899,101.42650495799899,101.42650495799899,101.43454083333248,101.42650495799899,101.42650495799899,101.67967729099837,Correct! صحیح است,1,0.24563762500110897,None,0,25,101.68385741599923,101.6950471659984,103.68334362499809,103.70870429099887,,,,,,,,,,,,,,,,,,,,,,876297,001,2024-06-30_14h59.01.813,5-24,2024.1.4,None,2024-06-30 14h59.09.934257 +0900,
Images/Speaker1.jpg,Images/Speaker2.jpg,Images/Speaker3.jpg,Images/Speaker4.jpg,Audio/Speaker1_En/P1-17-En.wav,Speaker1,گوینده ۱,,,,,,,,,,,,,,,,0,25,25,16,,,,,103.70870429099887,,,,,,,,,,,,,,,,,,,,,,,,,,,,,,,,,,,,,,,,,,,,,103.68354279099731,103.70870429099887,103.70870429099887,103.70870429099887,103.70870429099887,103.71643974933298,103.70870429099887,103.70870429099887,103.94007683299787,Correct! صحیح است,1,0.22694416599915712,None,0,26,103.94389054099884,103.95571524999832,105.94793258299978,,,,,,,,,,,,,,,,,,,,,,,876297,001,2024-06-30_14h59.01.813,5-24,2024.1.4,None,2024-06-30 14h59.09.934257 +0900,
Images/Speaker1.jpg,Images/Speaker2.jpg,Images/Speaker3.jpg,Images/Speaker4.jpg,Audio/Speaker4_En/P4-11-En.wav,Speaker4,گوینده۴,,,,,,,,,,,,,,,,0,26,26,70,,,,,105.9714287909992,,,,,,,,,,,,,,,,,,,,,,,,,,,,,,,,,,,,,,,,,,,,,105.94811149999805,105.9714287909992,105.9714287909992,105.9714287909992,105.9714287909992,105.98122558333174,105.9714287909992,105.9714287909992,105.982549458,Incorrect! The correct answer is Speaker4. نادرست! پاسخ صحیح گوینده۴ است,1,0.00918354099849239,None,0,27,105.98636566599816,105.99828316599815,107.99166395800057,,,,,,,,,,,,,,,,,,,,,,,876297,001,2024-06-30_14h59.01.813,5-24,2024.1.4,None,2024-06-30 14h59.09.934257 +0900,
Images/Speaker1.jpg,Images/Speaker2.jpg,Images/Speaker3.jpg,Images/Speaker4.jpg,Audio/Speaker1_En/P1-19-En.wav,Speaker1,گوینده ۱,,,,,,,,,,,,,,,,0,27,27,18,,,,,108.01806654100074,,,,,,,,,,,,,,,,,,,,,,,,,,,,,,,,,,,,,,,,,,,,,107.99182849999852,108.01806654100074,108.01806654100074,108.01806654100074,108.01806654100074,108.02496341633062,108.01806654100074,108.01806654100074,108.01869412499946,Correct! صحیح است,1,2.0348597079973842,None,0,28,108.01919520799856,108.02712837500076,110.01662125000075,110.04063095799938,,,,,,,,,,,,,,,,,,,,,,876297,001,2024-06-30_14h59.01.813,5-24,2024.1.4,None,2024-06-30 14h59.09.934257 +0900,
Images/Speaker1.jpg,Images/Speaker2.jpg,Images/Speaker3.jpg,Images/Speaker4.jpg,Audio/Speaker3_En/P3-8-En.wav,Speaker3,گوینده۳,,,,,,,,,,,,,,,,0,28,28,47,,,,,110.04063095799938,,,,,,,,,,,,,,,,,,,,,,,,,,,,,,,,,,,,,,,,,,,,,110.01725533299759,110.04063095799938,110.04063095799938,110.04063095799938,110.04063095799938,110.04906516633176,110.04063095799938,110.04063095799938,110.04673645799994,Incorrect! The correct answer is Speaker3. نادرست! پاسخ صحیح گوینده۳ است,1,0.0024462080000375863,None,0,29,110.0507840829996,110.06316841599983,112.04951458299911,112.07220849999794,,,,,,,,,,,,,,,,,,,,,,876297,001,2024-06-30_14h59.01.813,5-24,2024.1.4,None,2024-06-30 14h59.09.934257 +0900,
Images/Speaker1.jpg,Images/Speaker2.jpg,Images/Speaker3.jpg,Images/Speaker4.jpg,Audio/Speaker2_En/P2-8-En.wav,Speaker2,گوینده۲,,,,,,,,,,,,,,,,0,29,29,27,,,,,112.07220849999794,,,,,,,,,,,,,,,,,,,,,,,,,,,,,,,,,,,,,,,,,,,,,112.04974458300057,112.07220849999794,112.07220849999794,112.07220849999794,112.07220849999794,112.06595212466733,112.07220849999794,112.07220849999794,112.07280620799793,Incorrect! The correct answer is Speaker2. نادرست! پاسخ صحیح گوینده۲ است,1,1.9918857909979124,None,0,30,112.07669729099871,112.08627049999996,114.0833227080002,,,,,,,,,,,,,,,,,,,,,,,876297,001,2024-06-30_14h59.01.813,5-24,2024.1.4,None,2024-06-30 14h59.09.934257 +0900,
Images/Speaker1.jpg,Images/Speaker2.jpg,Images/Speaker3.jpg,Images/Speaker4.jpg,Audio/Speaker3_En/P3-10-En.wav,Speaker3,گوینده۳,,,,,,,,,,,,,,,,0,30,30,49,,,,,114.1076950409988,,,,,,,,,,,,,,,,,,,,,,,,,,,,,,,,,,,,,,,,,,,,,114.08353079099834,114.1076950409988,114.1076950409988,114.1076950409988,114.1076950409988,114.11661895833143,114.1076950409988,114.1076950409988,114.4533624579999,Incorrect! The correct answer is Speaker3. نادرست! پاسخ صحیح گوینده۳ است,1,0.33527425000283984,None,0,31,114.45738454099774,114.46823987499738,116.45153970799947,116.47656862499935,,,,,,,,,,,,,,,,,,,,,,876297,001,2024-06-30_14h59.01.813,5-24,2024.1.4,None,2024-06-30 14h59.09.934257 +0900,
Images/Speaker1.jpg,Images/Speaker2.jpg,Images/Speaker3.jpg,Images/Speaker4.jpg,Audio/Speaker2_En/P2-14-En.wav,Speaker2,گوینده۲,,,,,,,,,,,,,,,,0,31,31,33,,,,,116.47656862499935,,,,,,,,,,,,,,,,,,,,,,,,,,,,,,,,,,,,,,,,,,,,,116.45233716599978,116.47656862499935,116.47656862499935,116.47656862499935,116.47656862499935,116.48398491633318,116.47656862499935,116.47656862499935,116.63192266599799,Incorrect! The correct answer is Speaker2. نادرست! پاسخ صحیح گوینده۲ است,1,0.1497061659974861,None,0,32,116.6359501659972,116.6486207079979,118.64172883299761,,,,,,,,,,,,,,,,,,,,,,,876297,001,2024-06-30_14h59.01.813,5-24,2024.1.4,None,2024-06-30 14h59.09.934257 +0900,
Images/Speaker1.jpg,Images/Speaker2.jpg,Images/Speaker3.jpg,Images/Speaker4.jpg,Audio/Speaker1_En/P1-15-En.wav,Speaker1,گوینده ۱,,,,,,,,,,,,,,,,0,32,32,14,,,,,118.66539233299773,,,,,,,,,,,,,,,,,,,,,,,,,,,,,,,,,,,,,,,,,,,,,118.64193587499904,118.66539233299773,118.66539233299773,118.66539233299773,118.66539233299773,118.67501524933371,118.66539233299773,118.66539233299773,118.7314093749992,Correct! صحیح است,1,0.06494895799914957,None,0,33,118.735474582998,118.74633854099739,120.73433541600025,120.76025808299892,,,,,,,,,,,,,,,,,,,,,,876297,001,2024-06-30_14h59.01.813,5-24,2024.1.4,None,2024-06-30 14h59.09.934257 +0900,
Images/Speaker1.jpg,Images/Speaker2.jpg,Images/Speaker3.jpg,Images/Speaker4.jpg,Audio/Speaker1_En/P1-18-En.wav,Speaker1,گوینده ۱,,,,,,,,,,,,,,,,0,33,33,17,,,,,120.76025808299892,,,,,,,,,,,,,,,,,,,,,,,,,,,,,,,,,,,,,,,,,,,,,120.73491983299755,120.76025808299892,120.76025808299892,120.76025808299892,120.76025808299892,120.76654254133294,120.76025808299892,120.76025808299892,120.85352287500064,Correct! صحیح است,1,0.09223383300195565,None,0,34,120.85768779099817,120.86828520799827,122.85427962500034,122.8784215409978,,,,,,,,,,,,,,,,,,,,,,876297,001,2024-06-30_14h59.01.813,5-24,2024.1.4,None,2024-06-30 14h59.09.934257 +0900,
Images/Speaker1.jpg,Images/Speaker2.jpg,Images/Speaker3.jpg,Images/Speaker4.jpg,Audio/Speaker2_En/P2-16-En.wav,Speaker2,گوینده۲,,,,,,,,,,,,,,,,0,34,34,35,,,,,122.8784215409978,,,,,,,,,,,,,,,,,,,,,,,,,,,,,,,,,,,,,,,,,,,,,122.855245499999,122.8784215409978,122.8784215409978,122.8784215409978,122.8784215409978,122.88667970833242,122.8784215409978,122.8784215409978,123.07683937500042,Incorrect! The correct answer is Speaker2. نادرست! پاسخ صحیح گوینده۲ است,1,0.19302983300076448,None,0,35,123.08089620799728,123.09363345800011,125.08309983299841,,,,,,,,,,,,,,,,,,,,,,,876297,001,2024-06-30_14h59.01.813,5-24,2024.1.4,None,2024-06-30 14h59.09.934257 +0900,
Images/Speaker1.jpg,Images/Speaker2.jpg,Images/Speaker3.jpg,Images/Speaker4.jpg,Audio/Speaker2_En/P2-4-En.wav,Speaker2,گوینده۲,,,,,,,,,,,,,,,,0,35,35,23,,,,,125.10565804100042,,,,,,,,,,,,,,,,,,,,,,,,,,,,,,,,,,,,,,,,,,,,,125.08327116600049,125.10565804100042,125.10565804100042,125.10565804100042,125.10565804100042,125.0997308326662,125.10565804100042,125.10565804100042,125.16687487499803,Incorrect! The correct answer is Speaker2. نادرست! پاسخ صحیح گوینده۲ است,1,0.05886454100254923,None,0,36,125.17114604100061,125.1834715829973,127.17317137499776,,,,,,,,,,,,,,,,,,,,,,,876297,001,2024-06-30_14h59.01.813,5-24,2024.1.4,None,2024-06-30 14h59.09.934257 +0900,
Images/Speaker1.jpg,Images/Speaker2.jpg,Images/Speaker3.jpg,Images/Speaker4.jpg,Audio/Speaker2_En/P2-11-En.wav,Speaker2,گوینده۲,,,,,,,,,,,,,,,,0,36,36,30,,,,,127.2002987909982,,,,,,,,,,,,,,,,,,,,,,,,,,,,,,,,,,,,,,,,,,,,,127.17368570799954,127.2002987909982,127.2002987909982,127.2002987909982,127.2002987909982,127.20636654133389,127.2002987909982,127.2002987909982,127.41236362500058,Incorrect! The correct answer is Speaker2. نادرست! پاسخ صحیح گوینده۲ است,1,0.20889070799967158,None,0,37,127.41619020799772,127.42900258299778,129.41466995799783,129.4383124579981,,,,,,,,,,,,,,,,,,,,,,876297,001,2024-06-30_14h59.01.813,5-24,2024.1.4,None,2024-06-30 14h59.09.934257 +0900,
Images/Speaker1.jpg,Images/Speaker2.jpg,Images/Speaker3.jpg,Images/Speaker4.jpg,Audio/Speaker3_En/P3-9-En.wav,Speaker3,گوینده۳,,,,,,,,,,,,,,,,0,37,37,48,,,,,129.4383124579981,,,,,,,,,,,,,,,,,,,,,,,,,,,,,,,,,,,,,,,,,,,,,129.4148691249975,129.4383124579981,129.4383124579981,129.4383124579981,129.4383124579981,129.447744791331,129.4383124579981,129.4383124579981,129.56474487499872,Incorrect! The correct answer is Speaker3. نادرست! پاسخ صحیح گوینده۳ است,1,0.12307579199841712,None,0,38,129.56868979099818,129.58121120799842,131.5655208749995,131.58900691599774,,,,,,,,,,,,,,,,,,,,,,876297,001,2024-06-30_14h59.01.813,5-24,2024.1.4,None,2024-06-30 14h59.09.934257 +0900,
Images/Speaker1.jpg,Images/Speaker2.jpg,Images/Speaker3.jpg,Images/Speaker4.jpg,Audio/Speaker3_En/P3-6-En.wav,Speaker3,گوینده۳,,,,,,,,,,,,,,,,0,38,38,45,,,,,131.58900691599774,,,,,,,,,,,,,,,,,,,,,,,,,,,,,,,,,,,,,,,,,,,,,131.56568541600063,131.58900691599774,131.58900691599774,131.58900691599774,131.58900691599774,131.598593749332,131.58900691599774,131.58900691599774,131.73190908299875,Incorrect! The correct answer is Speaker3. نادرست! پاسخ صحیح گوینده۳ است,1,0.13423283300289768,None,0,39,131.73588041599942,131.74850595799944,133.74207166599808,,,,,,,,,,,,,,,,,,,,,,,876297,001,2024-06-30_14h59.01.813,5-24,2024.1.4,None,2024-06-30 14h59.09.934257 +0900,
Images/Speaker1.jpg,Images/Speaker2.jpg,Images/Speaker3.jpg,Images/Speaker4.jpg,Audio/Speaker4_En/P4-4-En.wav,Speaker4,گوینده۴,,,,,,,,,,,,,,,,0,39,39,63,,,,,133.76941149999766,,,,,,,,,,,,,,,,,,,,,,,,,,,,,,,,,,,,,,,,,,,,,133.7427139579995,133.76941149999766,133.76941149999766,133.76941149999766,133.76941149999766,133.7751773743335,133.76941149999766,133.76941149999766,133.76999195799726,Incorrect! The correct answer is Speaker4. نادرست! پاسخ صحیح گوینده۴ است,1,2.09328854100022,None,0,40,133.77022637499977,133.7803640409984,135.7681777079997,135.79335625000022,,,,,,,,,,,,,,,,,,,,,,876297,001,2024-06-30_14h59.01.813,5-24,2024.1.4,None,2024-06-30 14h59.09.934257 +0900,
Images/Speaker1.jpg,Images/Speaker2.jpg,Images/Speaker3.jpg,Images/Speaker4.jpg,Audio/Speaker3_En/P3-15-En.wav,Speaker3,گوینده۳,,,,,,,,,,,,,,,,0,40,40,54,,,,,135.79335625000022,,,,,,,,,,,,,,,,,,,,,,,,,,,,,,,,,,,,,,,,,,,,,135.76905341599922,135.79335625000022,135.79335625000022,135.79335625000022,135.79335625000022,135.80056979133275,135.79335625000022,135.79335625000022,136.09827391599902,Incorrect! The correct answer is Speaker3. نادرست! پاسخ صحیح گوینده۳ است,1,0.2944836669994402,None,0,41,136.10339045799992,136.1173232910005,138.1078733329996,,,,,,,,,,,,,,,,,,,,,,,876297,001,2024-06-30_14h59.01.813,5-24,2024.1.4,None,2024-06-30 14h59.09.934257 +0900,
Images/Speaker1.jpg,Images/Speaker2.jpg,Images/Speaker3.jpg,Images/Speaker4.jpg,Audio/Speaker2_En/P2-17-En.wav,Speaker2,گوینده۲,,,,,,,,,,,,,,,,0,41,41,36,,,,,138.13162833299793,,,,,,,,,,,,,,,,,,,,,,,,,,,,,,,,,,,,,,,,,,,,,138.10843737499818,138.13162833299793,138.13162833299793,138.13162833299793,138.13162833299793,138.14106116633099,138.13162833299793,138.13162833299793,138.15423629100042,Incorrect! The correct answer is Speaker2. نادرست! پاسخ صحیح گوینده۲ است,1,0.019490457998472266,None,0,42,138.1581204159993,138.17084695800077,140.1609670830003,,,,,,,,,,,,,,,,,,,,,,,876297,001,2024-06-30_14h59.01.813,5-24,2024.1.4,None,2024-06-30 14h59.09.934257 +0900,
Images/Speaker1.jpg,Images/Speaker2.jpg,Images/Speaker3.jpg,Images/Speaker4.jpg,Audio/Speaker3_En/P3-4-En.wav,Speaker3,گوینده۳,,,,,,,,,,,,,,,,0,42,42,43,,,,,140.1844692079976,,,,,,,,,,,,,,,,,,,,,,,,,,,,,,,,,,,,,,,,,,,,,140.16113458299878,140.1844692079976,140.1844692079976,140.1844692079976,140.1844692079976,140.1942623333312,140.1844692079976,140.1844692079976,140.18515608300004,Incorrect! The correct answer is Speaker3. نادرست! پاسخ صحیح گوینده۳ است,1,1.966321167001297,None,0,43,140.18559287499738,140.19487812499938,142.18481191599858,142.2098734579995,,,,,,,,,,,,,,,,,,,,,,876297,001,2024-06-30_14h59.01.813,5-24,2024.1.4,None,2024-06-30 14h59.09.934257 +0900,
Images/Speaker1.jpg,Images/Speaker2.jpg,Images/Speaker3.jpg,Images/Speaker4.jpg,Audio/Speaker2_En/P2-1-En.wav,Speaker2,گوینده۲,,,,,,,,,,,,,,,,0,43,43,20,,,,,142.2098734579995,,,,,,,,,,,,,,,,,,,,,,,,,,,,,,,,,,,,,,,,,,,,,142.1855128749994,142.2098734579995,142.2098734579995,142.2098734579995,142.2098734579995,142.21714491633298,142.2098734579995,142.2098734579995,142.21048549999978,Incorrect! The correct answer is Speaker2. نادرست! پاسخ صحیح گوینده۲ است,1,1.9138307079992956,None,0,44,142.21095449999848,142.2209319579997,144.21079712500068,144.23611241599792,,,,,,,,,,,,,,,,,,,,,,876297,001,2024-06-30_14h59.01.813,5-24,2024.1.4,None,2024-06-30 14h59.09.934257 +0900,
Images/Speaker1.jpg,Images/Speaker2.jpg,Images/Speaker3.jpg,Images/Speaker4.jpg,Audio/Speaker1_En/P1-2-En.wav,Speaker1,گوینده ۱,,,,,,,,,,,,,,,,0,44,44,1,,,,,144.23611241599792,,,,,,,,,,,,,,,,,,,,,,,,,,,,,,,,,,,,,,,,,,,,,144.21170895799878,144.23611241599792,144.23611241599792,144.23611241599792,144.23611241599792,144.24320062433304,144.23611241599792,144.23611241599792,144.3246959579992,Correct! صحیح است,1,0.08152945899928454,None,0,45,144.32845199999792,144.33934837500055,146.32590754099874,146.35528874999727,,,,,,,,,,,,,,,,,,,,,,876297,001,2024-06-30_14h59.01.813,5-24,2024.1.4,None,2024-06-30 14h59.09.934257 +0900,
Images/Speaker1.jpg,Images/Speaker2.jpg,Images/Speaker3.jpg,Images/Speaker4.jpg,Audio/Speaker1_En/P1-16-En.wav,Speaker1,گوینده ۱,,,,,,,,,,,,,,,,0,45,45,15,,,,,146.35528874999727,,,,,,,,,,,,,,,,,,,,,,,,,,,,,,,,,,,,,,,,,,,,,146.32648570799938,146.35528874999727,146.35528874999727,146.35528874999727,146.35528874999727,146.35833291633077,146.35528874999727,146.35528874999727,146.35590483299893,Correct! صحیح است,1,2.0990667500009295,None,0,46,146.3600325410007,146.36864762500045,148.36248441600037,,,,,,,,,,,,,,,,,,,,,,,876297,001,2024-06-30_14h59.01.813,5-24,2024.1.4,None,2024-06-30 14h59.09.934257 +0900,
Images/Speaker1.jpg,Images/Speaker2.jpg,Images/Speaker3.jpg,Images/Speaker4.jpg,Audio/Speaker4_En/P4-7-En.wav,Speaker4,گوینده۴,,,,,,,,,,,,,,,,0,46,46,66,,,,,148.38803025000016,,,,,,,,,,,,,,,,,,,,,,,,,,,,,,,,,,,,,,,,,,,,,148.363111415998,148.38803025000016,148.38803025000016,148.38803025000016,148.38803025000016,148.39563304133168,148.38803025000016,148.38803025000016,148.42465483299748,Incorrect! The correct answer is Speaker4. نادرست! پاسخ صحیح گوینده۴ است,1,0.03321695799968438,None,0,47,148.42844112499733,148.44105395799852,150.42809583299822,150.4508309999983,,,,,,,,,,,,,,,,,,,,,,876297,001,2024-06-30_14h59.01.813,5-24,2024.1.4,None,2024-06-30 14h59.09.934257 +0900,
Images/Speaker1.jpg,Images/Speaker2.jpg,Images/Speaker3.jpg,Images/Speaker4.jpg,Audio/Speaker2_En/P2-19-En.wav,Speaker2,گوینده۲,,,,,,,,,,,,,,,,0,47,47,38,,,,,150.4508309999983,,,,,,,,,,,,,,,,,,,,,,,,,,,,,,,,,,,,,,,,,,,,,150.42826766600047,150.4508309999983,150.4508309999983,150.4508309999983,150.4508309999983,150.44448174966627,150.4508309999983,150.4508309999983,150.54408170799798,Incorrect! The correct answer is Speaker2. نادرست! پاسخ صحیح گوینده۲ است,1,0.09186775000125635,None,0,48,150.5481734999994,150.56121749999875,152.54678287500064,152.57545820799714,,,,,,,,,,,,,,,,,,,,,,876297,001,2024-06-30_14h59.01.813,5-24,2024.1.4,None,2024-06-30 14h59.09.934257 +0900,
Images/Speaker1.jpg,Images/Speaker2.jpg,Images/Speaker3.jpg,Images/Speaker4.jpg,Audio/Speaker4_En/P4-20-En.wav,Speaker4,گوینده۴,,,,,,,,,,,,,,,,0,48,48,79,,,,,152.57545820799714,,,,,,,,,,,,,,,,,,,,,,,,,,,,,,,,,,,,,,,,,,,,,152.54735579099724,152.57545820799714,152.57545820799714,152.57545820799714,152.57545820799714,152.5792419583309,152.57545820799714,152.57545820799714,152.72620883299896,Incorrect! The correct answer is Speaker4. نادرست! پاسخ صحیح گوینده۴ است,1,None,None,0,49,152.73061824999968,152.74197866599934,154.7293569579997,154.7522629999985,,,,,,,,,,,,,,,,,,,,,,876297,001,2024-06-30_14h59.01.813,5-24,2024.1.4,None,2024-06-30 14h59.09.934257 +0900,
Images/Speaker1.jpg,Images/Speaker2.jpg,Images/Speaker3.jpg,Images/Speaker4.jpg,Audio/Speaker2_En/P2-7-En.wav,Speaker2,گوینده۲,,,,,,,,,,,,,,,,0,49,49,26,,,,,154.7522629999985,,,,,,,,,,,,,,,,,,,,,,,,,,,,,,,,,,,,,,,,,,,,,154.72956195799998,154.7522629999985,154.7522629999985,154.7522629999985,154.7522629999985,154.76240395833207,154.7522629999985,154.7522629999985,155.03018574999805,Incorrect! The correct answer is Speaker2. نادرست! پاسخ صحیح گوینده۲ است,1,0.2694677920007962,None,0,50,155.034136708,155.04474304099858,157.03046229100073,157.0546985000001,,,,,,,,,,,,,,,,,,,,,,876297,001,2024-06-30_14h59.01.813,5-24,2024.1.4,None,2024-06-30 14h59.09.934257 +0900,
Images/Speaker1.jpg,Images/Speaker2.jpg,Images/Speaker3.jpg,Images/Speaker4.jpg,Audio/Speaker1_En/P1-10-En.wav,Speaker1,گوینده ۱,,,,,,,,,,,,,,,,0,50,50,9,,,,,157.0546985000001,,,,,,,,,,,,,,,,,,,,,,,,,,,,,,,,,,,,,,,,,,,,,157.03110195800036,157.0546985000001,157.0546985000001,157.0546985000001,157.0546985000001,157.06281570833067,157.0546985000001,157.0546985000001,157.24464033299955,Correct! صحیح است,1,0.18423458399774972,None,0,51,157.24946949999867,157.26266020799812,159.25623945799816,,,,,,,,,,,,,,,,,,,,,,,876297,001,2024-06-30_14h59.01.813,5-24,2024.1.4,None,2024-06-30 14h59.09.934257 +0900,
Images/Speaker1.jpg,Images/Speaker2.jpg,Images/Speaker3.jpg,Images/Speaker4.jpg,Audio/Speaker1_En/P1-11-En.wav,Speaker1,گوینده ۱,,,,,,,,,,,,,,,,0,51,51,10,,,,,159.28341220799848,,,,,,,,,,,,,,,,,,,,,,,,,,,,,,,,,,,,,,,,,,,,,159.25690637499793,159.28341220799848,159.28341220799848,159.28341220799848,159.28341220799848,159.28941074933078,159.28341220799848,159.28341220799848,159.28400945799876,Correct! صحیح است,1,2.217778874997748,None,0,52,159.28444870800013,159.2931914159999,161.27872670799843,161.30042795799818,,,,,,,,,,,,,,,,,,,,,,876297,001,2024-06-30_14h59.01.813,5-24,2024.1.4,None,2024-06-30 14h59.09.934257 +0900,
Images/Speaker1.jpg,Images/Speaker2.jpg,Images/Speaker3.jpg,Images/Speaker4.jpg,Audio/Speaker2_En/P2-10-En.wav,Speaker2,گوینده۲,,,,,,,,,,,,,,,,0,52,52,29,,,,,161.30042795799818,,,,,,,,,,,,,,,,,,,,,,,,,,,,,,,,,,,,,,,,,,,,,161.2788773329994,161.30042795799818,161.30042795799818,161.30042795799818,161.30042795799818,161.29518837466483,161.30042795799818,161.30042795799818,161.4856156249989,Incorrect! The correct answer is Speaker2. نادرست! پاسخ صحیح گوینده۲ است,1,0.17481479100024444,None,0,53,161.4894476249974,161.50224545799938,163.4896912080003,,,,,,,,,,,,,,,,,,,,,,,876297,001,2024-06-30_14h59.01.813,5-24,2024.1.4,None,2024-06-30 14h59.09.934257 +0900,
Images/Speaker1.jpg,Images/Speaker2.jpg,Images/Speaker3.jpg,Images/Speaker4.jpg,Audio/Speaker3_En/P3-12-En.wav,Speaker3,گوینده۳,,,,,,,,,,,,,,,,0,53,53,51,,,,,163.51957304099778,,,,,,,,,,,,,,,,,,,,,,,,,,,,,,,,,,,,,,,,,,,,,163.49038679099976,163.51957304099778,163.51957304099778,163.51957304099778,163.51957304099778,163.52286329133182,163.51957304099778,163.51957304099778,163.52017395800067,Incorrect! The correct answer is Speaker3. نادرست! پاسخ صحیح گوینده۳ است,1,2.177665082999738,None,0,54,163.5241644159978,163.5340502500003,165.519818165998,165.54255724999894,,,,,,,,,,,,,,,,,,,,,,876297,001,2024-06-30_14h59.01.813,5-24,2024.1.4,None,2024-06-30 14h59.09.934257 +0900,
Images/Speaker1.jpg,Images/Speaker2.jpg,Images/Speaker3.jpg,Images/Speaker4.jpg,Audio/Speaker3_En/P3-5-En.wav,Speaker3,گوینده۳,,,,,,,,,,,,,,,,0,54,54,44,,,,,165.54255724999894,,,,,,,,,,,,,,,,,,,,,,,,,,,,,,,,,,,,,,,,,,,,,165.52000812500046,165.54255724999894,165.54255724999894,165.54255724999894,165.54255724999894,165.5361995416645,165.54255724999894,165.54255724999894,165.68947750000007,Incorrect! The correct answer is Speaker3. نادرست! پاسخ صحیح گوینده۳ است,1,0.14460241699998733,None,0,55,165.69315820799966,165.70545120799943,167.6971832499985,,,,,,,,,,,,,,,,,,,,,,,876297,001,2024-06-30_14h59.01.813,5-24,2024.1.4,None,2024-06-30 14h59.09.934257 +0900,
Images/Speaker1.jpg,Images/Speaker2.jpg,Images/Speaker3.jpg,Images/Speaker4.jpg,Audio/Speaker2_En/P2-12-En.wav,Speaker2,گوینده۲,,,,,,,,,,,,,,,,0,55,55,31,,,,,167.72299558300074,,,,,,,,,,,,,,,,,,,,,,,,,,,,,,,,,,,,,,,,,,,,,167.69770787499874,167.72299558300074,167.72299558300074,167.72299558300074,167.72299558300074,167.73035791633134,167.72299558300074,167.72299558300074,167.86161016599726,Incorrect! The correct answer is Speaker2. نادرست! پاسخ صحیح گوینده۲ است,1,0.13166166700102622,None,0,56,167.86575325000013,167.87862191599925,169.86352804099806,169.88950687499892,,,,,,,,,,,,,,,,,,,,,,876297,001,2024-06-30_14h59.01.813,5-24,2024.1.4,None,2024-06-30 14h59.09.934257 +0900,
Images/Speaker1.jpg,Images/Speaker2.jpg,Images/Speaker3.jpg,Images/Speaker4.jpg,Audio/Speaker1_En/P1-1-En.wav,Speaker1,گوینده ۱,,,,,,,,,,,,,,,,0,56,56,0,,,,,169.88950687499892,,,,,,,,,,,,,,,,,,,,,,,,,,,,,,,,,,,,,,,,,,,,,169.8640854160003,169.88950687499892,169.88950687499892,169.88950687499892,169.88950687499892,169.89585283333196,169.88950687499892,169.88950687499892,169.92704437499924,Correct! صحیح است,1,0.03366249999817228,None,0,57,169.93102554099823,169.94186941599764,171.930005582999,171.95572512500075,,,,,,,,,,,,,,,,,,,,,,876297,001,2024-06-30_14h59.01.813,5-24,2024.1.4,None,2024-06-30 14h59.09.934257 +0900,
Images/Speaker1.jpg,Images/Speaker2.jpg,Images/Speaker3.jpg,Images/Speaker4.jpg,Audio/Speaker3_En/P3-16-En.wav,Speaker3,گوینده۳,,,,,,,,,,,,,,,,0,57,57,55,,,,,171.95572512500075,,,,,,,,,,,,,,,,,,,,,,,,,,,,,,,,,,,,,,,,,,,,,171.9301943749997,171.95572512500075,171.95572512500075,171.95572512500075,171.95572512500075,171.96160420833309,171.95572512500075,171.95572512500075,171.95635304099778,Incorrect! The correct answer is Speaker3. نادرست! پاسخ صحیح گوینده۳ است,1,2.0291023749996384,None,0,58,171.95666162499765,171.96652125000037,173.95136512499812,173.97345470800065,,,,,,,,,,,,,,,,,,,,,,876297,001,2024-06-30_14h59.01.813,5-24,2024.1.4,None,2024-06-30 14h59.09.934257 +0900,
Images/Speaker1.jpg,Images/Speaker2.jpg,Images/Speaker3.jpg,Images/Speaker4.jpg,Audio/Speaker4_En/P4-10-En.wav,Speaker4,گوینده۴,,,,,,,,,,,,,,,,0,58,58,69,,,,,173.97345470800065,,,,,,,,,,,,,,,,,,,,,,,,,,,,,,,,,,,,,,,,,,,,,173.95152620799854,173.97345470800065,173.97345470800065,173.97345470800065,173.97345470800065,173.96781237466737,173.97345470800065,173.97345470800065,174.0104138329989,Incorrect! The correct answer is Speaker4. نادرست! پاسخ صحیح گوینده۴ است,1,0.03312016700147069,None,0,59,174.0144846660005,174.02719254099793,176.01219979099915,176.03561058299965,,,,,,,,,,,,,,,,,,,,,,876297,001,2024-06-30_14h59.01.813,5-24,2024.1.4,None,2024-06-30 14h59.09.934257 +0900,
Images/Speaker1.jpg,Images/Speaker2.jpg,Images/Speaker3.jpg,Images/Speaker4.jpg,Audio/Speaker4_En/P4-2-En.wav,Speaker4,گوینده۴,,,,,,,,,,,,,,,,0,59,59,61,,,,,176.03561058299965,,,,,,,,,,,,,,,,,,,,,,,,,,,,,,,,,,,,,,,,,,,,,176.01239945799898,176.03561058299965,176.03561058299965,176.03561058299965,176.03561058299965,176.04523545833268,176.03561058299965,176.03561058299965,176.03617729100006,Incorrect! The correct answer is Speaker4. نادرست! پاسخ صحیح گوینده۴ است,1,2.0293601250014035,None,0,60,176.03636670799824,176.0463395000006,178.0339141660006,178.05624766599794,,,,,,,,,,,,,,,,,,,,,,876297,001,2024-06-30_14h59.01.813,5-24,2024.1.4,None,2024-06-30 14h59.09.934257 +0900,
Images/Speaker1.jpg,Images/Speaker2.jpg,Images/Speaker3.jpg,Images/Speaker4.jpg,Audio/Speaker2_En/P2-9-En.wav,Speaker2,گوینده۲,,,,,,,,,,,,,,,,0,60,60,28,,,,,178.05624766599794,,,,,,,,,,,,,,,,,,,,,,,,,,,,,,,,,,,,,,,,,,,,,178.03407420800067,178.05624766599794,178.05624766599794,178.05624766599794,178.05624766599794,178.05033537466468,178.05624766599794,178.05624766599794,178.21870770799796,Incorrect! The correct answer is Speaker2. نادرست! پاسخ صحیح گوینده۲ است,1,0.15954212499855203,None,0,61,178.22293962500044,178.2362339579995,180.22135649999836,180.2456027909975,,,,,,,,,,,,,,,,,,,,,,876297,001,2024-06-30_14h59.01.813,5-24,2024.1.4,None,2024-06-30 14h59.09.934257 +0900,
Images/Speaker1.jpg,Images/Speaker2.jpg,Images/Speaker3.jpg,Images/Speaker4.jpg,Audio/Speaker3_En/P3-19-En.wav,Speaker3,گوینده۳,,,,,,,,,,,,,,,,0,61,61,58,,,,,180.2456027909975,,,,,,,,,,,,,,,,,,,,,,,,,,,,,,,,,,,,,,,,,,,,,180.22157787499964,180.2456027909975,180.2456027909975,180.2456027909975,180.2456027909975,180.2543594993336,180.2456027909975,180.2456027909975,180.3119432079984,Incorrect! The correct answer is Speaker3. نادرست! پاسخ صحیح گوینده۳ است,1,0.05363091700201039,None,0,62,180.31613174999802,180.3258822909993,182.31180799999856,182.33451416599928,,,,,,,,,,,,,,,,,,,,,,876297,001,2024-06-30_14h59.01.813,5-24,2024.1.4,None,2024-06-30 14h59.09.934257 +0900,
Images/Speaker1.jpg,Images/Speaker2.jpg,Images/Speaker3.jpg,Images/Speaker4.jpg,Audio/Speaker1_En/P1-5-En.wav,Speaker1,گوینده ۱,,,,,,,,,,,,,,,,0,62,62,4,,,,,182.33451416599928,,,,,,,,,,,,,,,,,,,,,,,,,,,,,,,,,,,,,,,,,,,,,182.31196020800053,182.33451416599928,182.33451416599928,182.33451416599928,182.33451416599928,182.32822137466454,182.33451416599928,182.33451416599928,182.4464447499995,Correct! صحیح است,1,0.10378737499922863,None,0,63,182.45050400000036,182.46158775000004,184.45235124999817,,,,,,,,,,,,,,,,,,,,,,,876297,001,2024-06-30_14h59.01.813,5-24,2024.1.4,None,2024-06-30 14h59.09.934257 +0900,
Images/Speaker1.jpg,Images/Speaker2.jpg,Images/Speaker3.jpg,Images/Speaker4.jpg,Audio/Speaker4_En/P4-6-En.wav,Speaker4,گوینده۴,,,,,,,,,,,,,,,,0,63,63,65,,,,,184.47902141599843,,,,,,,,,,,,,,,,,,,,,,,,,,,,,,,,,,,,,,,,,,,,,184.45251512499817,184.47902141599843,184.47902141599843,184.47902141599843,184.47902141599843,184.4856505413341,184.47902141599843,184.47902141599843,184.47972141599894,Incorrect! The correct answer is Speaker4. نادرست! پاسخ صحیح گوینده۴ است,1,2.13340716699895,None,0,64,184.4802008330007,184.4902857909983,186.47388220799985,186.49677708299714,,,,,,,,,,,,,,,,,,,,,,876297,001,2024-06-30_14h59.01.813,5-24,2024.1.4,None,2024-06-30 14h59.09.934257 +0900,
Images/Speaker1.jpg,Images/Speaker2.jpg,Images/Speaker3.jpg,Images/Speaker4.jpg,Audio/Speaker1_En/P1-6-En.wav,Speaker1,گوینده ۱,,,,,,,,,,,,,,,,0,64,64,5,,,,,186.49677708299714,,,,,,,,,,,,,,,,,,,,,,,,,,,,,,,,,,,,,,,,,,,,,186.4740377909984,186.49677708299714,186.49677708299714,186.49677708299714,186.49677708299714,186.49032995766564,186.49677708299714,186.49677708299714,186.6016608329992,Correct! صحیح است,1,0.10081562499908614,None,0,65,186.60579399999915,186.61654170799738,188.6019502909985,188.62663645800058,,,,,,,,,,,,,,,,,,,,,,876297,001,2024-06-30_14h59.01.813,5-24,2024.1.4,None,2024-06-30 14h59.09.934257 +0900,
Images/Speaker1.jpg,Images/Speaker2.jpg,Images/Speaker3.jpg,Images/Speaker4.jpg,Audio/Speaker3_En/P3-13-En.wav,Speaker3,گوینده۳,,,,,,,,,,,,,,,,0,65,65,52,,,,,188.62663645800058,,,,,,,,,,,,,,,,,,,,,,,,,,,,,,,,,,,,,,,,,,,,,188.60291279100056,188.62663645800058,188.62663645800058,188.62663645800058,188.62663645800058,188.6343810833319,188.62663645800058,188.62663645800058,188.62732924999727,Incorrect! The correct answer is Speaker3. نادرست! پاسخ صحیح گوینده۳ است,1,2.0470615000012913,None,0,66,188.62768087499717,188.63802199999918,190.62910066599943,,,,,,,,,,,,,,,,,,,,,,,876297,001,2024-06-30_14h59.01.813,5-24,2024.1.4,None,2024-06-30 14h59.09.934257 +0900,
Images/Speaker1.jpg,Images/Speaker2.jpg,Images/Speaker3.jpg,Images/Speaker4.jpg,Audio/Speaker3_En/P3-11-En.wav,Speaker3,گوینده۳,,,,,,,,,,,,,,,,0,66,66,50,,,,,190.65467412499856,,,,,,,,,,,,,,,,,,,,,,,,,,,,,,,,,,,,,,,,,,,,,190.62928245799776,190.65467412499856,190.65467412499856,190.65467412499856,190.65467412499856,190.6457277496668,190.65467412499856,190.65467412499856,190.65525999999954,Incorrect! The correct answer is Speaker3. نادرست! پاسخ صحیح گوینده۳ است,1,2.0034139579984185,None,0,67,190.65895483299755,190.6683095829976,192.6540365410001,192.67625437499737,,,,,,,,,,,,,,,,,,,,,,876297,001,2024-06-30_14h59.01.813,5-24,2024.1.4,None,2024-06-30 14h59.09.934257 +0900,
Images/Speaker1.jpg,Images/Speaker2.jpg,Images/Speaker3.jpg,Images/Speaker4.jpg,Audio/Speaker4_En/P4-12-En.wav,Speaker4,گوینده۴,,,,,,,,,,,,,,,,0,67,67,71,,,,,192.67625437499737,,,,,,,,,,,,,,,,,,,,,,,,,,,,,,,,,,,,,,,,,,,,,192.65422337500058,192.67625437499737,192.67625437499737,192.67625437499737,192.67625437499737,192.6704480826668,192.67625437499737,192.67625437499737,192.76034770799743,Incorrect! The correct answer is Speaker4. نادرست! پاسخ صحیح گوینده۴ است,1,0.08067741699778708,None,0,68,192.764622374998,192.7775343329995,194.76102858299782,194.78850470799807,,,,,,,,,,,,,,,,,,,,,,876297,001,2024-06-30_14h59.01.813,5-24,2024.1.4,None,2024-06-30 14h59.09.934257 +0900,
Images/Speaker1.jpg,Images/Speaker2.jpg,Images/Speaker3.jpg,Images/Speaker4.jpg,Audio/Speaker2_En/P2-15-En.wav,Speaker2,گوینده۲,,,,,,,,,,,,,,,,0,68,68,34,,,,,194.78850470799807,,,,,,,,,,,,,,,,,,,,,,,,,,,,,,,,,,,,,,,,,,,,,194.76199370799804,194.78850470799807,194.78850470799807,194.78850470799807,194.78850470799807,194.7932932913323,194.78850470799807,194.78850470799807,194.7891902079973,Incorrect! The correct answer is Speaker2. نادرست! پاسخ صحیح گوینده۲ است,1,2.004353207998065,None,0,69,194.78963808299886,194.799866207999,196.7898586659976,196.81764474999727,,,,,,,,,,,,,,,,,,,,,,876297,001,2024-06-30_14h59.01.813,5-24,2024.1.4,None,2024-06-30 14h59.09.934257 +0900,
Images/Speaker1.jpg,Images/Speaker2.jpg,Images/Speaker3.jpg,Images/Speaker4.jpg,Audio/Speaker2_En/P2-20-En.wav,Speaker2,گوینده۲,,,,,,,,,,,,,,,,0,69,69,39,,,,,196.81764474999727,,,,,,,,,,,,,,,,,,,,,,,,,,,,,,,,,,,,,,,,,,,,,196.7908393329999,196.81764474999727,196.81764474999727,196.81764474999727,196.81764474999727,196.82220245833065,196.81764474999727,196.81764474999727,196.9062610410001,Incorrect! The correct answer is Speaker2. نادرست! پاسخ صحیح گوینده۲ است,1,0.07959370900061913,None,0,70,196.9102495829975,196.92219179099993,198.91095279100045,198.93676887499896,,,,,,,,,,,,,,,,,,,,,,876297,001,2024-06-30_14h59.01.813,5-24,2024.1.4,None,2024-06-30 14h59.09.934257 +0900,
Images/Speaker1.jpg,Images/Speaker2.jpg,Images/Speaker3.jpg,Images/Speaker4.jpg,Audio/Speaker3_En/P3-1-En.wav,Speaker3,گوینده۳,,,,,,,,,,,,,,,,0,70,70,40,,,,,198.93676887499896,,,,,,,,,,,,,,,,,,,,,,,,,,,,,,,,,,,,,,,,,,,,,198.91189099999974,198.93676887499896,198.93676887499896,198.93676887499896,198.93676887499896,198.943440458334,198.93676887499896,198.93676887499896,199.07039558299948,Incorrect! The correct answer is Speaker3. نادرست! پاسخ صحیح گوینده۳ است,1,0.13087441700190539,None,0,71,199.07433016600044,199.08762708299764,201.0728067079981,201.09655487499913,,,,,,,,,,,,,,,,,,,,,,876297,001,2024-06-30_14h59.01.813,5-24,2024.1.4,None,2024-06-30 14h59.09.934257 +0900,
Images/Speaker1.jpg,Images/Speaker2.jpg,Images/Speaker3.jpg,Images/Speaker4.jpg,Audio/Speaker4_En/P4-19-En.wav,Speaker4,گوینده۴,,,,,,,,,,,,,,,,0,71,71,78,,,,,201.09655487499913,,,,,,,,,,,,,,,,,,,,,,,,,,,,,,,,,,,,,,,,,,,,,201.07349633299964,201.09655487499913,201.09655487499913,201.09655487499913,201.09655487499913,201.10513145833153,201.09655487499913,201.09655487499913,201.22179200000028,Incorrect! The correct answer is Speaker4. نادرست! پاسخ صحیح گوینده۴ است,1,0.11756837500070105,None,0,72,201.22590225000022,201.23623212500024,203.22859762499866,,,,,,,,,,,,,,,,,,,,,,,876297,001,2024-06-30_14h59.01.813,5-24,2024.1.4,None,2024-06-30 14h59.09.934257 +0900,
Images/Speaker1.jpg,Images/Speaker2.jpg,Images/Speaker3.jpg,Images/Speaker4.jpg,Audio/Speaker4_En/P4-18-En.wav,Speaker4,گوینده۴,,,,,,,,,,,,,,,,0,72,72,77,,,,,203.25601620799716,,,,,,,,,,,,,,,,,,,,,,,,,,,,,,,,,,,,,,,,,,,,,203.22924987499937,203.25601620799716,203.25601620799716,203.25601620799716,203.25601620799716,203.26179004133206,203.25601620799716,203.25601620799716,203.2566914579984,Incorrect! The correct answer is Speaker4. نادرست! پاسخ صحیح گوینده۴ است,1,2.123921500002325,None,0,73,203.25715554099952,203.26689133299806,205.26300024999728,,,,,,,,,,,,,,,,,,,,,,,876297,001,2024-06-30_14h59.01.813,5-24,2024.1.4,None,2024-06-30 14h59.09.934257 +0900,
Images/Speaker1.jpg,Images/Speaker2.jpg,Images/Speaker3.jpg,Images/Speaker4.jpg,Audio/Speaker4_En/P4-9-En.wav,Speaker4,گوینده۴,,,,,,,,,,,,,,,,0,73,73,68,,,,,205.28827162499874,,,,,,,,,,,,,,,,,,,,,,,,,,,,,,,,,,,,,,,,,,,,,205.2636585830005,205.28827162499874,205.28827162499874,205.28827162499874,205.28827162499874,205.29613170833233,205.28827162499874,205.28827162499874,205.28899862499748,Incorrect! The correct answer is Speaker4. نادرست! پاسخ صحیح گوینده۴ است,1,1.945653124999808,None,0,74,205.28932883299785,205.2995982909997,207.2892604999979,207.31332166599896,,,,,,,,,,,,,,,,,,,,,,876297,001,2024-06-30_14h59.01.813,5-24,2024.1.4,None,2024-06-30 14h59.09.934257 +0900,
Images/Speaker1.jpg,Images/Speaker2.jpg,Images/Speaker3.jpg,Images/Speaker4.jpg,Audio/Speaker3_En/P3-14-En.wav,Speaker3,گوینده۳,,,,,,,,,,,,,,,,0,74,74,53,,,,,207.31332166599896,,,,,,,,,,,,,,,,,,,,,,,,,,,,,,,,,,,,,,,,,,,,,207.28944087499985,207.31332166599896,207.31332166599896,207.31332166599896,207.31332166599896,207.32230449933246,207.31332166599896,207.31332166599896,207.43564616599906,Incorrect! The correct answer is Speaker3. نادرست! پاسخ صحیح گوینده۳ است,1,0.12089266699695145,None,0,75,207.43933262499922,207.45188041599977,209.43991329100027,209.46347441599937,,,,,,,,,,,,,,,,,,,,,,876297,001,2024-06-30_14h59.01.813,5-24,2024.1.4,None,2024-06-30 14h59.09.934257 +0900,
Images/Speaker1.jpg,Images/Speaker2.jpg,Images/Speaker3.jpg,Images/Speaker4.jpg,Audio/Speaker1_En/P1-8-En.wav,Speaker1,گوینده ۱,,,,,,,,,,,,,,,,0,75,75,7,,,,,209.46347441599937,,,,,,,,,,,,,,,,,,,,,,,,,,,,,,,,,,,,,,,,,,,,,209.44076237499758,209.46347441599937,209.46347441599937,209.46347441599937,209.46347441599937,209.4722215833322,209.46347441599937,209.46347441599937,209.48462841599758,Correct! صحیح است,1,0.01659504200142692,None,0,76,209.4885072500001,209.50012199999765,211.48761270799878,211.51013550000062,,,,,,,,,,,,,,,,,,,,,,876297,001,2024-06-30_14h59.01.813,5-24,2024.1.4,None,2024-06-30 14h59.09.934257 +0900,
Images/Speaker1.jpg,Images/Speaker2.jpg,Images/Speaker3.jpg,Images/Speaker4.jpg,Audio/Speaker1_En/P1-7-En.wav,Speaker1,گوینده ۱,,,,,,,,,,,,,,,,0,76,76,6,,,,,211.51013550000062,,,,,,,,,,,,,,,,,,,,,,,,,,,,,,,,,,,,,,,,,,,,,211.48778508299802,211.51013550000062,211.51013550000062,211.51013550000062,211.51013550000062,211.50401320766494,211.51013550000062,211.51013550000062,211.7275616659972,Correct! صحیح است,1,0.21355333300016355,None,0,77,211.73196520800047,211.7444426660004,213.73668333299793,,,,,,,,,,,,,,,,,,,,,,,876297,001,2024-06-30_14h59.01.813,5-24,2024.1.4,None,2024-06-30 14h59.09.934257 +0900,
Images/Speaker1.jpg,Images/Speaker2.jpg,Images/Speaker3.jpg,Images/Speaker4.jpg,Audio/Speaker1_En/P1-4-En.wav,Speaker1,گوینده ۱,,,,,,,,,,,,,,,,0,77,77,3,,,,,213.75833154099746,,,,,,,,,,,,,,,,,,,,,,,,,,,,,,,,,,,,,,,,,,,,,213.73684837499968,213.75833154099746,213.75833154099746,213.75833154099746,213.75833154099746,213.75331508266416,213.75833154099746,213.75833154099746,213.81937387499784,Correct! صحیح است,1,0.057558500000595814,None,0,78,213.8231264999995,213.83393299999807,215.82208162499956,215.85004158299853,,,,,,,,,,,,,,,,,,,,,,876297,001,2024-06-30_14h59.01.813,5-24,2024.1.4,None,2024-06-30 14h59.09.934257 +0900,
Images/Speaker1.jpg,Images/Speaker2.jpg,Images/Speaker3.jpg,Images/Speaker4.jpg,Audio/Speaker3_En/P3-17-En.wav,Speaker3,گوینده۳,,,,,,,,,,,,,,,,0,78,78,56,,,,,215.85004158299853,,,,,,,,,,,,,,,,,,,,,,,,,,,,,,,,,,,,,,,,,,,,,215.8227640829973,215.85004158299853,215.85004158299853,215.85004158299853,215.85004158299853,215.85445704133286,215.85004158299853,215.85004158299853,215.99395779099723,Incorrect! The correct answer is Speaker3. نادرست! پاسخ صحیح گوینده۳ است,1,0.1357627089964808,None,0,79,215.99780249999822,216.0105139160005,217.99417258299945,218.01704037499803,,,,,,,,,,,,,,,,,,,,,,876297,001,2024-06-30_14h59.01.813,5-24,2024.1.4,None,2024-06-30 14h59.09.934257 +0900,
Images/Speaker1.jpg,Images/Speaker2.jpg,Images/Speaker3.jpg,Images/Speaker4.jpg,Audio/Speaker1_En/P1-3-En.wav,Speaker1,گوینده ۱,,,,,,,,,,,,,,,,0,79,79,2,,,,,218.01704037499803,,,,,,,,,,,,,,,,,,,,,,,,,,,,,,,,,,,,,,,,,,,,,217.99435845799962,218.01704037499803,218.01704037499803,218.01704037499803,218.01704037499803,218.0105148326659,218.01704037499803,218.01704037499803,220.96485937499892,Incorrect! The correct answer is Speaker1. نادرست! پاسخ صحیح گوینده ۱ است,2,2.936913124998682,None,0,80,220.96504895799808,220.97548620799716,222.97107504099768,,,,,,,,,,,,,,,,,,,,,,,876297,001,2024-06-30_14h59.01.813,5-24,2024.1.4,None,2024-06-30 14h59.09.934257 +0900,
,,,,,,,,,,,,,,,,,,,,,,,,,,,,,,,,,,,,,,,,,,,,,,,,,,,,,,,,,,,,,,,,,,,,,,,,,,,,,,,,,,,,,,,,,,,,,,222.97125704099744,0,0,0.0,False,222.9719797079997,,,,,,,,,,,,,,,,876297,001,2024-06-30_14h59.01.813,5-24,2024.1.4,None,2024-06-30 14h59.09.934257 +0900,
,,,,,,,,,,,,,,,,,,,,,,,,,,,,,,,,,,,,,,,,,,,,,,,,,,,,,,,,,,,,,,,,,,,,,,,,,,,,,,,,,,,,,,,,,,,,,,,,,,,,222.97200533299838,222.97803041599764,,227.97197524999865,,,,,,,,,,,,876297,001,2024-06-30_14h59.01.813,5-24,2024.1.4,None,2024-06-30 14h59.09.934257 +0900,
,,,,,,,Images/Speaker1.jpg,Images/Speaker2.jpg,Images/Speaker3.jpg,Images/Speaker4.jpg,Audio/Speaker3_Per/P3-12-Per.wav,Speaker3,گوینده۳,,,,,,,,,,,,,0,0,0,51,,,,,,,,,,,,,,,,,,,,,,,,,,,,,,,,,,,,,,,,,,,,,,,,,,,,,,,,,,,,,,,,,,,,,,,,,,,227.99345329099742,228.0115809159979,None,No response,Images/Speaker1.jpg,Images/Speaker2.jpg,Images/Speaker3.jpg,Images/Speaker4.jpg,Audio/Speaker3_Per/P3-12-Per.wav,Speaker1,گوینده ۱,876297,001,2024-06-30_14h59.01.813,5-24,2024.1.4,None,2024-06-30 14h59.09.934257 +0900,
,,,,,,,Images/Speaker1.jpg,Images/Speaker2.jpg,Images/Speaker3.jpg,Images/Speaker4.jpg,Audio/Speaker2_Per/P2-11-Per.wav,Speaker2,گوینده۲,,,,,,,,,,,,,0,1,1,30,,,,,,,,,,,,,,,,,,,,,,,,,,,,,,,,,,,,,,,,,,,,,,,,,,,,,,,,,,,,,,,,,,,,,,,,,,,228.01188541599913,228.02553120800076,None,No response,Images/Speaker1.jpg,Images/Speaker2.jpg,Images/Speaker3.jpg,Images/Speaker4.jpg,Audio/Speaker2_Per/P2-11-Per.wav,Speaker1,گوینده ۱,876297,001,2024-06-30_14h59.01.813,5-24,2024.1.4,None,2024-06-30 14h59.09.934257 +0900,
,,,,,,,Images/Speaker1.jpg,Images/Speaker2.jpg,Images/Speaker3.jpg,Images/Speaker4.jpg,Audio/Speaker1_Per/P1-8-Per.wav,Speaker1,گوینده ۱,,,,,,,,,,,,,0,2,2,7,,,,,,,,,,,,,,,,,,,,,,,,,,,,,,,,,,,,,,,,,,,,,,,,,,,,,,,,,,,,,,,,,,,,,,,,,,,228.02570833299978,228.03944933299863,None,No response,Images/Speaker1.jpg,Images/Speaker2.jpg,Images/Speaker3.jpg,Images/Speaker4.jpg,Audio/Speaker1_Per/P1-8-Per.wav,Speaker1,گوینده ۱,876297,001,2024-06-30_14h59.01.813,5-24,2024.1.4,None,2024-06-30 14h59.09.934257 +0900,
,,,,,,,Images/Speaker1.jpg,Images/Speaker2.jpg,Images/Speaker3.jpg,Images/Speaker4.jpg,Audio/Speaker4_Per/P4-15-Per.wav,Speaker4,گوینده۴,,,,,,,,,,,,,0,3,3,74,,,,,,,,,,,,,,,,,,,,,,,,,,,,,,,,,,,,,,,,,,,,,,,,,,,,,,,,,,,,,,,,,,,,,,,,,,,228.0396231659979,228.0541679579983,None,No response,Images/Speaker1.jpg,Images/Speaker2.jpg,Images/Speaker3.jpg,Images/Speaker4.jpg,Audio/Speaker4_Per/P4-15-Per.wav,Speaker1,گوینده ۱,876297,001,2024-06-30_14h59.01.813,5-24,2024.1.4,None,2024-06-30 14h59.09.934257 +0900,
,,,,,,,Images/Speaker1.jpg,Images/Speaker2.jpg,Images/Speaker3.jpg,Images/Speaker4.jpg,Audio/Speaker1_Per/P1-15-Per.wav,Speaker1,گوینده ۱,,,,,,,,,,,,,0,4,4,14,,,,,,,,,,,,,,,,,,,,,,,,,,,,,,,,,,,,,,,,,,,,,,,,,,,,,,,,,,,,,,,,,,,,,,,,,,,228.0543457499989,228.06716870799937,None,No response,Images/Speaker1.jpg,Images/Speaker2.jpg,Images/Speaker3.jpg,Images/Speaker4.jpg,Audio/Speaker1_Per/P1-15-Per.wav,Speaker1,گوینده ۱,876297,001,2024-06-30_14h59.01.813,5-24,2024.1.4,None,2024-06-30 14h59.09.934257 +0900,
,,,,,,,Images/Speaker1.jpg,Images/Speaker2.jpg,Images/Speaker3.jpg,Images/Speaker4.jpg,Audio/Speaker4_Per/P4-12-Per.wav,Speaker4,گوینده۴,,,,,,,,,,,,,0,5,5,71,,,,,,,,,,,,,,,,,,,,,,,,,,,,,,,,,,,,,,,,,,,,,,,,,,,,,,,,,,,,,,,,,,,,,,,,,,,228.06732770799863,228.078775957998,None,No response,Images/Speaker1.jpg,Images/Speaker2.jpg,Images/Speaker3.jpg,Images/Speaker4.jpg,Audio/Speaker4_Per/P4-12-Per.wav,Speaker1,گوینده ۱,876297,001,2024-06-30_14h59.01.813,5-24,2024.1.4,None,2024-06-30 14h59.09.934257 +0900,
,,,,,,,Images/Speaker1.jpg,Images/Speaker2.jpg,Images/Speaker3.jpg,Images/Speaker4.jpg,Audio/Speaker2_Per/P2-2-Per.wav,Speaker2,گوینده۲,,,,,,,,,,,,,0,6,6,21,,,,,,,,,,,,,,,,,,,,,,,,,,,,,,,,,,,,,,,,,,,,,,,,,,,,,,,,,,,,,,,,,,,,,,,,,,,228.07892962500046,228.09125520799716,None,No response,Images/Speaker1.jpg,Images/Speaker2.jpg,Images/Speaker3.jpg,Images/Speaker4.jpg,Audio/Speaker2_Per/P2-2-Per.wav,Speaker1,گوینده ۱,876297,001,2024-06-30_14h59.01.813,5-24,2024.1.4,None,2024-06-30 14h59.09.934257 +0900,
,,,,,,,Images/Speaker1.jpg,Images/Speaker2.jpg,Images/Speaker3.jpg,Images/Speaker4.jpg,Audio/Speaker2_Per/P2-4-Per.wav,Speaker2,گوینده۲,,,,,,,,,,,,,0,7,7,23,,,,,,,,,,,,,,,,,,,,,,,,,,,,,,,,,,,,,,,,,,,,,,,,,,,,,,,,,,,,,,,,,,,,,,,,,,,228.09140733299864,228.10259508300078,None,No response,Images/Speaker1.jpg,Images/Speaker2.jpg,Images/Speaker3.jpg,Images/Speaker4.jpg,Audio/Speaker2_Per/P2-4-Per.wav,Speaker1,گوینده ۱,876297,001,2024-06-30_14h59.01.813,5-24,2024.1.4,None,2024-06-30 14h59.09.934257 +0900,
,,,,,,,Images/Speaker1.jpg,Images/Speaker2.jpg,Images/Speaker3.jpg,Images/Speaker4.jpg,Audio/Speaker4_Per/P4-6-Per.wav,Speaker4,گوینده۴,,,,,,,,,,,,,0,8,8,65,,,,,,,,,,,,,,,,,,,,,,,,,,,,,,,,,,,,,,,,,,,,,,,,,,,,,,,,,,,,,,,,,,,,,,,,,,,228.10274362500058,228.11414062499898,None,No response,Images/Speaker1.jpg,Images/Speaker2.jpg,Images/Speaker3.jpg,Images/Speaker4.jpg,Audio/Speaker4_Per/P4-6-Per.wav,Speaker1,گوینده ۱,876297,001,2024-06-30_14h59.01.813,5-24,2024.1.4,None,2024-06-30 14h59.09.934257 +0900,
,,,,,,,Images/Speaker1.jpg,Images/Speaker2.jpg,Images/Speaker3.jpg,Images/Speaker4.jpg,Audio/Speaker1_Per/P1-18-Per.wav,Speaker1,گوینده ۱,,,,,,,,,,,,,0,9,9,17,,,,,,,,,,,,,,,,,,,,,,,,,,,,,,,,,,,,,,,,,,,,,,,,,,,,,,,,,,,,,,,,,,,,,,,,,,,228.11428708299718,228.12608958299825,None,No response,Images/Speaker1.jpg,Images/Speaker2.jpg,Images/Speaker3.jpg,Images/Speaker4.jpg,Audio/Speaker1_Per/P1-18-Per.wav,Speaker1,گوینده ۱,876297,001,2024-06-30_14h59.01.813,5-24,2024.1.4,None,2024-06-30 14h59.09.934257 +0900,
,,,,,,,Images/Speaker1.jpg,Images/Speaker2.jpg,Images/Speaker3.jpg,Images/Speaker4.jpg,Audio/Speaker1_Per/P1-6-Per.wav,Speaker1,گوینده ۱,,,,,,,,,,,,,0,10,10,5,,,,,,,,,,,,,,,,,,,,,,,,,,,,,,,,,,,,,,,,,,,,,,,,,,,,,,,,,,,,,,,,,,,,,,,,,,,228.12623604100008,228.13806370800012,None,No response,Images/Speaker1.jpg,Images/Speaker2.jpg,Images/Speaker3.jpg,Images/Speaker4.jpg,Audio/Speaker1_Per/P1-6-Per.wav,Speaker1,گوینده ۱,876297,001,2024-06-30_14h59.01.813,5-24,2024.1.4,None,2024-06-30 14h59.09.934257 +0900,
,,,,,,,Images/Speaker1.jpg,Images/Speaker2.jpg,Images/Speaker3.jpg,Images/Speaker4.jpg,Audio/Speaker2_Per/P2-9-Per.wav,Speaker2,گوینده۲,,,,,,,,,,,,,0,11,11,28,,,,,,,,,,,,,,,,,,,,,,,,,,,,,,,,,,,,,,,,,,,,,,,,,,,,,,,,,,,,,,,,,,,,,,,,,,,228.13820995800052,228.14909029099726,None,No response,Images/Speaker1.jpg,Images/Speaker2.jpg,Images/Speaker3.jpg,Images/Speaker4.jpg,Audio/Speaker2_Per/P2-9-Per.wav,Speaker1,گوینده ۱,876297,001,2024-06-30_14h59.01.813,5-24,2024.1.4,None,2024-06-30 14h59.09.934257 +0900,
,,,,,,,Images/Speaker1.jpg,Images/Speaker2.jpg,Images/Speaker3.jpg,Images/Speaker4.jpg,Audio/Speaker2_Per/P2-5-Per.wav,Speaker2,گوینده۲,,,,,,,,,,,,,0,12,12,24,,,,,,,,,,,,,,,,,,,,,,,,,,,,,,,,,,,,,,,,,,,,,,,,,,,,,,,,,,,,,,,,,,,,,,,,,,,228.14923770799942,228.16021829099918,None,No response,Images/Speaker1.jpg,Images/Speaker2.jpg,Images/Speaker3.jpg,Images/Speaker4.jpg,Audio/Speaker2_Per/P2-5-Per.wav,Speaker1,گوینده ۱,876297,001,2024-06-30_14h59.01.813,5-24,2024.1.4,None,2024-06-30 14h59.09.934257 +0900,
,,,,,,,Images/Speaker1.jpg,Images/Speaker2.jpg,Images/Speaker3.jpg,Images/Speaker4.jpg,Audio/Speaker2_Per/P2-14-Per.wav,Speaker2,گوینده۲,,,,,,,,,,,,,0,13,13,33,,,,,,,,,,,,,,,,,,,,,,,,,,,,,,,,,,,,,,,,,,,,,,,,,,,,,,,,,,,,,,,,,,,,,,,,,,,228.160360165999,228.17193091599984,None,No response,Images/Speaker1.jpg,Images/Speaker2.jpg,Images/Speaker3.jpg,Images/Speaker4.jpg,Audio/Speaker2_Per/P2-14-Per.wav,Speaker1,گوینده ۱,876297,001,2024-06-30_14h59.01.813,5-24,2024.1.4,None,2024-06-30 14h59.09.934257 +0900,
,,,,,,,Images/Speaker1.jpg,Images/Speaker2.jpg,Images/Speaker3.jpg,Images/Speaker4.jpg,Audio/Speaker2_Per/P2-17-Per.wav,Speaker2,گوینده۲,,,,,,,,,,,,,0,14,14,36,,,,,,,,,,,,,,,,,,,,,,,,,,,,,,,,,,,,,,,,,,,,,,,,,,,,,,,,,,,,,,,,,,,,,,,,,,,228.17207674999736,228.18273299999782,None,No response,Images/Speaker1.jpg,Images/Speaker2.jpg,Images/Speaker3.jpg,Images/Speaker4.jpg,Audio/Speaker2_Per/P2-17-Per.wav,Speaker1,گوینده ۱,876297,001,2024-06-30_14h59.01.813,5-24,2024.1.4,None,2024-06-30 14h59.09.934257 +0900,
,,,,,,,Images/Speaker1.jpg,Images/Speaker2.jpg,Images/Speaker3.jpg,Images/Speaker4.jpg,Audio/Speaker3_Per/P3-5-Per.wav,Speaker3,گوینده۳,,,,,,,,,,,,,0,15,15,44,,,,,,,,,,,,,,,,,,,,,,,,,,,,,,,,,,,,,,,,,,,,,,,,,,,,,,,,,,,,,,,,,,,,,,,,,,,228.18288516599932,228.19405812499826,None,No response,Images/Speaker1.jpg,Images/Speaker2.jpg,Images/Speaker3.jpg,Images/Speaker4.jpg,Audio/Speaker3_Per/P3-5-Per.wav,Speaker1,گوینده ۱,876297,001,2024-06-30_14h59.01.813,5-24,2024.1.4,None,2024-06-30 14h59.09.934257 +0900,
,,,,,,,Images/Speaker1.jpg,Images/Speaker2.jpg,Images/Speaker3.jpg,Images/Speaker4.jpg,Audio/Speaker3_Per/P3-8-Per.wav,Speaker3,گوینده۳,,,,,,,,,,,,,0,16,16,47,,,,,,,,,,,,,,,,,,,,,,,,,,,,,,,,,,,,,,,,,,,,,,,,,,,,,,,,,,,,,,,,,,,,,,,,,,,228.1942000409981,228.20628366600067,None,No response,Images/Speaker1.jpg,Images/Speaker2.jpg,Images/Speaker3.jpg,Images/Speaker4.jpg,Audio/Speaker3_Per/P3-8-Per.wav,Speaker1,گوینده ۱,876297,001,2024-06-30_14h59.01.813,5-24,2024.1.4,None,2024-06-30 14h59.09.934257 +0900,
,,,,,,,Images/Speaker1.jpg,Images/Speaker2.jpg,Images/Speaker3.jpg,Images/Speaker4.jpg,Audio/Speaker3_Per/P3-7-Per.wav,Speaker3,گوینده۳,,,,,,,,,,,,,0,17,17,46,,,,,,,,,,,,,,,,,,,,,,,,,,,,,,,,,,,,,,,,,,,,,,,,,,,,,,,,,,,,,,,,,,,,,,,,,,,228.20642866599883,228.21704954099914,None,No response,Images/Speaker1.jpg,Images/Speaker2.jpg,Images/Speaker3.jpg,Images/Speaker4.jpg,Audio/Speaker3_Per/P3-7-Per.wav,Speaker1,گوینده ۱,876297,001,2024-06-30_14h59.01.813,5-24,2024.1.4,None,2024-06-30 14h59.09.934257 +0900,
,,,,,,,Images/Speaker1.jpg,Images/Speaker2.jpg,Images/Speaker3.jpg,Images/Speaker4.jpg,Audio/Speaker2_Per/P2-3-Per.wav,Speaker2,گوینده۲,,,,,,,,,,,,,0,18,18,22,,,,,,,,,,,,,,,,,,,,,,,,,,,,,,,,,,,,,,,,,,,,,,,,,,,,,,,,,,,,,,,,,,,,,,,,,,,228.21719383299933,228.22806970799866,None,No response,Images/Speaker1.jpg,Images/Speaker2.jpg,Images/Speaker3.jpg,Images/Speaker4.jpg,Audio/Speaker2_Per/P2-3-Per.wav,Speaker1,گوینده ۱,876297,001,2024-06-30_14h59.01.813,5-24,2024.1.4,None,2024-06-30 14h59.09.934257 +0900,
,,,,,,,,,,,,,,,,,,,,,,,,,,,,,,,,,,,,,,,,,,,,,,,,,,,,,,,,,,,,,,,,,,,,,,,,,,,,,,,,,,,,,,,,,,,,,,,,,,,,,,,,228.22821529099747,,,,,,,,,,,,,,,,,,
