SpeakerImage1,SpeakerImage2,SpeakerImage3,SpeakerImage4,TrainingSound,EnglishCorrectAnswer,PersianCorrectAnswer,SpeakerPhoto1,SpeakerPhoto2,SpeakerPhoto3,SpeakerPhoto4,TestingSound,EnglishCorrectResponse,PersianCorrectResponse,repeated_TrainingLoopGroup3.thisRepN,repeated_TrainingLoopGroup3.thisTrialN,repeated_TrainingLoopGroup3.thisN,repeated_TrainingLoopGroup3.thisIndex,TrainingLoopGroup3.thisRepN,TrainingLoopGroup3.thisTrialN,TrainingLoopGroup3.thisN,TrainingLoopGroup3.thisIndex,testPhase3Loop.thisRepN,testPhase3Loop.thisTrialN,testPhase3Loop.thisN,testPhase3Loop.thisIndex,thisRow.t,notes,trial.started,trial.stopped,GroupSelection.started,GroupInstructions.started,key_resp.started,GroupSelection.stopped,key_resp.keys,key_resp.rt,key_resp.duration,HeadphoneCheck.started,text_13.started,mouse.started,checkbox.started,HeadphoneCheck.stopped,mouse.x,mouse.y,mouse.leftButton,mouse.midButton,mouse.rightButton,mouse.time,mouse.clicked_name,Headphone_Used,Introduction.started,text_2.started,text_2.stopped,image.started,sound_7.started,text_4.started,image.stopped,text_4.stopped,image_7.started,sound_9.started,text_5.started,image_7.stopped,text_5.stopped,image_8.started,sound_11.started,text_6.started,image_8.stopped,text_6.stopped,image_9.started,sound_13.started,text_7.started,image_9.stopped,text_7.stopped,Introduction.stopped,Instructions.started,InstructionText.started,InstructionText.stopped,text_14.started,text_14.stopped,Instructions.stopped,Countdown.started,number1.started,number1.stopped,number2.started,number2.stopped,number3.started,number3.stopped,start.started,start.stopped,silence.started,silence.stopped,Countdown.stopped,InitializeExperiment.started,InitializeExperiment.stopped,TrainingGroup3.started,SpeakerPicture3.started,image_15.started,image_16.started,image_17.started,Sound3.started,Instruction3.started,Response3.started,SessionNumberText.started,TrainingGroup3.stopped,feedbackText,correct_responses_group3,total_trials_group3,Response3.keys,Response3.rt,Response3.duration,FeedbackRoutine3.started,FeedbackText3.started,FeedbackText3.stopped,FeedbackRoutine3.stopped,Break.started,Break.stopped,mouse3.x,mouse3.y,mouse3.leftButton,mouse3.midButton,mouse3.rightButton,mouse3.time,mouse3.clicked_name,Proceed_Break,break_message.started,mouse3.started,checkbox3.started,text_component.started,CheckAccuracy3.started,accuracy_group3,proceed_to_test,CheckAccuracy3.stopped,WelcomeTest.started,text_12.started,text_12.stopped,WelcomeTest.stopped,TestPhase3.started,test3_image1.started,test3_image2.started,test3_image3.started,test3_image4.started,test3_sound.started,text_10.started,test3_response_keyboard.started,TestPhase3.stopped,test3_response_keyboard.keys,test3_response_keyboard.rt,test3_response_keyboard.duration,test3_response,test3_image_file1,test3_image_file2,test3_image_file3,test3_image_file4,test3_sound_file,english_correct_answer,persian_correct_answer,finish.started,text_11.started,text_11.stopped,finish.stopped,participant,session,date,expName,psychopyVersion,frameRate,expStart,
,,,,,,,,,,,,,,,,,,,,,,,,,,,,0.00938549999773386,0.009788999999727821,,,,,,,,,,,,,,,,,,,,,,,,,,,,,,,,,,,,,,,,,,,,,,,,,,,,,,,,,,,,,,,,,,,,,,,,,,,,,,,,,,,,,,,,,,,,,,,,,,,,,,,,,,,,,,,,,,,,,,,,,,,,,,,,,,,893010,001,2024-08-04_14h43.37.994,5-32 ready-Group3 English Trained,2024.1.5,None,2024-08-04 14h43.43.157519 +0900,
,,,,,,,,,,,,,,,,,,,,,,,,,,,,,,0.009806540998397395,0.0141496249998454,0.0141496249998454,2.0353086659997643,3,1.982811916997889,None,,,,,,,,,,,,,,,,,,,,,,,,,,,,,,,,,,,,,,,,,,,,,,,,,,,,,,,,,,,,,,,,,,,,,,,,,,,,,,,,,,,,,,,,,,,,,,,,,,,,,,,,,,,,,,,,,,,,,,,,,,,,893010,001,2024-08-04_14h43.37.994,5-32 ready-Group3 English Trained,2024.1.5,None,2024-08-04 14h43.43.157519 +0900,
,,,,,,,,,,,,,,,,,,,,,,,,,,,,,,,,,,,,,2.035339833000762,2.045299665998755,0.00018937499771709554,2.045299665998755,2.578096833000018,[-0.11608961303462322],[0.2576374745417515],[1],[0],[0],[0.5420230000017909],[],False,,,,,,,,,,,,,,,,,,,,,,,,,,,,,,,,,,,,,,,,,,,,,,,,,,,,,,,,,,,,,,,,,,,,,,,,,,,,,,,,,,,,,,,,,,,,,,,,,,,,,,,,,,,,,,,893010,001,2024-08-04_14h43.37.994,5-32 ready-Group3 English Trained,2024.1.5,None,2024-08-04 14h43.43.157519 +0900,
,,,,,,,,,,,,,,,,,,,,,,,,,,,,,,,,,,,,,,,,,,,,,,,,,,2.5782619579986203,2.617159375000483,7.613663000000088,9.57135874999949,9.581598332664969,9.57135874999949,14.56932125000094,14.56932125000094,17.578076457997668,17.58956420766505,17.578076457997668,22.574274832997617,22.574274832997617,25.57116437500008,25.582380582666033,25.57116437500008,30.55968620799831,30.55968620799831,33.57997208300003,33.58853633266723,33.57997208300003,38.57678066600056,38.57678066600056,38.57179662499766,,,,,,,,,,,,,,,,,,,,,,,,,,,,,,,,,,,,,,,,,,,,,,,,,,,,,,,,,,,,,,,,,,,,,,,,,,,,,,,,,,,,,,,893010,001,2024-08-04_14h43.37.994,5-32 ready-Group3 English Trained,2024.1.5,None,2024-08-04 14h43.43.157519 +0900,
,,,,,,,,,,,,,,,,,,,,,,,,,,,,,,,,,,,,,,,,,,,,,,,,,,,,,,,,,,,,,,,,,,,,,,,,,,38.571881083000335,38.57678066600056,48.5686849579979,48.5686849579979,68.56687749999764,68.56280608299858,,,,,,,,,,,,,,,,,,,,,,,,,,,,,,,,,,,,,,,,,,,,,,,,,,,,,,,,,,,,,,,,,,,,,,,,,,,,,,,,,893010,001,2024-08-04_14h43.37.994,5-32 ready-Group3 English Trained,2024.1.5,None,2024-08-04 14h43.43.157519 +0900,
,,,,,,,,,,,,,,,,,,,,,,,,,,,,,,,,,,,,,,,,,,,,,,,,,,,,,,,,,,,,,,,,,,,,,,,,,,,,,,,,68.56282337499943,68.56687749999764,69.55594716599808,70.079260333001,71.06664591599838,71.57937133299856,72.57372804099941,73.06749837499956,75.06399362500088,75.06399362500088,77.13842108300014,77.05553599999985,,,,,,,,,,,,,,,,,,,,,,,,,,,,,,,,,,,,,,,,,,,,,,,,,,,,,,,,,,,,,,,,,,,,,893010,001,2024-08-04_14h43.37.994,5-32 ready-Group3 English Trained,2024.1.5,None,2024-08-04 14h43.43.157519 +0900,
,,,,,,,,,,,,,,,,,,,,,,,,,,,,,,,,,,,,,,,,,,,,,,,,,,,,,,,,,,,,,,,,,,,,,,,,,,,,,,,,,,,,,,,,,,,,77.05558116599786,77.05610783299926,,,,,,,,,,,,,,,,,,,,,,,,,,,,,,,,,,,,,,,,,,,,,,,,,,,,,,,,,,,,,,,,,,,893010,001,2024-08-04_14h43.37.994,5-32 ready-Group3 English Trained,2024.1.5,None,2024-08-04 14h43.43.157519 +0900,
Images/Speaker1.jpg,Images/Speaker2.jpg,Images/Speaker3.jpg,Images/Speaker4.jpg,Audio/Speaker2_En/P2-18-En.wav,Speaker2,گوینده۲,,,,,,,,0,0,0,72,0,0,0,37,,,,,77.13842108300014,,,,,,,,,,,,,,,,,,,,,,,,,,,,,,,,,,,,,,,,,,,,,,,,,,,,,,,,,,,,,,,,,,,,77.11361849999957,77.13842108300014,77.13842108300014,77.13842108300014,77.13842108300014,77.13792112433414,77.13842108300014,77.13842108300014,77.13842108300014,82.40317629099809,Incorrect! The correct answer is Speaker2.,0,1,1,5.2619602090017,None,82.40366270799859,82.41527120799947,84.42536225000003,84.40023608299816,84.40027162499973,84.40093308299765,[],[],[],[],[],[],[],False,,,,,,,,,,,,,,,,,,,,,,,,,,,,,,,,,,,,,893010,001,2024-08-04_14h43.37.994,5-32 ready-Group3 English Trained,2024.1.5,None,2024-08-04 14h43.43.157519 +0900,
Images/Speaker1.jpg,Images/Speaker2.jpg,Images/Speaker3.jpg,Images/Speaker4.jpg,Audio/Speaker3_En/P3-11-En.wav,Speaker3,گوینده۳,,,,,,,,0,0,0,72,0,1,1,50,,,,,84.42536225000003,,,,,,,,,,,,,,,,,,,,,,,,,,,,,,,,,,,,,,,,,,,,,,,,,,,,,,,,,,,,,,,,,,,,84.40358045799803,84.42536225000003,84.42536225000003,84.42536225000003,84.42536225000003,84.43245199933202,84.42536225000003,84.42536225000003,84.42536225000003,89.01854820799781,Correct!,1,1,3,4.589029124999797,None,89.01875329099857,89.03076650000003,91.03488795799785,91.0147208749986,91.01473229099793,91.01483708299929,[],[],[],[],[],[],[],False,,,,,,,,,,,,,,,,,,,,,,,,,,,,,,,,,,,,,893010,001,2024-08-04_14h43.37.994,5-32 ready-Group3 English Trained,2024.1.5,None,2024-08-04 14h43.43.157519 +0900,
Images/Speaker1.jpg,Images/Speaker2.jpg,Images/Speaker3.jpg,Images/Speaker4.jpg,Audio/Speaker3_En/P3-1-En.wav,Speaker3,گوینده۳,,,,,,,,0,0,0,72,0,2,2,40,,,,,91.03488795799785,,,,,,,,,,,,,,,,,,,,,,,,,,,,,,,,,,,,,,,,,,,,,,,,,,,,,,,,,,,,,,,,,,,,91.01525112499803,91.03488795799785,91.03488795799785,91.03488795799785,91.03488795799785,91.03113120766672,91.03488795799785,91.03488795799785,91.03488795799785,92.19945849999931,Correct!,1,1,3,1.1546437500001048,None,92.20370374999766,92.21502520799913,94.21864508299768,94.19857366599899,94.19858520799971,94.19868862499789,[],[],[],[],[],[],[],False,,,,,,,,,,,,,,,,,,,,,,,,,,,,,,,,,,,,,893010,001,2024-08-04_14h43.37.994,5-32 ready-Group3 English Trained,2024.1.5,None,2024-08-04 14h43.43.157519 +0900,
Images/Speaker1.jpg,Images/Speaker2.jpg,Images/Speaker3.jpg,Images/Speaker4.jpg,Audio/Speaker3_En/P3-3-En.wav,Speaker3,گوینده۳,,,,,,,,0,0,0,72,0,3,3,42,,,,,94.21864508299768,,,,,,,,,,,,,,,,,,,,,,,,,,,,,,,,,,,,,,,,,,,,,,,,,,,,,,,,,,,,,,,,,,,,94.19917374999932,94.21864508299768,94.21864508299768,94.21864508299768,94.21864508299768,94.21498824966717,94.21864508299768,94.21864508299768,94.21864508299768,95.8719534999982,Correct!,1,1,3,1.649658250000357,None,95.8759410829989,95.88290249999773,97.89385525000034,97.87079845799963,97.87083029099813,97.87124983299873,[],[],[],[],[],[],[],False,,,,,,,,,,,,,,,,,,,,,,,,,,,,,,,,,,,,,893010,001,2024-08-04_14h43.37.994,5-32 ready-Group3 English Trained,2024.1.5,None,2024-08-04 14h43.43.157519 +0900,
Images/Speaker1.jpg,Images/Speaker2.jpg,Images/Speaker3.jpg,Images/Speaker4.jpg,Audio/Speaker2_En/P2-10-En.wav,Speaker2,گوینده۲,,,,,,,,0,0,0,72,0,4,4,29,,,,,97.89385525000034,,,,,,,,,,,,,,,,,,,,,,,,,,,,,,,,,,,,,,,,,,,,,,,,,,,,,,,,,,,,,,,,,,,,97.87251762500091,97.89385525000034,97.89385525000034,97.89385525000034,97.89385525000034,97.90330637433411,97.89385525000034,97.89385525000034,97.89385525000034,99.43607983299808,Correct!,1,1,2,1.537895875000686,None,99.43999045799865,99.44640354099829,101.45693849999952,101.43155616600052,101.43157858300037,101.4319767909983,[],[],[],[],[],[],[],False,,,,,,,,,,,,,,,,,,,,,,,,,,,,,,,,,,,,,893010,001,2024-08-04_14h43.37.994,5-32 ready-Group3 English Trained,2024.1.5,None,2024-08-04 14h43.43.157519 +0900,
Images/Speaker1.jpg,Images/Speaker2.jpg,Images/Speaker3.jpg,Images/Speaker4.jpg,Audio/Speaker1_En/P1-4-En.wav,Speaker1,گوینده ۱,,,,,,,,0,0,0,72,0,5,5,3,,,,,101.45693849999952,,,,,,,,,,,,,,,,,,,,,,,,,,,,,,,,,,,,,,,,,,,,,,,,,,,,,,,,,,,,,,,,,,,,101.43350412499785,101.45693849999952,101.45693849999952,101.45693849999952,101.45693849999952,101.46410237433204,101.45693849999952,101.45693849999952,101.45693849999952,102.56840749999901,Correct!,1,1,1,1.1079006670006493,None,102.57221412500076,102.57862895799917,104.58334908300094,104.56354879100036,104.56355741600055,104.56366920800065,[],[],[],[],[],[],[],False,,,,,,,,,,,,,,,,,,,,,,,,,,,,,,,,,,,,,893010,001,2024-08-04_14h43.37.994,5-32 ready-Group3 English Trained,2024.1.5,None,2024-08-04 14h43.43.157519 +0900,
Images/Speaker1.jpg,Images/Speaker2.jpg,Images/Speaker3.jpg,Images/Speaker4.jpg,Audio/Speaker1_En/P1-7-En.wav,Speaker1,گوینده ۱,,,,,,,,0,0,0,72,0,6,6,6,,,,,104.58334908300094,,,,,,,,,,,,,,,,,,,,,,,,,,,,,,,,,,,,,,,,,,,,,,,,,,,,,,,,,,,,,,,,,,,,104.56406695799888,104.58334908300094,104.58334908300094,104.58334908300094,104.58334908300094,104.57995187466464,104.58334908300094,104.58334908300094,104.58334908300094,105.82800758300073,Correct!,1,1,1,1.2402800410018244,None,105.83197570799894,105.83874233299866,107.84586945800038,107.82602879099795,107.82605354100087,107.8262757909979,[],[],[],[],[],[],[],False,,,,,,,,,,,,,,,,,,,,,,,,,,,,,,,,,,,,,893010,001,2024-08-04_14h43.37.994,5-32 ready-Group3 English Trained,2024.1.5,None,2024-08-04 14h43.43.157519 +0900,
Images/Speaker1.jpg,Images/Speaker2.jpg,Images/Speaker3.jpg,Images/Speaker4.jpg,Audio/Speaker2_En/P2-19-En.wav,Speaker2,گوینده۲,,,,,,,,0,0,0,72,0,7,7,38,,,,,107.84586945800038,,,,,,,,,,,,,,,,,,,,,,,,,,,,,,,,,,,,,,,,,,,,,,,,,,,,,,,,,,,,,,,,,,,,107.82684674999837,107.84586945800038,107.84586945800038,107.84586945800038,107.84586945800038,107.84179737466572,107.84586945800038,107.84586945800038,107.84586945800038,109.40367074999813,Correct!,1,1,2,1.5512473749986384,None,109.40755849999914,109.41403575000004,111.41862537499765,111.39764645800096,111.39765591600008,111.39777279099872,[],[],[],[],[],[],[],False,,,,,,,,,,,,,,,,,,,,,,,,,,,,,,,,,,,,,893010,001,2024-08-04_14h43.37.994,5-32 ready-Group3 English Trained,2024.1.5,None,2024-08-04 14h43.43.157519 +0900,
Images/Speaker1.jpg,Images/Speaker2.jpg,Images/Speaker3.jpg,Images/Speaker4.jpg,Audio/Speaker2_En/P2-8-En.wav,Speaker2,گوینده۲,,,,,,,,0,0,0,72,0,8,8,27,,,,,111.41862537499765,,,,,,,,,,,,,,,,,,,,,,,,,,,,,,,,,,,,,,,,,,,,,,,,,,,,,,,,,,,,,,,,,,,,111.39821104099974,111.41862537499765,111.41862537499765,111.41862537499765,111.41862537499765,111.41411262466524,111.41862537499765,111.41862537499765,111.41862537499765,114.05087400000048,Correct!,1,1,2,2.6297540000014124,None,114.05478849999781,114.06096212500051,116.06371845800095,116.04569695800092,116.04570987499756,116.04583933300091,[],[],[],[],[],[],[],False,,,,,,,,,,,,,,,,,,,,,,,,,,,,,,,,,,,,,893010,001,2024-08-04_14h43.37.994,5-32 ready-Group3 English Trained,2024.1.5,None,2024-08-04 14h43.43.157519 +0900,
Images/Speaker1.jpg,Images/Speaker2.jpg,Images/Speaker3.jpg,Images/Speaker4.jpg,Audio/Speaker3_En/P3-20-En.wav,Speaker3,گوینده۳,,,,,,,,0,0,0,72,0,9,9,59,,,,,116.06371845800095,,,,,,,,,,,,,,,,,,,,,,,,,,,,,,,,,,,,,,,,,,,,,,,,,,,,,,,,,,,,,,,,,,,,116.04628108299949,116.06371845800095,116.06371845800095,116.06371845800095,116.06371845800095,116.06217120766475,116.06371845800095,116.06371845800095,116.06371845800095,118.12149287499778,Correct!,1,1,3,2.0493239579991496,None,118.12573483300002,118.13267058299971,120.13652179099881,120.11826712499897,120.11827645800076,120.11840683300034,[],[],[],[],[],[],[],False,,,,,,,,,,,,,,,,,,,,,,,,,,,,,,,,,,,,,893010,001,2024-08-04_14h43.37.994,5-32 ready-Group3 English Trained,2024.1.5,None,2024-08-04 14h43.43.157519 +0900,
Images/Speaker1.jpg,Images/Speaker2.jpg,Images/Speaker3.jpg,Images/Speaker4.jpg,Audio/Speaker4_En/P4-17-En.wav,Speaker4,گوینده۴,,,,,,,,0,0,0,72,0,10,10,76,,,,,120.13652179099881,,,,,,,,,,,,,,,,,,,,,,,,,,,,,,,,,,,,,,,,,,,,,,,,,,,,,,,,,,,,,,,,,,,,120.11883058300009,120.13652179099881,120.13652179099881,120.13652179099881,120.13652179099881,120.13471408266584,120.13652179099881,120.13652179099881,120.13652179099881,122.30201649999799,Correct!,1,1,4,2.162165665999055,None,122.30582220799988,122.31239754099806,124.32674279099956,124.30586337500063,124.30589454099754,124.30637591599952,[],[],[],[],[],[],[],False,,,,,,,,,,,,,,,,,,,,,,,,,,,,,,,,,,,,,893010,001,2024-08-04_14h43.37.994,5-32 ready-Group3 English Trained,2024.1.5,None,2024-08-04 14h43.43.157519 +0900,
Images/Speaker1.jpg,Images/Speaker2.jpg,Images/Speaker3.jpg,Images/Speaker4.jpg,Audio/Speaker1_En/P1-13-En.wav,Speaker1,گوینده ۱,,,,,,,,0,0,0,72,0,11,11,12,,,,,124.32674279099956,,,,,,,,,,,,,,,,,,,,,,,,,,,,,,,,,,,,,,,,,,,,,,,,,,,,,,,,,,,,,,,,,,,,124.30727408299936,124.32674279099956,124.32674279099956,124.32674279099956,124.32674279099956,124.32178562466676,124.32674279099956,124.32674279099956,124.32674279099956,127.24368825000056,Correct!,1,1,1,2.907019250000303,None,127.24760199999946,127.25443766600074,,129.2477774580002,129.24781237500065,129.24819258299976,[],[],[],[],[],[],[],False,,,,,,,,,,,,,,,,,,,,,,,,,,,,,,,,,,,,,893010,001,2024-08-04_14h43.37.994,5-32 ready-Group3 English Trained,2024.1.5,None,2024-08-04 14h43.43.157519 +0900,
Images/Speaker1.jpg,Images/Speaker2.jpg,Images/Speaker3.jpg,Images/Speaker4.jpg,Audio/Speaker3_En/P3-13-En.wav,Speaker3,گوینده۳,,,,,,,,0,0,0,72,0,12,12,52,,,,,129.2742631250003,,,,,,,,,,,,,,,,,,,,,,,,,,,,,,,,,,,,,,,,,,,,,,,,,,,,,,,,,,,,,,,,,,,,129.24955595799838,129.2742631250003,129.2742631250003,129.2742631250003,129.2742631250003,129.2642782496662,129.2742631250003,129.2742631250003,129.2742631250003,129.58287112499966,Incorrect! The correct answer is Speaker3.,0,1,1,0.3063171670000884,None,129.5867092499975,129.59755579099874,131.60167962500054,131.58196754099845,131.58197716599898,131.5820849999982,[],[],[],[],[],[],[],False,,,,,,,,,,,,,,,,,,,,,,,,,,,,,,,,,,,,,893010,001,2024-08-04_14h43.37.994,5-32 ready-Group3 English Trained,2024.1.5,None,2024-08-04 14h43.43.157519 +0900,
Images/Speaker1.jpg,Images/Speaker2.jpg,Images/Speaker3.jpg,Images/Speaker4.jpg,Audio/Speaker4_En/P4-5-En.wav,Speaker4,گوینده۴,,,,,,,,0,0,0,72,0,13,13,64,,,,,131.60167962500054,,,,,,,,,,,,,,,,,,,,,,,,,,,,,,,,,,,,,,,,,,,,,,,,,,,,,,,,,,,,,,,,,,,,131.5825246659988,131.60167962500054,131.60167962500054,131.60167962500054,131.60167962500054,131.59844620766697,131.60167962500054,131.60167962500054,131.60167962500054,131.89443587499773,Incorrect! The correct answer is Speaker4.,0,1,1,0.2817819999982021,None,131.8982947500008,131.90910170799907,133.917307290998,133.89255024999875,133.8925777910008,133.89294549999977,[],[],[],[],[],[],[],False,,,,,,,,,,,,,,,,,,,,,,,,,,,,,,,,,,,,,893010,001,2024-08-04_14h43.37.994,5-32 ready-Group3 English Trained,2024.1.5,None,2024-08-04 14h43.43.157519 +0900,
Images/Speaker1.jpg,Images/Speaker2.jpg,Images/Speaker3.jpg,Images/Speaker4.jpg,Audio/Speaker3_En/P3-2-En.wav,Speaker3,گوینده۳,,,,,,,,0,0,0,72,0,14,14,41,,,,,133.917307290998,,,,,,,,,,,,,,,,,,,,,,,,,,,,,,,,,,,,,,,,,,,,,,,,,,,,,,,,,,,,,,,,,,,,133.8944405830007,133.917307290998,133.917307290998,133.917307290998,133.917307290998,133.9249537493311,133.917307290998,133.917307290998,133.917307290998,134.10790512499807,Incorrect! The correct answer is Speaker3.,0,1,1,0.1879892920005659,None,134.11201670800074,134.12261112499982,136.13295233299868,136.11270462500033,136.11273141600032,136.11306224999862,[],[],[],[],[],[],[],False,,,,,,,,,,,,,,,,,,,,,,,,,,,,,,,,,,,,,893010,001,2024-08-04_14h43.37.994,5-32 ready-Group3 English Trained,2024.1.5,None,2024-08-04 14h43.43.157519 +0900,
Images/Speaker1.jpg,Images/Speaker2.jpg,Images/Speaker3.jpg,Images/Speaker4.jpg,Audio/Speaker1_En/P1-20-En.wav,Speaker1,گوینده ۱,,,,,,,,0,0,0,72,0,15,15,19,,,,,136.13295233299868,,,,,,,,,,,,,,,,,,,,,,,,,,,,,,,,,,,,,,,,,,,,,,,,,,,,,,,,,,,,,,,,,,,,136.11394124999788,136.13295233299868,136.13295233299868,136.13295233299868,136.13295233299868,136.12834995766414,136.13295233299868,136.13295233299868,136.13295233299868,136.155215666,Correct!,1,1,1,0.01749891600047704,None,136.15889500000048,136.1691672909983,138.17550791599933,138.15417579099812,138.15418541599865,138.15428450000036,[],[],[],[],[],[],[],False,,,,,,,,,,,,,,,,,,,,,,,,,,,,,,,,,,,,,893010,001,2024-08-04_14h43.37.994,5-32 ready-Group3 English Trained,2024.1.5,None,2024-08-04 14h43.43.157519 +0900,
Images/Speaker1.jpg,Images/Speaker2.jpg,Images/Speaker3.jpg,Images/Speaker4.jpg,Audio/Speaker1_En/P1-15-En.wav,Speaker1,گوینده ۱,,,,,,,,0,0,0,72,0,16,16,14,,,,,138.17550791599933,,,,,,,,,,,,,,,,,,,,,,,,,,,,,,,,,,,,,,,,,,,,,,,,,,,,,,,,,,,,,,,,,,,,138.1547327499975,138.17550791599933,138.17550791599933,138.17550791599933,138.17550791599933,138.17060591666475,138.17550791599933,138.17550791599933,138.17550791599933,138.49953779099815,Correct!,1,1,1,0.3195084170001792,None,138.50332649999837,138.5090899579991,140.51202579099845,140.49267045799934,140.49267970800065,140.49280862500018,[],[],[],[],[],[],[],False,,,,,,,,,,,,,,,,,,,,,,,,,,,,,,,,,,,,,893010,001,2024-08-04_14h43.37.994,5-32 ready-Group3 English Trained,2024.1.5,None,2024-08-04 14h43.43.157519 +0900,
Images/Speaker1.jpg,Images/Speaker2.jpg,Images/Speaker3.jpg,Images/Speaker4.jpg,Audio/Speaker2_En/P2-15-En.wav,Speaker2,گوینده۲,,,,,,,,0,0,0,72,0,17,17,34,,,,,140.51202579099845,,,,,,,,,,,,,,,,,,,,,,,,,,,,,,,,,,,,,,,,,,,,,,,,,,,,,,,,,,,,,,,,,,,,140.49320766600067,140.51202579099845,140.51202579099845,140.51202579099845,140.51202579099845,140.50913912466447,140.51202579099845,140.51202579099845,140.51202579099845,140.6354575410005,Incorrect! The correct answer is Speaker2.,0,1,1,0.12241979199825437,None,140.6395826250009,140.65024862499922,,142.64424179100024,142.64425095799743,142.6443784160001,[],[],[],[],[],[],[],False,,,,,,,,,,,,,,,,,,,,,,,,,,,,,,,,,,,,,893010,001,2024-08-04_14h43.37.994,5-32 ready-Group3 English Trained,2024.1.5,None,2024-08-04 14h43.43.157519 +0900,
Images/Speaker1.jpg,Images/Speaker2.jpg,Images/Speaker3.jpg,Images/Speaker4.jpg,Audio/Speaker3_En/P3-10-En.wav,Speaker3,گوینده۳,,,,,,,,0,0,0,72,0,18,18,49,,,,,142.6647726659976,,,,,,,,,,,,,,,,,,,,,,,,,,,,,,,,,,,,,,,,,,,,,,,,,,,,,,,,,,,,,,,,,,,,142.6447772499996,142.6647726659976,142.6647726659976,142.6647726659976,142.6647726659976,142.66087158266626,142.6647726659976,142.6647726659976,142.6647726659976,143.73280766599783,Incorrect! The correct answer is Speaker3.,0,1,1,1.06645995800136,None,143.7381601249981,143.7503771249976,145.75929941600043,145.73840504100008,145.73842791599964,145.73875279099957,[],[],[],[],[],[],[],False,,,,,,,,,,,,,,,,,,,,,,,,,,,,,,,,,,,,,893010,001,2024-08-04_14h43.37.994,5-32 ready-Group3 English Trained,2024.1.5,None,2024-08-04 14h43.43.157519 +0900,
Images/Speaker1.jpg,Images/Speaker2.jpg,Images/Speaker3.jpg,Images/Speaker4.jpg,Audio/Speaker3_En/P3-19-En.wav,Speaker3,گوینده۳,,,,,,,,0,0,0,72,0,19,19,58,,,,,145.75929941600043,,,,,,,,,,,,,,,,,,,,,,,,,,,,,,,,,,,,,,,,,,,,,,,,,,,,,,,,,,,,,,,,,,,,145.74010374999853,145.75929941600043,145.75929941600043,145.75929941600043,145.75929941600043,145.7540847916646,145.75929941600043,145.75929941600043,145.75929941600043,146.16294716599805,Incorrect! The correct answer is Speaker3.,0,1,1,0.4018138749997888,None,146.16679254100018,146.17343537499983,148.17964974999995,148.15991408300033,148.15992337499847,148.16004608299772,[],[],[],[],[],[],[],False,,,,,,,,,,,,,,,,,,,,,,,,,,,,,,,,,,,,,893010,001,2024-08-04_14h43.37.994,5-32 ready-Group3 English Trained,2024.1.5,None,2024-08-04 14h43.43.157519 +0900,
Images/Speaker1.jpg,Images/Speaker2.jpg,Images/Speaker3.jpg,Images/Speaker4.jpg,Audio/Speaker1_En/P1-19-En.wav,Speaker1,گوینده ۱,,,,,,,,0,0,0,72,0,20,20,18,,,,,148.17964974999995,,,,,,,,,,,,,,,,,,,,,,,,,,,,,,,,,,,,,,,,,,,,,,,,,,,,,,,,,,,,,,,,,,,,148.16048433299875,148.17964974999995,148.17964974999995,148.17964974999995,148.17964974999995,148.1763510826643,148.17964974999995,148.17964974999995,148.17964974999995,148.38725716599947,Correct!,1,1,1,0.20523066600071616,None,148.39147741600027,148.40160408299926,150.40601191599853,150.3885901249996,150.38860333299817,150.3887211250003,[],[],[],[],[],[],[],False,,,,,,,,,,,,,,,,,,,,,,,,,,,,,,,,,,,,,893010,001,2024-08-04_14h43.37.994,5-32 ready-Group3 English Trained,2024.1.5,None,2024-08-04 14h43.43.157519 +0900,
Images/Speaker1.jpg,Images/Speaker2.jpg,Images/Speaker3.jpg,Images/Speaker4.jpg,Audio/Speaker1_En/P1-18-En.wav,Speaker1,گوینده ۱,,,,,,,,0,0,0,72,0,21,21,17,,,,,150.40601191599853,,,,,,,,,,,,,,,,,,,,,,,,,,,,,,,,,,,,,,,,,,,,,,,,,,,,,,,,,,,,,,,,,,,,150.38916345799953,150.40601191599853,150.40601191599853,150.40601191599853,150.40601191599853,150.4050547076661,150.40601191599853,150.40601191599853,150.40601191599853,150.6008059579981,Correct!,1,1,1,0.18690262499876553,None,150.60462116599956,150.60755587499807,152.61897008300002,152.59842233299787,152.59846683299838,152.59897654099768,[],[],[],[],[],[],[],False,,,,,,,,,,,,,,,,,,,,,,,,,,,,,,,,,,,,,893010,001,2024-08-04_14h43.37.994,5-32 ready-Group3 English Trained,2024.1.5,None,2024-08-04 14h43.43.157519 +0900,
Images/Speaker1.jpg,Images/Speaker2.jpg,Images/Speaker3.jpg,Images/Speaker4.jpg,Audio/Speaker2_En/P2-11-En.wav,Speaker2,گوینده۲,,,,,,,,0,0,0,72,0,22,22,30,,,,,152.61897008300002,,,,,,,,,,,,,,,,,,,,,,,,,,,,,,,,,,,,,,,,,,,,,,,,,,,,,,,,,,,,,,,,,,,,152.60002029099996,152.61897008300002,152.61897008300002,152.61897008300002,152.61897008300002,152.61421116666705,152.61897008300002,152.61897008300002,152.61897008300002,152.65987658299855,Incorrect! The correct answer is Speaker2.,0,1,1,0.03248787499978789,None,152.66367645799983,152.67255274999843,154.67674808299853,154.656562958,154.65657287499926,154.65668837499834,[],[],[],[],[],[],[],False,,,,,,,,,,,,,,,,,,,,,,,,,,,,,,,,,,,,,893010,001,2024-08-04_14h43.37.994,5-32 ready-Group3 English Trained,2024.1.5,None,2024-08-04 14h43.43.157519 +0900,
Images/Speaker1.jpg,Images/Speaker2.jpg,Images/Speaker3.jpg,Images/Speaker4.jpg,Audio/Speaker3_En/P3-6-En.wav,Speaker3,گوینده۳,,,,,,,,0,0,0,72,0,23,23,45,,,,,154.67674808299853,,,,,,,,,,,,,,,,,,,,,,,,,,,,,,,,,,,,,,,,,,,,,,,,,,,,,,,,,,,,,,,,,,,,154.65713508299814,154.67674808299853,154.67674808299853,154.67674808299853,154.67674808299853,154.67303491666488,154.67674808299853,154.67674808299853,154.67674808299853,154.86623612499898,Incorrect! The correct answer is Speaker3.,0,1,1,0.18093770899940864,None,154.87003512500087,154.87850012499985,156.88876683299895,156.86776833299882,156.86777770799745,156.86790116599877,[],[],[],[],[],[],[],False,,,,,,,,,,,,,,,,,,,,,,,,,,,,,,,,,,,,,893010,001,2024-08-04_14h43.37.994,5-32 ready-Group3 English Trained,2024.1.5,None,2024-08-04 14h43.43.157519 +0900,
Images/Speaker1.jpg,Images/Speaker2.jpg,Images/Speaker3.jpg,Images/Speaker4.jpg,Audio/Speaker3_En/P3-14-En.wav,Speaker3,گوینده۳,,,,,,,,0,0,0,72,0,24,24,53,,,,,156.88876683299895,,,,,,,,,,,,,,,,,,,,,,,,,,,,,,,,,,,,,,,,,,,,,,,,,,,,,,,,,,,,,,,,,,,,156.86833341599777,156.88876683299895,156.88876683299895,156.88876683299895,156.88876683299895,156.8842405416656,156.88876683299895,156.88876683299895,156.88876683299895,157.07652858299844,Incorrect! The correct answer is Speaker3.,0,1,1,0.17903929100066307,None,157.0805502910007,157.08470866599964,159.08821854100097,159.06827599999815,159.06828587500058,159.06839920799757,[],[],[],[],[],[],[],False,,,,,,,,,,,,,,,,,,,,,,,,,,,,,,,,,,,,,893010,001,2024-08-04_14h43.37.994,5-32 ready-Group3 English Trained,2024.1.5,None,2024-08-04 14h43.43.157519 +0900,
Images/Speaker1.jpg,Images/Speaker2.jpg,Images/Speaker3.jpg,Images/Speaker4.jpg,Audio/Speaker1_En/P1-2-En.wav,Speaker1,گوینده ۱,,,,,,,,0,0,0,72,0,25,25,1,,,,,159.08821854100097,,,,,,,,,,,,,,,,,,,,,,,,,,,,,,,,,,,,,,,,,,,,,,,,,,,,,,,,,,,,,,,,,,,,159.0688289159989,159.08821854100097,159.08821854100097,159.08821854100097,159.08821854100097,159.08471820766525,159.08821854100097,159.08821854100097,159.08821854100097,159.1159621250008,Correct!,1,1,1,0.02323666699885507,None,159.11994458299887,159.13000349999857,161.13678900000014,161.11615399999937,161.11616325000068,161.11626591599997,[],[],[],[],[],[],[],False,,,,,,,,,,,,,,,,,,,,,,,,,,,,,,,,,,,,,893010,001,2024-08-04_14h43.37.994,5-32 ready-Group3 English Trained,2024.1.5,None,2024-08-04 14h43.43.157519 +0900,
Images/Speaker1.jpg,Images/Speaker2.jpg,Images/Speaker3.jpg,Images/Speaker4.jpg,Audio/Speaker2_En/P2-14-En.wav,Speaker2,گوینده۲,,,,,,,,0,0,0,72,0,26,26,33,,,,,161.13678900000014,,,,,,,,,,,,,,,,,,,,,,,,,,,,,,,,,,,,,,,,,,,,,,,,,,,,,,,,,,,,,,,,,,,,161.1167069999974,161.13678900000014,161.13678900000014,161.13678900000014,161.13678900000014,161.13256299966477,161.13678900000014,161.13678900000014,161.13678900000014,161.3448801659979,Incorrect! The correct answer is Speaker2.,0,1,1,0.19748504200106254,None,161.34875283300062,161.36001479100014,163.36364287499964,163.34423516599782,163.34424933300033,163.34436120800092,[],[],[],[],[],[],[],False,,,,,,,,,,,,,,,,,,,,,,,,,,,,,,,,,,,,,893010,001,2024-08-04_14h43.37.994,5-32 ready-Group3 English Trained,2024.1.5,None,2024-08-04 14h43.43.157519 +0900,
Images/Speaker1.jpg,Images/Speaker2.jpg,Images/Speaker3.jpg,Images/Speaker4.jpg,Audio/Speaker4_En/P4-13-En.wav,Speaker4,گوینده۴,,,,,,,,0,0,0,72,0,27,27,72,,,,,163.36364287499964,,,,,,,,,,,,,,,,,,,,,,,,,,,,,,,,,,,,,,,,,,,,,,,,,,,,,,,,,,,,,,,,,,,,163.34478945799856,163.36364287499964,163.36364287499964,163.36364287499964,163.36364287499964,163.36069187466663,163.36364287499964,163.36364287499964,163.36364287499964,163.58862295799918,Incorrect! The correct answer is Speaker4.,0,1,1,0.22053254099955666,None,163.5927912499974,163.60341933299787,,165.59620583300057,165.59625316600068,165.5966577500003,[],[],[],[],[],[],[],False,,,,,,,,,,,,,,,,,,,,,,,,,,,,,,,,,,,,,893010,001,2024-08-04_14h43.37.994,5-32 ready-Group3 English Trained,2024.1.5,None,2024-08-04 14h43.43.157519 +0900,
Images/Speaker1.jpg,Images/Speaker2.jpg,Images/Speaker3.jpg,Images/Speaker4.jpg,Audio/Speaker4_En/P4-20-En.wav,Speaker4,گوینده۴,,,,,,,,0,0,0,72,0,28,28,79,,,,,165.61757170800047,,,,,,,,,,,,,,,,,,,,,,,,,,,,,,,,,,,,,,,,,,,,,,,,,,,,,,,,,,,,,,,,,,,,165.5980466660003,165.61757170800047,165.61757170800047,165.61757170800047,165.61757170800047,165.612665957666,165.61757170800047,165.61757170800047,165.61757170800047,165.81688033300088,Incorrect! The correct answer is Speaker4.,0,1,1,0.19192649999968125,None,165.82063075000042,165.82419645799746,167.8262114579993,167.80702725000083,167.80703691599774,167.80715908300044,[],[],[],[],[],[],[],False,,,,,,,,,,,,,,,,,,,,,,,,,,,,,,,,,,,,,893010,001,2024-08-04_14h43.37.994,5-32 ready-Group3 English Trained,2024.1.5,None,2024-08-04 14h43.43.157519 +0900,
Images/Speaker1.jpg,Images/Speaker2.jpg,Images/Speaker3.jpg,Images/Speaker4.jpg,Audio/Speaker2_En/P2-17-En.wav,Speaker2,گوینده۲,,,,,,,,0,0,0,72,0,29,29,36,,,,,167.8262114579993,,,,,,,,,,,,,,,,,,,,,,,,,,,,,,,,,,,,,,,,,,,,,,,,,,,,,,,,,,,,,,,,,,,,167.8075824160005,167.8262114579993,167.8262114579993,167.8262114579993,167.8262114579993,167.82349595766598,167.8262114579993,167.8262114579993,167.8262114579993,168.012760540998,Incorrect! The correct answer is Speaker2.,0,1,1,0.17957716599994455,None,168.01655495799787,168.02743979099978,,170.02193958299904,170.0219648329985,170.02228249999825,[],[],[],[],[],[],[],False,,,,,,,,,,,,,,,,,,,,,,,,,,,,,,,,,,,,,893010,001,2024-08-04_14h43.37.994,5-32 ready-Group3 English Trained,2024.1.5,None,2024-08-04 14h43.43.157519 +0900,
Images/Speaker1.jpg,Images/Speaker2.jpg,Images/Speaker3.jpg,Images/Speaker4.jpg,Audio/Speaker1_En/P1-9-En.wav,Speaker1,گوینده ۱,,,,,,,,0,0,0,72,0,30,30,8,,,,,170.04561341599765,,,,,,,,,,,,,,,,,,,,,,,,,,,,,,,,,,,,,,,,,,,,,,,,,,,,,,,,,,,,,,,,,,,,170.02364620799926,170.04561341599765,170.04561341599765,170.04561341599765,170.04561341599765,170.0551137913322,170.04561341599765,170.04561341599765,170.04561341599765,170.27849912500096,Correct!,1,1,1,0.23176487499949872,None,170.2822322079992,170.29291345800084,172.29909062499792,172.27874408299976,172.2787913329994,172.27913958299905,[],[],[],[],[],[],[],False,,,,,,,,,,,,,,,,,,,,,,,,,,,,,,,,,,,,,893010,001,2024-08-04_14h43.37.994,5-32 ready-Group3 English Trained,2024.1.5,None,2024-08-04 14h43.43.157519 +0900,
Images/Speaker1.jpg,Images/Speaker2.jpg,Images/Speaker3.jpg,Images/Speaker4.jpg,Audio/Speaker4_En/P4-16-En.wav,Speaker4,گوینده۴,,,,,,,,0,0,0,72,0,31,31,75,,,,,172.29909062499792,,,,,,,,,,,,,,,,,,,,,,,,,,,,,,,,,,,,,,,,,,,,,,,,,,,,,,,,,,,,,,,,,,,,172.28032029099995,172.29909062499792,172.29909062499792,172.29909062499792,172.29909062499792,172.29496770766517,172.29909062499792,172.29909062499792,172.29909062499792,172.50031725000008,Incorrect! The correct answer is Speaker4.,0,1,1,0.19858116600153153,None,172.50408812499882,172.51543341599972,,174.51241708299858,174.5124564580001,174.51285479099897,[],[],[],[],[],[],[],False,,,,,,,,,,,,,,,,,,,,,,,,,,,,,,,,,,,,,893010,001,2024-08-04_14h43.37.994,5-32 ready-Group3 English Trained,2024.1.5,None,2024-08-04 14h43.43.157519 +0900,
Images/Speaker1.jpg,Images/Speaker2.jpg,Images/Speaker3.jpg,Images/Speaker4.jpg,Audio/Speaker4_En/P4-12-En.wav,Speaker4,گوینده۴,,,,,,,,0,0,0,72,0,32,32,71,,,,,174.53386604099796,,,,,,,,,,,,,,,,,,,,,,,,,,,,,,,,,,,,,,,,,,,,,,,,,,,,,,,,,,,,,,,,,,,,174.51415083299798,174.53386604099796,174.53386604099796,174.53386604099796,174.53386604099796,174.52893287466603,174.53386604099796,174.53386604099796,174.53386604099796,174.6749449159979,Incorrect! The correct answer is Speaker4.,0,1,1,0.13852708299964434,None,174.6791066250007,174.68521474999943,176.68684491599925,176.6682141659985,176.66822395800045,176.66835337500015,[],[],[],[],[],[],[],False,,,,,,,,,,,,,,,,,,,,,,,,,,,,,,,,,,,,,893010,001,2024-08-04_14h43.37.994,5-32 ready-Group3 English Trained,2024.1.5,None,2024-08-04 14h43.43.157519 +0900,
Images/Speaker1.jpg,Images/Speaker2.jpg,Images/Speaker3.jpg,Images/Speaker4.jpg,Audio/Speaker2_En/P2-6-En.wav,Speaker2,گوینده۲,,,,,,,,0,0,0,72,0,33,33,25,,,,,176.68684491599925,,,,,,,,,,,,,,,,,,,,,,,,,,,,,,,,,,,,,,,,,,,,,,,,,,,,,,,,,,,,,,,,,,,,176.6687442500006,176.68684491599925,176.68684491599925,176.68684491599925,176.68684491599925,176.68465549966666,176.68684491599925,176.68684491599925,176.68684491599925,176.82909599999766,Incorrect! The correct answer is Speaker2.,0,1,1,0.13767970799744944,None,176.833161999999,176.84400695799923,,178.83714387500004,178.83718283299822,178.83758354100064,[],[],[],[],[],[],[],False,,,,,,,,,,,,,,,,,,,,,,,,,,,,,,,,,,,,,893010,001,2024-08-04_14h43.37.994,5-32 ready-Group3 English Trained,2024.1.5,None,2024-08-04 14h43.43.157519 +0900,
Images/Speaker1.jpg,Images/Speaker2.jpg,Images/Speaker3.jpg,Images/Speaker4.jpg,Audio/Speaker2_En/P2-1-En.wav,Speaker2,گوینده۲,,,,,,,,0,0,0,72,0,34,34,20,,,,,178.85790095799894,,,,,,,,,,,,,,,,,,,,,,,,,,,,,,,,,,,,,,,,,,,,,,,,,,,,,,,,,,,,,,,,,,,,178.83889441599968,178.85790095799894,178.85790095799894,178.85790095799894,178.85790095799894,178.85365949966607,178.85790095799894,178.85790095799894,178.85790095799894,179.0669949160001,Incorrect! The correct answer is Speaker2.,0,1,1,0.20128758400096558,None,179.07134154099913,179.07480287499857,181.08319641599883,181.0611883749989,181.06122041599883,181.06171899999754,[],[],[],[],[],[],[],False,,,,,,,,,,,,,,,,,,,,,,,,,,,,,,,,,,,,,893010,001,2024-08-04_14h43.37.994,5-32 ready-Group3 English Trained,2024.1.5,None,2024-08-04 14h43.43.157519 +0900,
Images/Speaker1.jpg,Images/Speaker2.jpg,Images/Speaker3.jpg,Images/Speaker4.jpg,Audio/Speaker3_En/P3-16-En.wav,Speaker3,گوینده۳,,,,,,,,0,0,0,72,0,35,35,55,,,,,181.08319641599883,,,,,,,,,,,,,,,,,,,,,,,,,,,,,,,,,,,,,,,,,,,,,,,,,,,,,,,,,,,,,,,,,,,,181.06336445799752,181.08319641599883,181.08319641599883,181.08319641599883,181.08319641599883,181.07711637466517,181.08319641599883,181.08319641599883,181.08319641599883,181.30838637499983,Incorrect! The correct answer is Speaker3.,0,1,1,0.22043899999698624,None,181.31225979100054,181.32322416600073,183.3277754160008,183.308633749999,183.30864304100032,183.30875633300093,[],[],[],[],[],[],[],False,,,,,,,,,,,,,,,,,,,,,,,,,,,,,,,,,,,,,893010,001,2024-08-04_14h43.37.994,5-32 ready-Group3 English Trained,2024.1.5,None,2024-08-04 14h43.43.157519 +0900,
Images/Speaker1.jpg,Images/Speaker2.jpg,Images/Speaker3.jpg,Images/Speaker4.jpg,Audio/Speaker2_En/P2-12-En.wav,Speaker2,گوینده۲,,,,,,,,0,0,0,72,0,36,36,31,,,,,183.3277754160008,,,,,,,,,,,,,,,,,,,,,,,,,,,,,,,,,,,,,,,,,,,,,,,,,,,,,,,,,,,,,,,,,,,,183.30918608299908,183.3277754160008,183.3277754160008,183.3277754160008,183.3277754160008,183.3250642496644,183.3277754160008,183.3277754160008,183.3277754160008,183.62200012500034,Incorrect! The correct answer is Speaker2.,0,1,1,0.286665957999503,None,183.62601899999936,183.63679645799857,185.64024449999852,185.62031345799915,185.62034395799856,185.62081924999802,[],[],[],[],[],[],[],False,,,,,,,,,,,,,,,,,,,,,,,,,,,,,,,,,,,,,893010,001,2024-08-04_14h43.37.994,5-32 ready-Group3 English Trained,2024.1.5,None,2024-08-04 14h43.43.157519 +0900,
Images/Speaker1.jpg,Images/Speaker2.jpg,Images/Speaker3.jpg,Images/Speaker4.jpg,Audio/Speaker1_En/P1-8-En.wav,Speaker1,گوینده ۱,,,,,,,,0,0,0,72,0,37,37,7,,,,,185.64024449999852,,,,,,,,,,,,,,,,,,,,,,,,,,,,,,,,,,,,,,,,,,,,,,,,,,,,,,,,,,,,,,,,,,,,185.6218088329988,185.64024449999852,185.64024449999852,185.64024449999852,185.64024449999852,185.63616641666547,185.64024449999852,185.64024449999852,185.64024449999852,185.8536709580003,Correct!,1,1,1,0.20875633399919025,None,185.85759487500036,185.86794529100007,187.8744354579976,187.8541700829992,187.8542051250006,187.85455904099945,[],[],[],[],[],[],[],False,,,,,,,,,,,,,,,,,,,,,,,,,,,,,,,,,,,,,893010,001,2024-08-04_14h43.37.994,5-32 ready-Group3 English Trained,2024.1.5,None,2024-08-04 14h43.43.157519 +0900,
Images/Speaker1.jpg,Images/Speaker2.jpg,Images/Speaker3.jpg,Images/Speaker4.jpg,Audio/Speaker3_En/P3-17-En.wav,Speaker3,گوینده۳,,,,,,,,0,0,0,72,0,38,38,56,,,,,187.8744354579976,,,,,,,,,,,,,,,,,,,,,,,,,,,,,,,,,,,,,,,,,,,,,,,,,,,,,,,,,,,,,,,,,,,,187.85547004099863,187.8744354579976,187.8744354579976,187.8744354579976,187.8744354579976,187.86999329166454,187.8744354579976,187.8744354579976,187.8744354579976,188.01984358299887,Incorrect! The correct answer is Speaker3.,0,1,1,0.13952200000130688,None,188.02365529099916,188.0342763330009,190.04411504100062,190.0227428750004,190.02275687499787,190.0228721659987,[],[],[],[],[],[],[],False,,,,,,,,,,,,,,,,,,,,,,,,,,,,,,,,,,,,,893010,001,2024-08-04_14h43.37.994,5-32 ready-Group3 English Trained,2024.1.5,None,2024-08-04 14h43.43.157519 +0900,
Images/Speaker1.jpg,Images/Speaker2.jpg,Images/Speaker3.jpg,Images/Speaker4.jpg,Audio/Speaker4_En/P4-14-En.wav,Speaker4,گوینده۴,,,,,,,,0,0,0,72,0,39,39,73,,,,,190.04411504100062,,,,,,,,,,,,,,,,,,,,,,,,,,,,,,,,,,,,,,,,,,,,,,,,,,,,,,,,,,,,,,,,,,,,190.02329554099924,190.04411504100062,190.04411504100062,190.04411504100062,190.04411504100062,190.03909983266593,190.04411504100062,190.04411504100062,190.04411504100062,190.32167995800046,Incorrect! The correct answer is Speaker4.,0,1,1,0.27182854099737597,None,190.32673020799848,190.3398830829974,,192.32962579100058,192.32965433299978,202.19509537499835,[0.008146639511201629],[-0.18839103869653767],[1],[0],[0],[9.8644295410013],['checkbox3'],True,192.34481562499786,0.0032619580015307292,192.34481562499786,192.34481562499786,,,,,,,,,,,,,,,,,,,,,,,,,,,,,,,,,893010,001,2024-08-04_14h43.37.994,5-32 ready-Group3 English Trained,2024.1.5,None,2024-08-04 14h43.43.157519 +0900,
Images/Speaker1.jpg,Images/Speaker2.jpg,Images/Speaker3.jpg,Images/Speaker4.jpg,Audio/Speaker3_En/P3-9-En.wav,Speaker3,گوینده۳,,,,,,,,0,0,0,72,0,40,40,48,,,,,202.21314795799844,,,,,,,,,,,,,,,,,,,,,,,,,,,,,,,,,,,,,,,,,,,,,,,,,,,,,,,,,,,,,,,,,,,,202.19560666599864,202.21314795799844,202.21314795799844,202.21314795799844,202.21314795799844,202.21087591666608,202.21314795799844,202.21314795799844,202.21314795799844,203.68326695799988,Incorrect! The correct answer is Speaker3.,0,1,1,1.469023958001344,None,203.68708137499925,203.69833029099755,205.70373924999876,205.68282512500082,205.6828683749991,205.68330208299813,[],[],[],[],[],[],[],False,,,,,,,,,,,,,,,,,,,,,,,,,,,,,,,,,,,,,893010,001,2024-08-04_14h43.37.994,5-32 ready-Group3 English Trained,2024.1.5,None,2024-08-04 14h43.43.157519 +0900,
Images/Speaker1.jpg,Images/Speaker2.jpg,Images/Speaker3.jpg,Images/Speaker4.jpg,Audio/Speaker1_En/P1-11-En.wav,Speaker1,گوینده ۱,,,,,,,,0,0,0,72,0,41,41,10,,,,,205.70373924999876,,,,,,,,,,,,,,,,,,,,,,,,,,,,,,,,,,,,,,,,,,,,,,,,,,,,,,,,,,,,,,,,,,,,205.68462374999945,205.70373924999876,205.70373924999876,205.70373924999876,205.70373924999876,205.69878399966572,205.70373924999876,205.70373924999876,205.70373924999876,205.86629304099915,Correct!,1,1,1,0.16039770799761754,None,205.8701946250003,205.8803465409983,207.8849300410002,207.86414054099805,207.8641496659984,207.8642531250007,[],[],[],[],[],[],[],False,,,,,,,,,,,,,,,,,,,,,,,,,,,,,,,,,,,,,893010,001,2024-08-04_14h43.37.994,5-32 ready-Group3 English Trained,2024.1.5,None,2024-08-04 14h43.43.157519 +0900,
Images/Speaker1.jpg,Images/Speaker2.jpg,Images/Speaker3.jpg,Images/Speaker4.jpg,Audio/Speaker4_En/P4-3-En.wav,Speaker4,گوینده۴,,,,,,,,0,0,0,72,0,42,42,62,,,,,207.8849300410002,,,,,,,,,,,,,,,,,,,,,,,,,,,,,,,,,,,,,,,,,,,,,,,,,,,,,,,,,,,,,,,,,,,,207.86561000000074,207.8849300410002,207.8849300410002,207.8849300410002,207.8849300410002,207.88058762466633,207.8849300410002,207.8849300410002,207.8849300410002,208.16650687500078,Incorrect! The correct answer is Speaker4.,0,1,1,0.278960832998564,None,208.17052087499906,208.18141454099896,,210.1726386659975,210.17267516599895,210.17302308299986,[],[],[],[],[],[],[],False,,,,,,,,,,,,,,,,,,,,,,,,,,,,,,,,,,,,,893010,001,2024-08-04_14h43.37.994,5-32 ready-Group3 English Trained,2024.1.5,None,2024-08-04 14h43.43.157519 +0900,
Images/Speaker1.jpg,Images/Speaker2.jpg,Images/Speaker3.jpg,Images/Speaker4.jpg,Audio/Speaker4_En/P4-1-En.wav,Speaker4,گوینده۴,,,,,,,,0,0,0,72,0,43,43,60,,,,,210.1965421249988,,,,,,,,,,,,,,,,,,,,,,,,,,,,,,,,,,,,,,,,,,,,,,,,,,,,,,,,,,,,,,,,,,,,210.17448054099805,210.1965421249988,210.1965421249988,210.1965421249988,210.1965421249988,210.20582966633134,210.1965421249988,210.1965421249988,210.1965421249988,210.2529759579993,Incorrect! The correct answer is Speaker4.,0,1,1,0.04760041699773865,None,210.2571093330007,210.26342170799762,212.26741416599907,212.24777058299878,212.24778074999995,212.24788895799793,[],[],[],[],[],[],[],False,,,,,,,,,,,,,,,,,,,,,,,,,,,,,,,,,,,,,893010,001,2024-08-04_14h43.37.994,5-32 ready-Group3 English Trained,2024.1.5,None,2024-08-04 14h43.43.157519 +0900,
Images/Speaker1.jpg,Images/Speaker2.jpg,Images/Speaker3.jpg,Images/Speaker4.jpg,Audio/Speaker4_En/P4-2-En.wav,Speaker4,گوینده۴,,,,,,,,0,0,0,72,0,44,44,61,,,,,212.26741416599907,,,,,,,,,,,,,,,,,,,,,,,,,,,,,,,,,,,,,,,,,,,,,,,,,,,,,,,,,,,,,,,,,,,,212.24829483299982,212.26741416599907,212.26741416599907,212.26741416599907,212.26741416599907,212.26422470766582,212.26741416599907,212.26741416599907,212.26741416599907,212.52755216600053,Incorrect! The correct answer is Speaker4.,0,1,1,0.25891416699960246,None,212.53175737499987,212.5377262080001,214.5413621250009,214.52173145800043,214.5217589999993,214.52204699999857,[],[],[],[],[],[],[],False,,,,,,,,,,,,,,,,,,,,,,,,,,,,,,,,,,,,,893010,001,2024-08-04_14h43.37.994,5-32 ready-Group3 English Trained,2024.1.5,None,2024-08-04 14h43.43.157519 +0900,
Images/Speaker1.jpg,Images/Speaker2.jpg,Images/Speaker3.jpg,Images/Speaker4.jpg,Audio/Speaker2_En/P2-7-En.wav,Speaker2,گوینده۲,,,,,,,,0,0,0,72,0,45,45,26,,,,,214.5413621250009,,,,,,,,,,,,,,,,,,,,,,,,,,,,,,,,,,,,,,,,,,,,,,,,,,,,,,,,,,,,,,,,,,,,214.52329191600074,214.5413621250009,214.5413621250009,214.5413621250009,214.5413621250009,214.53752574966737,214.5413621250009,214.5413621250009,214.5413621250009,214.99229733299944,Incorrect! The correct answer is Speaker2.,0,1,1,0.44807420799770625,None,214.99628462499822,215.00735829100086,217.0100912079979,216.99018245799743,216.99019604099885,216.99030829099866,[],[],[],[],[],[],[],False,,,,,,,,,,,,,,,,,,,,,,,,,,,,,,,,,,,,,893010,001,2024-08-04_14h43.37.994,5-32 ready-Group3 English Trained,2024.1.5,None,2024-08-04 14h43.43.157519 +0900,
Images/Speaker1.jpg,Images/Speaker2.jpg,Images/Speaker3.jpg,Images/Speaker4.jpg,Audio/Speaker2_En/P2-4-En.wav,Speaker2,گوینده۲,,,,,,,,0,0,0,72,0,46,46,23,,,,,217.0100912079979,,,,,,,,,,,,,,,,,,,,,,,,,,,,,,,,,,,,,,,,,,,,,,,,,,,,,,,,,,,,,,,,,,,,216.99076291600068,217.0100912079979,217.0100912079979,217.0100912079979,217.0100912079979,217.00657462466577,217.0100912079979,217.0100912079979,217.0100912079979,217.31137891599792,Incorrect! The correct answer is Speaker2.,0,1,1,0.29417158299838775,None,217.31558324999787,217.31955762500002,219.33350833299846,219.31451537499743,219.3145247499997,219.31463062499824,[],[],[],[],[],[],[],False,,,,,,,,,,,,,,,,,,,,,,,,,,,,,,,,,,,,,893010,001,2024-08-04_14h43.37.994,5-32 ready-Group3 English Trained,2024.1.5,None,2024-08-04 14h43.43.157519 +0900,
Images/Speaker1.jpg,Images/Speaker2.jpg,Images/Speaker3.jpg,Images/Speaker4.jpg,Audio/Speaker2_En/P2-5-En.wav,Speaker2,گوینده۲,,,,,,,,0,0,0,72,0,47,47,24,,,,,219.33350833299846,,,,,,,,,,,,,,,,,,,,,,,,,,,,,,,,,,,,,,,,,,,,,,,,,,,,,,,,,,,,,,,,,,,,219.31507520800005,219.33350833299846,219.33350833299846,219.33350833299846,219.33350833299846,219.3309468746668,219.33350833299846,219.33350833299846,219.33350833299846,219.68876699999964,Incorrect! The correct answer is Speaker2.,0,1,1,0.34848212500219233,None,219.6927734159981,219.69936104099907,,221.69641591599793,221.6964316659978,221.69656429099996,[],[],[],[],[],[],[],False,,,,,,,,,,,,,,,,,,,,,,,,,,,,,,,,,,,,,893010,001,2024-08-04_14h43.37.994,5-32 ready-Group3 English Trained,2024.1.5,None,2024-08-04 14h43.43.157519 +0900,
Images/Speaker1.jpg,Images/Speaker2.jpg,Images/Speaker3.jpg,Images/Speaker4.jpg,Audio/Speaker2_En/P2-13-En.wav,Speaker2,گوینده۲,,,,,,,,0,0,0,72,0,48,48,32,,,,,221.715544374998,,,,,,,,,,,,,,,,,,,,,,,,,,,,,,,,,,,,,,,,,,,,,,,,,,,,,,,,,,,,,,,,,,,,221.6969908329993,221.715544374998,221.715544374998,221.715544374998,221.715544374998,221.71303508266672,221.715544374998,221.715544374998,221.715544374998,221.94285112500074,Incorrect! The correct answer is Speaker2.,0,1,1,0.2187377500013099,None,221.9469419579982,221.95101283300028,223.96209912499762,223.94110445799743,223.9411413329981,223.94166704099916,[],[],[],[],[],[],[],False,,,,,,,,,,,,,,,,,,,,,,,,,,,,,,,,,,,,,893010,001,2024-08-04_14h43.37.994,5-32 ready-Group3 English Trained,2024.1.5,None,2024-08-04 14h43.43.157519 +0900,
Images/Speaker1.jpg,Images/Speaker2.jpg,Images/Speaker3.jpg,Images/Speaker4.jpg,Audio/Speaker4_En/P4-18-En.wav,Speaker4,گوینده۴,,,,,,,,0,0,0,72,0,49,49,77,,,,,223.96209912499762,,,,,,,,,,,,,,,,,,,,,,,,,,,,,,,,,,,,,,,,,,,,,,,,,,,,,,,,,,,,,,,,,,,,223.94318470799772,223.96209912499762,223.96209912499762,223.96209912499762,223.96209912499762,223.9569684576675,223.96209912499762,223.96209912499762,223.96209912499762,224.23401383300006,Incorrect! The correct answer is Speaker4.,0,1,1,0.2693327089982631,None,224.2381206659993,224.2499934160005,226.26027095799873,226.23840287499843,226.2384296659984,226.2387639160006,[],[],[],[],[],[],[],False,,,,,,,,,,,,,,,,,,,,,,,,,,,,,,,,,,,,,893010,001,2024-08-04_14h43.37.994,5-32 ready-Group3 English Trained,2024.1.5,None,2024-08-04 14h43.43.157519 +0900,
Images/Speaker1.jpg,Images/Speaker2.jpg,Images/Speaker3.jpg,Images/Speaker4.jpg,Audio/Speaker4_En/P4-9-En.wav,Speaker4,گوینده۴,,,,,,,,0,0,0,72,0,50,50,68,,,,,226.26027095799873,,,,,,,,,,,,,,,,,,,,,,,,,,,,,,,,,,,,,,,,,,,,,,,,,,,,,,,,,,,,,,,,,,,,226.24013312500028,226.26027095799873,226.26027095799873,226.26027095799873,226.26027095799873,226.25416174966475,226.26027095799873,226.26027095799873,226.26027095799873,226.8874441250009,Incorrect! The correct answer is Speaker4.,0,1,1,0.6235578749983688,None,226.89155758299967,226.89831379099996,228.90355933300089,228.88162349999766,228.88165324999864,228.88216429100066,[],[],[],[],[],[],[],False,,,,,,,,,,,,,,,,,,,,,,,,,,,,,,,,,,,,,893010,001,2024-08-04_14h43.37.994,5-32 ready-Group3 English Trained,2024.1.5,None,2024-08-04 14h43.43.157519 +0900,
Images/Speaker1.jpg,Images/Speaker2.jpg,Images/Speaker3.jpg,Images/Speaker4.jpg,Audio/Speaker4_En/P4-15-En.wav,Speaker4,گوینده۴,,,,,,,,0,0,0,72,0,51,51,74,,,,,228.90355933300089,,,,,,,,,,,,,,,,,,,,,,,,,,,,,,,,,,,,,,,,,,,,,,,,,,,,,,,,,,,,,,,,,,,,228.883456208001,228.90355933300089,228.90355933300089,228.90355933300089,228.90355933300089,228.8974044166646,228.90355933300089,228.90355933300089,228.90355933300089,229.1469360409974,Incorrect! The correct answer is Speaker4.,0,1,1,0.23806025000158115,None,229.15090116599822,229.1576573329985,231.16774654099936,231.1447992909998,231.14482445799877,231.14520866599923,[],[],[],[],[],[],[],False,,,,,,,,,,,,,,,,,,,,,,,,,,,,,,,,,,,,,893010,001,2024-08-04_14h43.37.994,5-32 ready-Group3 English Trained,2024.1.5,None,2024-08-04 14h43.43.157519 +0900,
Images/Speaker1.jpg,Images/Speaker2.jpg,Images/Speaker3.jpg,Images/Speaker4.jpg,Audio/Speaker1_En/P1-5-En.wav,Speaker1,گوینده ۱,,,,,,,,0,0,0,72,0,52,52,4,,,,,231.16774654099936,,,,,,,,,,,,,,,,,,,,,,,,,,,,,,,,,,,,,,,,,,,,,,,,,,,,,,,,,,,,,,,,,,,,231.14684454099915,231.16774654099936,231.16774654099936,231.16774654099936,231.16774654099936,231.17743737433244,231.16774654099936,231.16774654099936,231.16774654099936,231.3703696659977,Correct!,1,1,1,0.2016632920021948,None,231.37440174999938,231.38504366599955,233.38935712500097,233.3702140409987,233.37025520799943,233.37039775000085,[],[],[],[],[],[],[],False,,,,,,,,,,,,,,,,,,,,,,,,,,,,,,,,,,,,,893010,001,2024-08-04_14h43.37.994,5-32 ready-Group3 English Trained,2024.1.5,None,2024-08-04 14h43.43.157519 +0900,
Images/Speaker1.jpg,Images/Speaker2.jpg,Images/Speaker3.jpg,Images/Speaker4.jpg,Audio/Speaker1_En/P1-17-En.wav,Speaker1,گوینده ۱,,,,,,,,0,0,0,72,0,53,53,16,,,,,233.38935712500097,,,,,,,,,,,,,,,,,,,,,,,,,,,,,,,,,,,,,,,,,,,,,,,,,,,,,,,,,,,,,,,,,,,,233.37091325000074,233.38935712500097,233.38935712500097,233.38935712500097,233.38935712500097,233.38599166666634,233.38935712500097,233.38935712500097,233.38935712500097,233.67766299999857,Correct!,1,1,1,0.28018695799983107,None,233.68156341599752,233.68761912499758,235.70106637500066,235.6803313749988,235.680359957998,235.68066420800096,[],[],[],[],[],[],[],False,,,,,,,,,,,,,,,,,,,,,,,,,,,,,,,,,,,,,893010,001,2024-08-04_14h43.37.994,5-32 ready-Group3 English Trained,2024.1.5,None,2024-08-04 14h43.43.157519 +0900,
Images/Speaker1.jpg,Images/Speaker2.jpg,Images/Speaker3.jpg,Images/Speaker4.jpg,Audio/Speaker2_En/P2-20-En.wav,Speaker2,گوینده۲,,,,,,,,0,0,0,72,0,54,54,39,,,,,235.70106637500066,,,,,,,,,,,,,,,,,,,,,,,,,,,,,,,,,,,,,,,,,,,,,,,,,,,,,,,,,,,,,,,,,,,,235.68193262500063,235.70106637500066,235.70106637500066,235.70106637500066,235.70106637500066,235.6961184166651,235.70106637500066,235.70106637500066,235.70106637500066,235.90860020800028,Incorrect! The correct answer is Speaker2.,0,1,1,0.20570795800085762,None,235.9125291249984,235.92315616599808,237.93360970799768,237.91197320799984,237.91199812500054,237.91230449999784,[],[],[],[],[],[],[],False,,,,,,,,,,,,,,,,,,,,,,,,,,,,,,,,,,,,,893010,001,2024-08-04_14h43.37.994,5-32 ready-Group3 English Trained,2024.1.5,None,2024-08-04 14h43.43.157519 +0900,
Images/Speaker1.jpg,Images/Speaker2.jpg,Images/Speaker3.jpg,Images/Speaker4.jpg,Audio/Speaker3_En/P3-5-En.wav,Speaker3,گوینده۳,,,,,,,,0,0,0,72,0,55,55,44,,,,,237.93360970799768,,,,,,,,,,,,,,,,,,,,,,,,,,,,,,,,,,,,,,,,,,,,,,,,,,,,,,,,,,,,,,,,,,,,237.91350266600057,237.93360970799768,237.93360970799768,237.93360970799768,237.93360970799768,237.9280091246658,237.93360970799768,237.93360970799768,237.93360970799768,238.191364833001,Incorrect! The correct answer is Speaker3.,0,1,1,0.25660016699839616,None,238.1956602499995,238.2066933749993,240.21051595799872,240.19059274999745,240.19060179100052,240.19071516599797,[],[],[],[],[],[],[],False,,,,,,,,,,,,,,,,,,,,,,,,,,,,,,,,,,,,,893010,001,2024-08-04_14h43.37.994,5-32 ready-Group3 English Trained,2024.1.5,None,2024-08-04 14h43.43.157519 +0900,
Images/Speaker1.jpg,Images/Speaker2.jpg,Images/Speaker3.jpg,Images/Speaker4.jpg,Audio/Speaker1_En/P1-10-En.wav,Speaker1,گوینده ۱,,,,,,,,0,0,0,72,0,56,56,9,,,,,240.21051595799872,,,,,,,,,,,,,,,,,,,,,,,,,,,,,,,,,,,,,,,,,,,,,,,,,,,,,,,,,,,,,,,,,,,,240.19117695800014,240.21051595799872,240.21051595799872,240.21051595799872,240.21051595799872,240.2070935416671,240.21051595799872,240.21051595799872,240.21051595799872,240.45342337499824,Correct!,1,1,1,0.2418971250008326,None,240.45756820799943,240.46788000000015,242.4831232079996,242.45798558299794,242.45801633299925,242.45854579099978,[],[],[],[],[],[],[],False,,,,,,,,,,,,,,,,,,,,,,,,,,,,,,,,,,,,,893010,001,2024-08-04_14h43.37.994,5-32 ready-Group3 English Trained,2024.1.5,None,2024-08-04 14h43.43.157519 +0900,
Images/Speaker1.jpg,Images/Speaker2.jpg,Images/Speaker3.jpg,Images/Speaker4.jpg,Audio/Speaker3_En/P3-18-En.wav,Speaker3,گوینده۳,,,,,,,,0,0,0,72,0,57,57,57,,,,,242.4831232079996,,,,,,,,,,,,,,,,,,,,,,,,,,,,,,,,,,,,,,,,,,,,,,,,,,,,,,,,,,,,,,,,,,,,242.4600967080005,242.4831232079996,242.4831232079996,242.4831232079996,242.4831232079996,242.4903294993315,242.4831232079996,242.4831232079996,242.4831232079996,242.6851364159993,Incorrect! The correct answer is Speaker3.,0,1,1,0.1972135830001207,None,242.68924941599835,242.7000062909974,244.70523762499943,244.68711858299866,244.6871282079992,244.68722933299796,[],[],[],[],[],[],[],False,,,,,,,,,,,,,,,,,,,,,,,,,,,,,,,,,,,,,893010,001,2024-08-04_14h43.37.994,5-32 ready-Group3 English Trained,2024.1.5,None,2024-08-04 14h43.43.157519 +0900,
Images/Speaker1.jpg,Images/Speaker2.jpg,Images/Speaker3.jpg,Images/Speaker4.jpg,Audio/Speaker2_En/P2-9-En.wav,Speaker2,گوینده۲,,,,,,,,0,0,0,72,0,58,58,28,,,,,244.70523762499943,,,,,,,,,,,,,,,,,,,,,,,,,,,,,,,,,,,,,,,,,,,,,,,,,,,,,,,,,,,,,,,,,,,,244.6876503329986,244.70523762499943,244.70523762499943,244.70523762499943,244.70523762499943,244.7035956666662,244.70523762499943,244.70523762499943,244.70523762499943,245.06244295799843,Incorrect! The correct answer is Speaker2.,0,1,1,0.34894675000032294,None,245.06666795799902,245.07567974999984,247.0794927909992,247.059856666001,247.05988254099793,247.05999370800055,[],[],[],[],[],[],[],False,,,,,,,,,,,,,,,,,,,,,,,,,,,,,,,,,,,,,893010,001,2024-08-04_14h43.37.994,5-32 ready-Group3 English Trained,2024.1.5,None,2024-08-04 14h43.43.157519 +0900,
Images/Speaker1.jpg,Images/Speaker2.jpg,Images/Speaker3.jpg,Images/Speaker4.jpg,Audio/Speaker4_En/P4-7-En.wav,Speaker4,گوینده۴,,,,,,,,0,0,0,72,0,59,59,66,,,,,247.0794927909992,,,,,,,,,,,,,,,,,,,,,,,,,,,,,,,,,,,,,,,,,,,,,,,,,,,,,,,,,,,,,,,,,,,,247.06041258299956,247.0794927909992,247.0794927909992,247.0794927909992,247.0794927909992,247.0762991246668,247.0794927909992,247.0794927909992,247.0794927909992,247.2548939579974,Incorrect! The correct answer is Speaker4.,0,1,1,0.170772333000059,None,247.25912945799791,247.27045166599783,249.2761049159999,249.25487545799842,249.25489866600037,249.25519625000015,[],[],[],[],[],[],[],False,,,,,,,,,,,,,,,,,,,,,,,,,,,,,,,,,,,,,893010,001,2024-08-04_14h43.37.994,5-32 ready-Group3 English Trained,2024.1.5,None,2024-08-04 14h43.43.157519 +0900,
Images/Speaker1.jpg,Images/Speaker2.jpg,Images/Speaker3.jpg,Images/Speaker4.jpg,Audio/Speaker4_En/P4-8-En.wav,Speaker4,گوینده۴,,,,,,,,0,0,0,72,0,60,60,67,,,,,249.2761049159999,,,,,,,,,,,,,,,,,,,,,,,,,,,,,,,,,,,,,,,,,,,,,,,,,,,,,,,,,,,,,,,,,,,,249.2564566660003,249.2761049159999,249.2761049159999,249.2761049159999,249.2761049159999,249.27050874966542,249.2761049159999,249.2761049159999,249.2761049159999,249.56398633299978,Incorrect! The correct answer is Speaker4.,0,1,1,0.28007666600024095,None,249.56823808300032,249.575147208001,251.58286420799777,251.56280220799817,251.56283804099803,251.56319099999746,[],[],[],[],[],[],[],False,,,,,,,,,,,,,,,,,,,,,,,,,,,,,,,,,,,,,893010,001,2024-08-04_14h43.37.994,5-32 ready-Group3 English Trained,2024.1.5,None,2024-08-04 14h43.43.157519 +0900,
Images/Speaker1.jpg,Images/Speaker2.jpg,Images/Speaker3.jpg,Images/Speaker4.jpg,Audio/Speaker3_En/P3-7-En.wav,Speaker3,گوینده۳,,,,,,,,0,0,0,72,0,61,61,46,,,,,251.58286420799777,,,,,,,,,,,,,,,,,,,,,,,,,,,,,,,,,,,,,,,,,,,,,,,,,,,,,,,,,,,,,,,,,,,,251.5641039580005,251.58286420799777,251.58286420799777,251.58286420799777,251.58286420799777,251.5785897916651,251.58286420799777,251.58286420799777,251.58286420799777,252.13822954100033,Incorrect! The correct answer is Speaker3.,0,1,1,0.5531858329995885,None,252.14203070800068,252.15329862499857,254.15878091600098,254.13995124999929,254.13996304099783,254.14007479099746,[],[],[],[],[],[],[],False,,,,,,,,,,,,,,,,,,,,,,,,,,,,,,,,,,,,,893010,001,2024-08-04_14h43.37.994,5-32 ready-Group3 English Trained,2024.1.5,None,2024-08-04 14h43.43.157519 +0900,
Images/Speaker1.jpg,Images/Speaker2.jpg,Images/Speaker3.jpg,Images/Speaker4.jpg,Audio/Speaker2_En/P2-3-En.wav,Speaker2,گوینده۲,,,,,,,,0,0,0,72,0,62,62,22,,,,,254.15878091600098,,,,,,,,,,,,,,,,,,,,,,,,,,,,,,,,,,,,,,,,,,,,,,,,,,,,,,,,,,,,,,,,,,,,254.14049687499937,254.15878091600098,254.15878091600098,254.15878091600098,254.15878091600098,254.1563051666674,254.15878091600098,254.15878091600098,254.15878091600098,254.7000277499974,Incorrect! The correct answer is Speaker2.,0,1,1,0.5380998750006256,None,254.70390870799747,254.7151859580008,256.7208564579996,256.7022103749987,256.70221883299746,256.70231766600045,[],[],[],[],[],[],[],False,,,,,,,,,,,,,,,,,,,,,,,,,,,,,,,,,,,,,893010,001,2024-08-04_14h43.37.994,5-32 ready-Group3 English Trained,2024.1.5,None,2024-08-04 14h43.43.157519 +0900,
Images/Speaker1.jpg,Images/Speaker2.jpg,Images/Speaker3.jpg,Images/Speaker4.jpg,Audio/Speaker1_En/P1-3-En.wav,Speaker1,گوینده ۱,,,,,,,,0,0,0,72,0,63,63,2,,,,,256.7208564579996,,,,,,,,,,,,,,,,,,,,,,,,,,,,,,,,,,,,,,,,,,,,,,,,,,,,,,,,,,,,,,,,,,,,256.7027222079996,256.7208564579996,256.7208564579996,256.7208564579996,256.7208564579996,256.7185839576671,256.7208564579996,256.7208564579996,256.7208564579996,256.8947586659997,Correct!,1,1,1,0.17299945899867453,None,256.89886520800064,256.9091705409992,258.9158530829991,258.8949274160004,258.8949601659988,258.89537270800065,[],[],[],[],[],[],[],False,,,,,,,,,,,,,,,,,,,,,,,,,,,,,,,,,,,,,893010,001,2024-08-04_14h43.37.994,5-32 ready-Group3 English Trained,2024.1.5,None,2024-08-04 14h43.43.157519 +0900,
Images/Speaker1.jpg,Images/Speaker2.jpg,Images/Speaker3.jpg,Images/Speaker4.jpg,Audio/Speaker1_En/P1-1-En.wav,Speaker1,گوینده ۱,,,,,,,,0,0,0,72,0,64,64,0,,,,,258.9158530829991,,,,,,,,,,,,,,,,,,,,,,,,,,,,,,,,,,,,,,,,,,,,,,,,,,,,,,,,,,,,,,,,,,,,258.8966457079987,258.9158530829991,258.9158530829991,258.9158530829991,258.9158530829991,258.91083466666555,258.9158530829991,258.9158530829991,258.9158530829991,259.24175966599796,Correct!,1,1,1,0.3248174159998598,None,259.24549924999883,259.2516905409975,261.25533891599844,261.2364342910005,261.23644341600084,261.23660758299957,[],[],[],[],[],[],[],False,,,,,,,,,,,,,,,,,,,,,,,,,,,,,,,,,,,,,893010,001,2024-08-04_14h43.37.994,5-32 ready-Group3 English Trained,2024.1.5,None,2024-08-04 14h43.43.157519 +0900,
Images/Speaker1.jpg,Images/Speaker2.jpg,Images/Speaker3.jpg,Images/Speaker4.jpg,Audio/Speaker4_En/P4-19-En.wav,Speaker4,گوینده۴,,,,,,,,0,0,0,72,0,65,65,78,,,,,261.25533891599844,,,,,,,,,,,,,,,,,,,,,,,,,,,,,,,,,,,,,,,,,,,,,,,,,,,,,,,,,,,,,,,,,,,,261.2370716660007,261.25533891599844,261.25533891599844,261.25533891599844,261.25533891599844,261.2528517076646,261.25533891599844,261.25533891599844,261.25533891599844,262.3869677500006,Incorrect! The correct answer is Speaker4.,0,1,1,1.121940666998853,None,262.391123333,262.40270433299884,264.40721483299785,264.38765024999884,264.3877196249996,264.388117915998,[],[],[],[],[],[],[],False,,,,,,,,,,,,,,,,,,,,,,,,,,,,,,,,,,,,,893010,001,2024-08-04_14h43.37.994,5-32 ready-Group3 English Trained,2024.1.5,None,2024-08-04 14h43.43.157519 +0900,
Images/Speaker1.jpg,Images/Speaker2.jpg,Images/Speaker3.jpg,Images/Speaker4.jpg,Audio/Speaker1_En/P1-12-En.wav,Speaker1,گوینده ۱,,,,,,,,0,0,0,72,0,66,66,11,,,,,264.40721483299785,,,,,,,,,,,,,,,,,,,,,,,,,,,,,,,,,,,,,,,,,,,,,,,,,,,,,,,,,,,,,,,,,,,,264.3885676659993,264.40721483299785,264.40721483299785,264.40721483299785,264.40721483299785,264.40293879166734,264.40721483299785,264.40721483299785,264.40721483299785,265.1703737079988,Correct!,1,1,1,0.7615259579979465,None,265.1745864580007,265.1853686659997,,267.1794448750006,267.17948520799837,267.1798727079986,[],[],[],[],[],[],[],False,,,,,,,,,,,,,,,,,,,,,,,,,,,,,,,,,,,,,893010,001,2024-08-04_14h43.37.994,5-32 ready-Group3 English Trained,2024.1.5,None,2024-08-04 14h43.43.157519 +0900,
Images/Speaker1.jpg,Images/Speaker2.jpg,Images/Speaker3.jpg,Images/Speaker4.jpg,Audio/Speaker4_En/P4-6-En.wav,Speaker4,گوینده۴,,,,,,,,0,0,0,72,0,67,67,65,,,,,267.201372083,,,,,,,,,,,,,,,,,,,,,,,,,,,,,,,,,,,,,,,,,,,,,,,,,,,,,,,,,,,,,,,,,,,,267.18122112499987,267.201372083,267.201372083,267.201372083,267.201372083,267.19591979166603,267.201372083,267.201372083,267.201372083,267.4276707079989,Incorrect! The correct answer is Speaker4.,0,1,1,0.21613416599939228,None,267.43143920799776,267.44298312499814,269.44668233300035,269.4279393329998,269.4279517499999,269.42805600000065,[],[],[],[],[],[],[],False,,,,,,,,,,,,,,,,,,,,,,,,,,,,,,,,,,,,,893010,001,2024-08-04_14h43.37.994,5-32 ready-Group3 English Trained,2024.1.5,None,2024-08-04 14h43.43.157519 +0900,
Images/Speaker1.jpg,Images/Speaker2.jpg,Images/Speaker3.jpg,Images/Speaker4.jpg,Audio/Speaker3_En/P3-12-En.wav,Speaker3,گوینده۳,,,,,,,,0,0,0,72,0,68,68,51,,,,,269.44668233300035,,,,,,,,,,,,,,,,,,,,,,,,,,,,,,,,,,,,,,,,,,,,,,,,,,,,,,,,,,,,,,,,,,,,269.4284821660003,269.44668233300035,269.44668233300035,269.44668233300035,269.44668233300035,269.44438554166504,269.44668233300035,269.44668233300035,269.44668233300035,269.6945192079984,Incorrect! The correct answer is Speaker3.,0,1,1,0.23704891599845723,None,269.69830108300084,269.70927674999984,,271.7030394159992,271.70304858300005,271.70314787499956,[],[],[],[],[],[],[],False,,,,,,,,,,,,,,,,,,,,,,,,,,,,,,,,,,,,,893010,001,2024-08-04_14h43.37.994,5-32 ready-Group3 English Trained,2024.1.5,None,2024-08-04 14h43.43.157519 +0900,
Images/Speaker1.jpg,Images/Speaker2.jpg,Images/Speaker3.jpg,Images/Speaker4.jpg,Audio/Speaker4_En/P4-11-En.wav,Speaker4,گوینده۴,,,,,,,,0,0,0,72,0,69,69,70,,,,,271.72288800000024,,,,,,,,,,,,,,,,,,,,,,,,,,,,,,,,,,,,,,,,,,,,,,,,,,,,,,,,,,,,,,,,,,,,271.70353995799815,271.72288800000024,271.72288800000024,271.72288800000024,271.72288800000024,271.7196709166676,271.72288800000024,271.72288800000024,271.72288800000024,271.88585141599833,Incorrect! The correct answer is Speaker4.,0,1,1,0.1619239589999779,None,271.88986462499815,271.9010409580005,,273.89799649999986,273.8980273749985,273.89834833299756,[],[],[],[],[],[],[],False,,,,,,,,,,,,,,,,,,,,,,,,,,,,,,,,,,,,,893010,001,2024-08-04_14h43.37.994,5-32 ready-Group3 English Trained,2024.1.5,None,2024-08-04 14h43.43.157519 +0900,
Images/Speaker1.jpg,Images/Speaker2.jpg,Images/Speaker3.jpg,Images/Speaker4.jpg,Audio/Speaker3_En/P3-15-En.wav,Speaker3,گوینده۳,,,,,,,,0,0,0,72,0,70,70,54,,,,,273.91906087499956,,,,,,,,,,,,,,,,,,,,,,,,,,,,,,,,,,,,,,,,,,,,,,,,,,,,,,,,,,,,,,,,,,,,273.8996934579991,273.91906087499956,273.91906087499956,273.91906087499956,273.91906087499956,273.9145006666661,273.91906087499956,273.91906087499956,273.91906087499956,274.075208708,Incorrect! The correct answer is Speaker3.,0,1,1,None,None,274.0792129580004,274.088313207998,276.09401104099743,276.0717025829981,276.07171124999877,276.07181079099973,[],[],[],[],[],[],[],False,,,,,,,,,,,,,,,,,,,,,,,,,,,,,,,,,,,,,893010,001,2024-08-04_14h43.37.994,5-32 ready-Group3 English Trained,2024.1.5,None,2024-08-04 14h43.43.157519 +0900,
Images/Speaker1.jpg,Images/Speaker2.jpg,Images/Speaker3.jpg,Images/Speaker4.jpg,Audio/Speaker4_En/P4-4-En.wav,Speaker4,گوینده۴,,,,,,,,0,0,0,72,0,71,71,63,,,,,276.09401104099743,,,,,,,,,,,,,,,,,,,,,,,,,,,,,,,,,,,,,,,,,,,,,,,,,,,,,,,,,,,,,,,,,,,,276.0722082079992,276.09401104099743,276.09401104099743,276.09401104099743,276.09401104099743,276.08812608266476,276.09401104099743,276.09401104099743,276.09401104099743,276.44405708299746,Incorrect! The correct answer is Speaker4.,0,1,1,0.34808066700134077,None,276.44801645799816,276.4592412079983,278.4653777909989,278.4465394159997,278.4465479999999,278.4466456659975,[],[],[],[],[],[],[],False,,,,,,,,,,,,,,,,,,,,,,,,,,,,,,,,,,,,,893010,001,2024-08-04_14h43.37.994,5-32 ready-Group3 English Trained,2024.1.5,None,2024-08-04 14h43.43.157519 +0900,
Images/Speaker1.jpg,Images/Speaker2.jpg,Images/Speaker3.jpg,Images/Speaker4.jpg,Audio/Speaker4_En/P4-10-En.wav,Speaker4,گوینده۴,,,,,,,,0,0,0,72,0,72,72,69,,,,,278.4653777909989,,,,,,,,,,,,,,,,,,,,,,,,,,,,,,,,,,,,,,,,,,,,,,,,,,,,,,,,,,,,,,,,,,,,278.4470513749984,278.4653777909989,278.4653777909989,278.4653777909989,278.4653777909989,278.4629114576676,278.4653777909989,278.4653777909989,278.4653777909989,278.68779820800046,Incorrect! The correct answer is Speaker4.,0,1,1,0.2109209580012248,None,278.6918194159989,278.6986184999987,280.7054364579999,280.68562354099777,280.6856345829983,280.6857534999981,[],[],[],[],[],[],[],False,,,,,,,,,,,,,,,,,,,,,,,,,,,,,,,,,,,,,893010,001,2024-08-04_14h43.37.994,5-32 ready-Group3 English Trained,2024.1.5,None,2024-08-04 14h43.43.157519 +0900,
Images/Speaker1.jpg,Images/Speaker2.jpg,Images/Speaker3.jpg,Images/Speaker4.jpg,Audio/Speaker2_En/P2-2-En.wav,Speaker2,گوینده۲,,,,,,,,0,0,0,72,0,73,73,21,,,,,280.7054364579999,,,,,,,,,,,,,,,,,,,,,,,,,,,,,,,,,,,,,,,,,,,,,,,,,,,,,,,,,,,,,,,,,,,,280.68616366599963,280.7054364579999,280.7054364579999,280.7054364579999,280.7054364579999,280.7020208326651,280.7054364579999,280.7054364579999,280.7054364579999,280.89708362500096,Incorrect! The correct answer is Speaker2.,0,1,1,0.18433329199979198,None,280.90086687499934,280.9116582079987,,282.90694304099816,282.9069684999995,282.90733720799835,[],[],[],[],[],[],[],False,,,,,,,,,,,,,,,,,,,,,,,,,,,,,,,,,,,,,893010,001,2024-08-04_14h43.37.994,5-32 ready-Group3 English Trained,2024.1.5,None,2024-08-04 14h43.43.157519 +0900,
Images/Speaker1.jpg,Images/Speaker2.jpg,Images/Speaker3.jpg,Images/Speaker4.jpg,Audio/Speaker2_En/P2-16-En.wav,Speaker2,گوینده۲,,,,,,,,0,0,0,72,0,74,74,35,,,,,282.9284024160006,,,,,,,,,,,,,,,,,,,,,,,,,,,,,,,,,,,,,,,,,,,,,,,,,,,,,,,,,,,,,,,,,,,,282.9089442080003,282.9284024160006,282.9284024160006,282.9284024160006,282.9284024160006,282.9234607076653,282.9284024160006,282.9284024160006,282.9284024160006,283.12551504099974,Incorrect! The correct answer is Speaker2.,0,1,1,0.19575879100011662,None,283.1293160409987,283.1354869159986,,285.13169924999966,285.131731999998,285.1320550829987,[],[],[],[],[],[],[],False,,,,,,,,,,,,,,,,,,,,,,,,,,,,,,,,,,,,,893010,001,2024-08-04_14h43.37.994,5-32 ready-Group3 English Trained,2024.1.5,None,2024-08-04 14h43.43.157519 +0900,
Images/Speaker1.jpg,Images/Speaker2.jpg,Images/Speaker3.jpg,Images/Speaker4.jpg,Audio/Speaker3_En/P3-8-En.wav,Speaker3,گوینده۳,,,,,,,,0,0,0,72,0,75,75,47,,,,,285.1523397079982,,,,,,,,,,,,,,,,,,,,,,,,,,,,,,,,,,,,,,,,,,,,,,,,,,,,,,,,,,,,,,,,,,,,285.13338745799774,285.1523397079982,285.1523397079982,285.1523397079982,285.1523397079982,285.14821574966504,285.1523397079982,285.1523397079982,285.1523397079982,285.36628358300004,Incorrect! The correct answer is Speaker3.,0,1,1,0.21280612500049756,None,285.37057329099844,285.3816534580001,287.3880769999996,287.36960824999915,287.369617458,287.3697230830003,[],[],[],[],[],[],[],False,,,,,,,,,,,,,,,,,,,,,,,,,,,,,,,,,,,,,893010,001,2024-08-04_14h43.37.994,5-32 ready-Group3 English Trained,2024.1.5,None,2024-08-04 14h43.43.157519 +0900,
Images/Speaker1.jpg,Images/Speaker2.jpg,Images/Speaker3.jpg,Images/Speaker4.jpg,Audio/Speaker1_En/P1-4-En.wav,Speaker1,گوینده ۱,,,,,,,,0,0,0,72,0,76,76,13,,,,,287.3880769999996,,,,,,,,,,,,,,,,,,,,,,,,,,,,,,,,,,,,,,,,,,,,,,,,,,,,,,,,,,,,,,,,,,,,287.3701592079997,287.3880769999996,287.3880769999996,287.3880769999996,287.3880769999996,287.38602258266496,287.3880769999996,287.3880769999996,287.3880769999996,287.55735424999875,Correct!,1,1,1,0.165814040999976,None,287.56124316599744,287.572060874998,289.5819816660005,289.561323291,289.5613515410005,289.5614570409998,[],[],[],[],[],[],[],False,,,,,,,,,,,,,,,,,,,,,,,,,,,,,,,,,,,,,893010,001,2024-08-04_14h43.37.994,5-32 ready-Group3 English Trained,2024.1.5,None,2024-08-04 14h43.43.157519 +0900,
Images/Speaker1.jpg,Images/Speaker2.jpg,Images/Speaker3.jpg,Images/Speaker4.jpg,Audio/Speaker3_En/P3-4-En.wav,Speaker3,گوینده۳,,,,,,,,0,0,0,72,0,77,77,43,,,,,289.5819816660005,,,,,,,,,,,,,,,,,,,,,,,,,,,,,,,,,,,,,,,,,,,,,,,,,,,,,,,,,,,,,,,,,,,,289.5618740409991,289.5819816660005,289.5819816660005,289.5819816660005,289.5819816660005,289.5777994996645,289.5819816660005,289.5819816660005,289.5819816660005,290.01085395799964,Incorrect! The correct answer is Speaker3.,0,1,1,0.42790387499917415,None,290.01464304099864,290.0254055410005,292.03561683299995,292.0145628749997,292.0146241250004,292.01518787500027,[],[],[],[],[],[],[],False,,,,,,,,,,,,,,,,,,,,,,,,,,,,,,,,,,,,,893010,001,2024-08-04_14h43.37.994,5-32 ready-Group3 English Trained,2024.1.5,None,2024-08-04 14h43.43.157519 +0900,
Images/Speaker1.jpg,Images/Speaker2.jpg,Images/Speaker3.jpg,Images/Speaker4.jpg,Audio/Speaker1_En/P1-16-En.wav,Speaker1,گوینده ۱,,,,,,,,0,0,0,72,0,78,78,15,,,,,292.03561683299995,,,,,,,,,,,,,,,,,,,,,,,,,,,,,,,,,,,,,,,,,,,,,,,,,,,,,,,,,,,,,,,,,,,,292.01667704099964,292.03561683299995,292.03561683299995,292.03561683299995,292.03561683299995,292.0302989576669,292.03561683299995,292.03561683299995,292.03561683299995,292.50272129099903,Correct!,1,1,1,0.456091624997498,None,292.5069217909986,292.51529679099986,294.5228038749992,294.50243475000025,294.50244420799936,294.5025700410006,[],[],[],[],[],[],[],False,,,,,,,,,,,,,,,,,,,,,,,,,,,,,,,,,,,,,893010,001,2024-08-04_14h43.37.994,5-32 ready-Group3 English Trained,2024.1.5,None,2024-08-04 14h43.43.157519 +0900,
Images/Speaker1.jpg,Images/Speaker2.jpg,Images/Speaker3.jpg,Images/Speaker4.jpg,Audio/Speaker1_En/P1-6-En.wav,Speaker1,گوینده ۱,,,,,,,,0,0,0,72,0,79,79,5,,,,,294.5228038749992,,,,,,,,,,,,,,,,,,,,,,,,,,,,,,,,,,,,,,,,,,,,,,,,,,,,,,,,,,,,,,,,,,,,294.50300183299987,294.5228038749992,294.5228038749992,294.5228038749992,294.5228038749992,294.5189121666665,294.5228038749992,294.5228038749992,294.5228038749992,294.94162279100055,Correct!,1,1,1,0.41054670800076565,None,294.9453239579998,294.9492038749995,296.9409364999992,296.9366341249988,296.9366437079989,296.93674545799877,[],[],[],[],[],[],[],False,,,,,,,,,,,,,,,,,,,,,,,,,,,,,,,,,,,,,893010,001,2024-08-04_14h43.37.994,5-32 ready-Group3 English Trained,2024.1.5,None,2024-08-04 14h43.43.157519 +0900,
Images/Speaker1.jpg,Images/Speaker2.jpg,Images/Speaker3.jpg,Images/Speaker4.jpg,Audio/Speaker4_En/P4-13-En.wav,Speaker4,گوینده۴,,,,,,,,0,0,0,72,,,,,,,,,,,,,,,,,,,,,,,,,,,,,,,,,,,,,,,,,,,,,,,,,,,,,,,,,,,,,,,,,,,,,,,,,,,,,,,,,,,,,,,,,,,,,,,,,,,,,,,,,,,,,,,296.93710704099794,1.0,True,296.937285041,,,,,,,,,,,,,,,,,,,,,,,,,,,,,893010,001,2024-08-04_14h43.37.994,5-32 ready-Group3 English Trained,2024.1.5,None,2024-08-04 14h43.43.157519 +0900,
,,,,,,,,,,,,,,,,,,,,,,,,,,,,,,,,,,,,,,,,,,,,,,,,,,,,,,,,,,,,,,,,,,,,,,,,,,,,,,,,,,,,,,,,,,,,,,,,,,,,,,,,,,,,,,,,,,,,,,,,,,,,,,,,,,,,296.9373104160004,296.9409364999992,301.97551345800093,301.9298948329997,,,,,,,,,,,,,,,,,,,,,,,,,893010,001,2024-08-04_14h43.37.994,5-32 ready-Group3 English Trained,2024.1.5,None,2024-08-04 14h43.43.157519 +0900,
,,,,,,,Images/Speaker1.jpg,Images/Speaker2.jpg,Images/Speaker3.jpg,Images/Speaker4.jpg,Audio/Speaker4_Per/P4-16-Per.wav,Speaker4,گوینده۴,,,,,,,,,0,0,0,75,301.97551345800093,,,,,,,,,,,,,,,,,,,,,,,,,,,,,,,,,,,,,,,,,,,,,,,,,,,,,,,,,,,,,,,,,,,,,,,,,,,,,,,,,,,,,,,,,,,,,,,,,,,,,,,,,,,,,,301.9503687910001,301.97551345800093,301.97551345800093,301.97551345800093,301.97551345800093,301.9790253750005,301.97551345800093,301.97551345800093,316.23316208300093,1,14.252724709000177,None,1,Images/Speaker1.jpg,Images/Speaker2.jpg,Images/Speaker3.jpg,Images/Speaker4.jpg,Audio/Speaker4_Per/P4-16-Per.wav,Speaker4,گوینده۴,,,,,893010,001,2024-08-04_14h43.37.994,5-32 ready-Group3 English Trained,2024.1.5,None,2024-08-04 14h43.43.157519 +0900,
,,,,,,,Images/Speaker1.jpg,Images/Speaker2.jpg,Images/Speaker3.jpg,Images/Speaker4.jpg,Audio/Speaker2_Per/P2-9-Per.wav,Speaker2,گوینده۲,,,,,,,,,0,1,1,28,316.2579922500008,,,,,,,,,,,,,,,,,,,,,,,,,,,,,,,,,,,,,,,,,,,,,,,,,,,,,,,,,,,,,,,,,,,,,,,,,,,,,,,,,,,,,,,,,,,,,,,,,,,,,,,,,,,,,,316.23376362499766,316.2579922500008,316.2579922500008,316.2579922500008,316.2579922500008,316.2489744996676,316.2579922500008,316.2579922500008,317.2538777080008,1,0.9931307910010219,None,1,Images/Speaker1.jpg,Images/Speaker2.jpg,Images/Speaker3.jpg,Images/Speaker4.jpg,Audio/Speaker2_Per/P2-9-Per.wav,Speaker2,گوینده۲,,,,,893010,001,2024-08-04_14h43.37.994,5-32 ready-Group3 English Trained,2024.1.5,None,2024-08-04 14h43.43.157519 +0900,
,,,,,,,Images/Speaker1.jpg,Images/Speaker2.jpg,Images/Speaker3.jpg,Images/Speaker4.jpg,Audio/Speaker3_Per/P3-3-Per.wav,Speaker3,گوینده۳,,,,,,,,,0,2,2,42,317.28520516599747,,,,,,,,,,,,,,,,,,,,,,,,,,,,,,,,,,,,,,,,,,,,,,,,,,,,,,,,,,,,,,,,,,,,,,,,,,,,,,,,,,,,,,,,,,,,,,,,,,,,,,,,,,,,,,317.2589319580002,317.28520516599747,317.28520516599747,317.28520516599747,317.28520516599747,317.28642508333405,317.28520516599747,317.28520516599747,318.1112489160005,1,0.8203742080004304,None,1,Images/Speaker1.jpg,Images/Speaker2.jpg,Images/Speaker3.jpg,Images/Speaker4.jpg,Audio/Speaker3_Per/P3-3-Per.wav,Speaker3,گوینده۳,,,,,893010,001,2024-08-04_14h43.37.994,5-32 ready-Group3 English Trained,2024.1.5,None,2024-08-04 14h43.43.157519 +0900,
,,,,,,,Images/Speaker1.jpg,Images/Speaker2.jpg,Images/Speaker3.jpg,Images/Speaker4.jpg,Audio/Speaker3_Per/P3-16-Per.wav,Speaker3,گوینده۳,,,,,,,,,0,3,3,55,318.1385723329986,,,,,,,,,,,,,,,,,,,,,,,,,,,,,,,,,,,,,,,,,,,,,,,,,,,,,,,,,,,,,,,,,,,,,,,,,,,,,,,,,,,,,,,,,,,,,,,,,,,,,,,,,,,,,,318.11528087499755,318.1385723329986,318.1385723329986,318.1385723329986,318.1385723329986,318.14380954133276,318.1385723329986,318.1385723329986,318.83332929099925,1,0.6936014170023554,None,1,Images/Speaker1.jpg,Images/Speaker2.jpg,Images/Speaker3.jpg,Images/Speaker4.jpg,Audio/Speaker3_Per/P3-16-Per.wav,Speaker3,گوینده۳,,,,,893010,001,2024-08-04_14h43.37.994,5-32 ready-Group3 English Trained,2024.1.5,None,2024-08-04 14h43.43.157519 +0900,
,,,,,,,Images/Speaker1.jpg,Images/Speaker2.jpg,Images/Speaker3.jpg,Images/Speaker4.jpg,Audio/Speaker3_Per/P3-10-Per.wav,Speaker3,گوینده۳,,,,,,,,,0,4,4,49,318.861247290999,,,,,,,,,,,,,,,,,,,,,,,,,,,,,,,,,,,,,,,,,,,,,,,,,,,,,,,,,,,,,,,,,,,,,,,,,,,,,,,,,,,,,,,,,,,,,,,,,,,,,,,,,,,,,,318.8371527499985,318.861247290999,318.861247290999,318.861247290999,318.861247290999,318.86589158333345,318.861247290999,318.861247290999,319.5367991659987,1,0.6722828340025444,None,1,Images/Speaker1.jpg,Images/Speaker2.jpg,Images/Speaker3.jpg,Images/Speaker4.jpg,Audio/Speaker3_Per/P3-10-Per.wav,Speaker3,گوینده۳,,,,,893010,001,2024-08-04_14h43.37.994,5-32 ready-Group3 English Trained,2024.1.5,None,2024-08-04 14h43.43.157519 +0900,
,,,,,,,Images/Speaker1.jpg,Images/Speaker2.jpg,Images/Speaker3.jpg,Images/Speaker4.jpg,Audio/Speaker3_Per/P3-17-Per.wav,Speaker3,گوینده۳,,,,,,,,,0,5,5,56,319.5637242499979,,,,,,,,,,,,,,,,,,,,,,,,,,,,,,,,,,,,,,,,,,,,,,,,,,,,,,,,,,,,,,,,,,,,,,,,,,,,,,,,,,,,,,,,,,,,,,,,,,,,,,,,,,,,,,319.5412374160005,319.5637242499979,319.5637242499979,319.5637242499979,319.5637242499979,319.56931579133425,319.5637242499979,319.5637242499979,320.2201976659999,1,0.6537268749998475,None,1,Images/Speaker1.jpg,Images/Speaker2.jpg,Images/Speaker3.jpg,Images/Speaker4.jpg,Audio/Speaker3_Per/P3-17-Per.wav,Speaker3,گوینده۳,,,,,893010,001,2024-08-04_14h43.37.994,5-32 ready-Group3 English Trained,2024.1.5,None,2024-08-04 14h43.43.157519 +0900,
,,,,,,,Images/Speaker1.jpg,Images/Speaker2.jpg,Images/Speaker3.jpg,Images/Speaker4.jpg,Audio/Speaker1_Per/P1-9-Per.wav,Speaker1,گوینده ۱,,,,,,,,,0,6,6,8,320.24732341599884,,,,,,,,,,,,,,,,,,,,,,,,,,,,,,,,,,,,,,,,,,,,,,,,,,,,,,,,,,,,,,,,,,,,,,,,,,,,,,,,,,,,,,,,,,,,,,,,,,,,,,,,,,,,,,320.2240308750006,320.24732341599884,320.24732341599884,320.24732341599884,320.24732341599884,320.25279124933195,320.24732341599884,320.24732341599884,320.9115171659978,1,0.6624685839997255,None,1,Images/Speaker1.jpg,Images/Speaker2.jpg,Images/Speaker3.jpg,Images/Speaker4.jpg,Audio/Speaker1_Per/P1-9-Per.wav,Speaker1,گوینده ۱,,,,,893010,001,2024-08-04_14h43.37.994,5-32 ready-Group3 English Trained,2024.1.5,None,2024-08-04 14h43.43.157519 +0900,
,,,,,,,Images/Speaker1.jpg,Images/Speaker2.jpg,Images/Speaker3.jpg,Images/Speaker4.jpg,Audio/Speaker4_Per/P4-12-Per.wav,Speaker4,گوینده۴,,,,,,,,,0,7,7,71,320.9386245409987,,,,,,,,,,,,,,,,,,,,,,,,,,,,,,,,,,,,,,,,,,,,,,,,,,,,,,,,,,,,,,,,,,,,,,,,,,,,,,,,,,,,,,,,,,,,,,,,,,,,,,,,,,,,,,320.9159469160004,320.9386245409987,320.9386245409987,320.9386245409987,320.9386245409987,320.9441169993338,320.9386245409987,320.9386245409987,321.65554549999797,1,0.7120217910014617,None,1,Images/Speaker1.jpg,Images/Speaker2.jpg,Images/Speaker3.jpg,Images/Speaker4.jpg,Audio/Speaker4_Per/P4-12-Per.wav,Speaker4,گوینده۴,,,,,893010,001,2024-08-04_14h43.37.994,5-32 ready-Group3 English Trained,2024.1.5,None,2024-08-04 14h43.43.157519 +0900,
,,,,,,,Images/Speaker1.jpg,Images/Speaker2.jpg,Images/Speaker3.jpg,Images/Speaker4.jpg,Audio/Speaker4_Per/P4-11-Per.wav,Speaker4,گوینده۴,,,,,,,,,0,8,8,70,321.6834183329993,,,,,,,,,,,,,,,,,,,,,,,,,,,,,,,,,,,,,,,,,,,,,,,,,,,,,,,,,,,,,,,,,,,,,,,,,,,,,,,,,,,,,,,,,,,,,,,,,,,,,,,,,,,,,,321.65970291600024,321.6834183329993,321.6834183329993,321.6834183329993,321.6834183329993,321.6880690833318,321.6834183329993,321.6834183329993,322.3914764580004,1,0.7053173750027781,None,1,Images/Speaker1.jpg,Images/Speaker2.jpg,Images/Speaker3.jpg,Images/Speaker4.jpg,Audio/Speaker4_Per/P4-11-Per.wav,Speaker4,گوینده۴,,,,,893010,001,2024-08-04_14h43.37.994,5-32 ready-Group3 English Trained,2024.1.5,None,2024-08-04 14h43.43.157519 +0900,
,,,,,,,Images/Speaker1.jpg,Images/Speaker2.jpg,Images/Speaker3.jpg,Images/Speaker4.jpg,Audio/Speaker1_Per/P1-2-Per.wav,Speaker1,گوینده ۱,,,,,,,,,0,9,9,1,322.41910916599954,,,,,,,,,,,,,,,,,,,,,,,,,,,,,,,,,,,,,,,,,,,,,,,,,,,,,,,,,,,,,,,,,,,,,,,,,,,,,,,,,,,,,,,,,,,,,,,,,,,,,,,,,,,,,,322.3953207079976,322.41910916599954,322.41910916599954,322.41910916599954,322.41910916599954,322.424008499333,322.41910916599954,322.41910916599954,323.1368728749985,1,0.7153016250013025,None,1,Images/Speaker1.jpg,Images/Speaker2.jpg,Images/Speaker3.jpg,Images/Speaker4.jpg,Audio/Speaker1_Per/P1-2-Per.wav,Speaker1,گوینده ۱,,,,,893010,001,2024-08-04_14h43.37.994,5-32 ready-Group3 English Trained,2024.1.5,None,2024-08-04 14h43.43.157519 +0900,
,,,,,,,Images/Speaker1.jpg,Images/Speaker2.jpg,Images/Speaker3.jpg,Images/Speaker4.jpg,Audio/Speaker1_Per/P1-7-Per.wav,Speaker1,گوینده ۱,,,,,,,,,0,10,10,6,323.1641431249991,,,,,,,,,,,,,,,,,,,,,,,,,,,,,,,,,,,,,,,,,,,,,,,,,,,,,,,,,,,,,,,,,,,,,,,,,,,,,,,,,,,,,,,,,,,,,,,,,,,,,,,,,,,,,,323.140944499999,323.1641431249991,323.1641431249991,323.1641431249991,323.1641431249991,323.1694553333332,323.1641431249991,323.1641431249991,323.88624162499764,1,0.7133497909999278,None,1,Images/Speaker1.jpg,Images/Speaker2.jpg,Images/Speaker3.jpg,Images/Speaker4.jpg,Audio/Speaker1_Per/P1-7-Per.wav,Speaker1,گوینده ۱,,,,,893010,001,2024-08-04_14h43.37.994,5-32 ready-Group3 English Trained,2024.1.5,None,2024-08-04 14h43.43.157519 +0900,
,,,,,,,Images/Speaker1.jpg,Images/Speaker2.jpg,Images/Speaker3.jpg,Images/Speaker4.jpg,Audio/Speaker3_Per/P3-11-Per.wav,Speaker3,گوینده۳,,,,,,,,,0,11,11,50,323.91460870800074,,,,,,,,,,,,,,,,,,,,,,,,,,,,,,,,,,,,,,,,,,,,,,,,,,,,,,,,,,,,,,,,,,,,,,,,,,,,,,,,,,,,,,,,,,,,,,,,,,,,,,,,,,,,,,323.8902583329982,323.91460870800074,323.91460870800074,323.91460870800074,323.91460870800074,323.9162104993343,323.91460870800074,323.91460870800074,324.68336370799807,1,0.7645078330024262,None,1,Images/Speaker1.jpg,Images/Speaker2.jpg,Images/Speaker3.jpg,Images/Speaker4.jpg,Audio/Speaker3_Per/P3-11-Per.wav,Speaker3,گوینده۳,,,,,893010,001,2024-08-04_14h43.37.994,5-32 ready-Group3 English Trained,2024.1.5,None,2024-08-04 14h43.43.157519 +0900,
,,,,,,,Images/Speaker1.jpg,Images/Speaker2.jpg,Images/Speaker3.jpg,Images/Speaker4.jpg,Audio/Speaker4_Per/P4-13-Per.wav,Speaker4,گوینده۴,,,,,,,,,0,12,12,72,324.7117502500005,,,,,,,,,,,,,,,,,,,,,,,,,,,,,,,,,,,,,,,,,,,,,,,,,,,,,,,,,,,,,,,,,,,,,,,,,,,,,,,,,,,,,,,,,,,,,,,,,,,,,,,,,,,,,,324.6878319999996,324.7117502500005,324.7117502500005,324.7117502500005,324.7117502500005,324.71586308333326,324.7117502500005,324.7117502500005,325.3428798749992,1,0.6230624999989232,None,1,Images/Speaker1.jpg,Images/Speaker2.jpg,Images/Speaker3.jpg,Images/Speaker4.jpg,Audio/Speaker4_Per/P4-13-Per.wav,Speaker4,گوینده۴,,,,,893010,001,2024-08-04_14h43.37.994,5-32 ready-Group3 English Trained,2024.1.5,None,2024-08-04 14h43.43.157519 +0900,
,,,,,,,Images/Speaker1.jpg,Images/Speaker2.jpg,Images/Speaker3.jpg,Images/Speaker4.jpg,Audio/Speaker1_Per/P1-16-Per.wav,Speaker1,گوینده ۱,,,,,,,,,0,13,13,15,325.3677387909993,,,,,,,,,,,,,,,,,,,,,,,,,,,,,,,,,,,,,,,,,,,,,,,,,,,,,,,,,,,,,,,,,,,,,,,,,,,,,,,,,,,,,,,,,,,,,,,,,,,,,,,,,,,,,,325.3471209999989,325.3677387909993,325.3677387909993,325.3677387909993,325.3677387909993,325.37541416633076,325.3677387909993,325.3677387909993,326.0785975830004,1,0.7043847500026459,None,1,Images/Speaker1.jpg,Images/Speaker2.jpg,Images/Speaker3.jpg,Images/Speaker4.jpg,Audio/Speaker1_Per/P1-16-Per.wav,Speaker1,گوینده ۱,,,,,893010,001,2024-08-04_14h43.37.994,5-32 ready-Group3 English Trained,2024.1.5,None,2024-08-04 14h43.43.157519 +0900,
,,,,,,,Images/Speaker1.jpg,Images/Speaker2.jpg,Images/Speaker3.jpg,Images/Speaker4.jpg,Audio/Speaker4_Per/P4-14-Per.wav,Speaker4,گوینده۴,,,,,,,,,0,14,14,73,326.10686949999945,,,,,,,,,,,,,,,,,,,,,,,,,,,,,,,,,,,,,,,,,,,,,,,,,,,,,,,,,,,,,,,,,,,,,,,,,,,,,,,,,,,,,,,,,,,,,,,,,,,,,,,,,,,,,,326.08251158299754,326.10686949999945,326.10686949999945,326.10686949999945,326.10686949999945,326.11120916633126,326.10686949999945,326.10686949999945,326.849837916001,1,0.7417004999988421,None,1,Images/Speaker1.jpg,Images/Speaker2.jpg,Images/Speaker3.jpg,Images/Speaker4.jpg,Audio/Speaker4_Per/P4-14-Per.wav,Speaker4,گوینده۴,,,,,893010,001,2024-08-04_14h43.37.994,5-32 ready-Group3 English Trained,2024.1.5,None,2024-08-04 14h43.43.157519 +0900,
,,,,,,,Images/Speaker1.jpg,Images/Speaker2.jpg,Images/Speaker3.jpg,Images/Speaker4.jpg,Audio/Speaker4_Per/P4-4-Per.wav,Speaker4,گوینده۴,,,,,,,,,0,15,15,63,326.87758129099893,,,,,,,,,,,,,,,,,,,,,,,,,,,,,,,,,,,,,,,,,,,,,,,,,,,,,,,,,,,,,,,,,,,,,,,,,,,,,,,,,,,,,,,,,,,,,,,,,,,,,,,,,,,,,,326.8540678749996,326.87758129099893,326.87758129099893,326.87758129099893,326.87758129099893,326.8822517913327,326.87758129099893,326.87758129099893,327.61331929099833,1,0.7347108750000189,None,1,Images/Speaker1.jpg,Images/Speaker2.jpg,Images/Speaker3.jpg,Images/Speaker4.jpg,Audio/Speaker4_Per/P4-4-Per.wav,Speaker4,گوینده۴,,,,,893010,001,2024-08-04_14h43.37.994,5-32 ready-Group3 English Trained,2024.1.5,None,2024-08-04 14h43.43.157519 +0900,
,,,,,,,Images/Speaker1.jpg,Images/Speaker2.jpg,Images/Speaker3.jpg,Images/Speaker4.jpg,Audio/Speaker4_Per/P4-1-Per.wav,Speaker4,گوینده۴,,,,,,,,,0,16,16,60,327.64336429099785,,,,,,,,,,,,,,,,,,,,,,,,,,,,,,,,,,,,,,,,,,,,,,,,,,,,,,,,,,,,,,,,,,,,,,,,,,,,,,,,,,,,,,,,,,,,,,,,,,,,,,,,,,,,,,327.61862191600085,327.64336429099785,327.64336429099785,327.64336429099785,327.64336429099785,327.64546591633234,327.64336429099785,327.64336429099785,328.3614817079979,1,0.706247665999399,None,1,Images/Speaker1.jpg,Images/Speaker2.jpg,Images/Speaker3.jpg,Images/Speaker4.jpg,Audio/Speaker4_Per/P4-1-Per.wav,Speaker4,گوینده۴,,,,,893010,001,2024-08-04_14h43.37.994,5-32 ready-Group3 English Trained,2024.1.5,None,2024-08-04 14h43.43.157519 +0900,
,,,,,,,Images/Speaker1.jpg,Images/Speaker2.jpg,Images/Speaker3.jpg,Images/Speaker4.jpg,Audio/Speaker3_Per/P3-12-Per.wav,Speaker3,گوینده۳,,,,,,,,,0,17,17,51,328.38856374999887,,,,,,,,,,,,,,,,,,,,,,,,,,,,,,,,,,,,,,,,,,,,,,,,,,,,,,,,,,,,,,,,,,,,,,,,,,,,,,,,,,,,,,,,,,,,,,,,,,,,,,,,,,,,,,328.3653937909985,328.38856374999887,328.38856374999887,328.38856374999887,328.38856374999887,328.3940230413323,328.38856374999887,328.38856374999887,329.070567666,1,0.6751703749978333,None,1,Images/Speaker1.jpg,Images/Speaker2.jpg,Images/Speaker3.jpg,Images/Speaker4.jpg,Audio/Speaker3_Per/P3-12-Per.wav,Speaker3,گوینده۳,,,,,893010,001,2024-08-04_14h43.37.994,5-32 ready-Group3 English Trained,2024.1.5,None,2024-08-04 14h43.43.157519 +0900,
,,,,,,,Images/Speaker1.jpg,Images/Speaker2.jpg,Images/Speaker3.jpg,Images/Speaker4.jpg,Audio/Speaker2_Per/P2-8-Per.wav,Speaker2,گوینده۲,,,,,,,,,0,18,18,27,329.09853724999994,,,,,,,,,,,,,,,,,,,,,,,,,,,,,,,,,,,,,,,,,,,,,,,,,,,,,,,,,,,,,,,,,,,,,,,,,,,,,,,,,,,,,,,,,,,,,,,,,,,,,,,,,,,,,,329.0750405830004,329.09853724999994,329.09853724999994,329.09853724999994,329.09853724999994,329.103093166334,329.09853724999994,329.09853724999994,329.81325108300007,1,0.7068480829984765,None,1,Images/Speaker1.jpg,Images/Speaker2.jpg,Images/Speaker3.jpg,Images/Speaker4.jpg,Audio/Speaker2_Per/P2-8-Per.wav,Speaker2,گوینده۲,,,,,893010,001,2024-08-04_14h43.37.994,5-32 ready-Group3 English Trained,2024.1.5,None,2024-08-04 14h43.43.157519 +0900,
,,,,,,,Images/Speaker1.jpg,Images/Speaker2.jpg,Images/Speaker3.jpg,Images/Speaker4.jpg,Audio/Speaker1_Per/P1-5-Per.wav,Speaker1,گوینده ۱,,,,,,,,,0,19,19,4,329.8381110829978,,,,,,,,,,,,,,,,,,,,,,,,,,,,,,,,,,,,,,,,,,,,,,,,,,,,,,,,,,,,,,,,,,,,,,,,,,,,,,,,,,,,,,,,,,,,,,,,,,,,,,,,,,,,,,329.81753924999794,329.8381110829978,329.8381110829978,329.8381110829978,329.8381110829978,329.8461135413313,329.8381110829978,329.8381110829978,330.52693412499866,1,0.6848211249998712,None,1,Images/Speaker1.jpg,Images/Speaker2.jpg,Images/Speaker3.jpg,Images/Speaker4.jpg,Audio/Speaker1_Per/P1-5-Per.wav,Speaker1,گوینده ۱,,,,,893010,001,2024-08-04_14h43.37.994,5-32 ready-Group3 English Trained,2024.1.5,None,2024-08-04 14h43.43.157519 +0900,
,,,,,,,Images/Speaker1.jpg,Images/Speaker2.jpg,Images/Speaker3.jpg,Images/Speaker4.jpg,Audio/Speaker2_Per/P2-2-Per.wav,Speaker2,گوینده۲,,,,,,,,,0,20,20,21,330.5555902499982,,,,,,,,,,,,,,,,,,,,,,,,,,,,,,,,,,,,,,,,,,,,,,,,,,,,,,,,,,,,,,,,,,,,,,,,,,,,,,,,,,,,,,,,,,,,,,,,,,,,,,,,,,,,,,330.5310834999982,330.5555902499982,330.5555902499982,330.5555902499982,330.5555902499982,330.5595069993328,330.5555902499982,330.5555902499982,331.24291345799793,1,0.680449082999985,None,1,Images/Speaker1.jpg,Images/Speaker2.jpg,Images/Speaker3.jpg,Images/Speaker4.jpg,Audio/Speaker2_Per/P2-2-Per.wav,Speaker2,گوینده۲,,,,,893010,001,2024-08-04_14h43.37.994,5-32 ready-Group3 English Trained,2024.1.5,None,2024-08-04 14h43.43.157519 +0900,
,,,,,,,Images/Speaker1.jpg,Images/Speaker2.jpg,Images/Speaker3.jpg,Images/Speaker4.jpg,Audio/Speaker2_Per/P2-18-Per.wav,Speaker2,گوینده۲,,,,,,,,,0,21,21,37,331.26692991600066,,,,,,,,,,,,,,,,,,,,,,,,,,,,,,,,,,,,,,,,,,,,,,,,,,,,,,,,,,,,,,,,,,,,,,,,,,,,,,,,,,,,,,,,,,,,,,,,,,,,,,,,,,,,,,331.24707275000037,331.26692991600066,331.26692991600066,331.26692991600066,331.26692991600066,331.27547774933237,331.26692991600066,331.26692991600066,331.9286831249992,1,0.653081624997867,None,1,Images/Speaker1.jpg,Images/Speaker2.jpg,Images/Speaker3.jpg,Images/Speaker4.jpg,Audio/Speaker2_Per/P2-18-Per.wav,Speaker2,گوینده۲,,,,,893010,001,2024-08-04_14h43.37.994,5-32 ready-Group3 English Trained,2024.1.5,None,2024-08-04 14h43.43.157519 +0900,
,,,,,,,Images/Speaker1.jpg,Images/Speaker2.jpg,Images/Speaker3.jpg,Images/Speaker4.jpg,Audio/Speaker4_Per/P4-9-Per.wav,Speaker4,گوینده۴,,,,,,,,,0,22,22,68,331.9565983329994,,,,,,,,,,,,,,,,,,,,,,,,,,,,,,,,,,,,,,,,,,,,,,,,,,,,,,,,,,,,,,,,,,,,,,,,,,,,,,,,,,,,,,,,,,,,,,,,,,,,,,,,,,,,,,331.9328931249984,331.9565983329994,331.9565983329994,331.9565983329994,331.9565983329994,331.96124449933313,331.9565983329994,331.9565983329994,332.63341650000075,1,0.67117566700108,None,1,Images/Speaker1.jpg,Images/Speaker2.jpg,Images/Speaker3.jpg,Images/Speaker4.jpg,Audio/Speaker4_Per/P4-9-Per.wav,Speaker4,گوینده۴,,,,,893010,001,2024-08-04_14h43.37.994,5-32 ready-Group3 English Trained,2024.1.5,None,2024-08-04 14h43.43.157519 +0900,
,,,,,,,Images/Speaker1.jpg,Images/Speaker2.jpg,Images/Speaker3.jpg,Images/Speaker4.jpg,Audio/Speaker1_Per/P1-10-Per.wav,Speaker1,گوینده ۱,,,,,,,,,0,23,23,9,332.66137674999845,,,,,,,,,,,,,,,,,,,,,,,,,,,,,,,,,,,,,,,,,,,,,,,,,,,,,,,,,,,,,,,,,,,,,,,,,,,,,,,,,,,,,,,,,,,,,,,,,,,,,,,,,,,,,,332.63756754099813,332.66137674999845,332.66137674999845,332.66137674999845,332.66137674999845,332.6659496243342,332.66137674999845,332.66137674999845,333.28325308299827,1,0.6209493749993271,None,1,Images/Speaker1.jpg,Images/Speaker2.jpg,Images/Speaker3.jpg,Images/Speaker4.jpg,Audio/Speaker1_Per/P1-10-Per.wav,Speaker1,گوینده ۱,,,,,893010,001,2024-08-04_14h43.37.994,5-32 ready-Group3 English Trained,2024.1.5,None,2024-08-04 14h43.43.157519 +0900,
,,,,,,,Images/Speaker1.jpg,Images/Speaker2.jpg,Images/Speaker3.jpg,Images/Speaker4.jpg,Audio/Speaker2_Per/P2-6-Per.wav,Speaker2,گوینده۲,,,,,,,,,0,24,24,25,333.3110768330007,,,,,,,,,,,,,,,,,,,,,,,,,,,,,,,,,,,,,,,,,,,,,,,,,,,,,,,,,,,,,,,,,,,,,,,,,,,,,,,,,,,,,,,,,,,,,,,,,,,,,,,,,,,,,,333.28753512500043,333.3110768330007,333.3110768330007,333.3110768330007,333.3110768330007,333.315653041333,333.3110768330007,333.3110768330007,333.995503457998,1,0.6780264589979197,None,1,Images/Speaker1.jpg,Images/Speaker2.jpg,Images/Speaker3.jpg,Images/Speaker4.jpg,Audio/Speaker2_Per/P2-6-Per.wav,Speaker2,گوینده۲,,,,,893010,001,2024-08-04_14h43.37.994,5-32 ready-Group3 English Trained,2024.1.5,None,2024-08-04 14h43.43.157519 +0900,
,,,,,,,Images/Speaker1.jpg,Images/Speaker2.jpg,Images/Speaker3.jpg,Images/Speaker4.jpg,Audio/Speaker4_Per/P4-3-Per.wav,Speaker4,گوینده۴,,,,,,,,,0,25,25,62,334.0232643749987,,,,,,,,,,,,,,,,,,,,,,,,,,,,,,,,,,,,,,,,,,,,,,,,,,,,,,,,,,,,,,,,,,,,,,,,,,,,,,,,,,,,,,,,,,,,,,,,,,,,,,,,,,,,,,333.9997614999993,334.0232643749987,334.0232643749987,334.0232643749987,334.0232643749987,334.02811104133116,334.0232643749987,334.0232643749987,334.66475349999746,1,0.6336612919985782,None,1,Images/Speaker1.jpg,Images/Speaker2.jpg,Images/Speaker3.jpg,Images/Speaker4.jpg,Audio/Speaker4_Per/P4-3-Per.wav,Speaker4,گوینده۴,,,,,893010,001,2024-08-04_14h43.37.994,5-32 ready-Group3 English Trained,2024.1.5,None,2024-08-04 14h43.43.157519 +0900,
,,,,,,,Images/Speaker1.jpg,Images/Speaker2.jpg,Images/Speaker3.jpg,Images/Speaker4.jpg,Audio/Speaker4_Per/P4-6-Per.wav,Speaker4,گوینده۴,,,,,,,,,0,26,26,65,334.692060333,,,,,,,,,,,,,,,,,,,,,,,,,,,,,,,,,,,,,,,,,,,,,,,,,,,,,,,,,,,,,,,,,,,,,,,,,,,,,,,,,,,,,,,,,,,,,,,,,,,,,,,,,,,,,,334.6690923749993,334.692060333,334.692060333,334.692060333,334.692060333,334.69558462433315,334.692060333,334.692060333,335.3796253750006,1,0.6865849169989815,None,1,Images/Speaker1.jpg,Images/Speaker2.jpg,Images/Speaker3.jpg,Images/Speaker4.jpg,Audio/Speaker4_Per/P4-6-Per.wav,Speaker4,گوینده۴,,,,,893010,001,2024-08-04_14h43.37.994,5-32 ready-Group3 English Trained,2024.1.5,None,2024-08-04 14h43.43.157519 +0900,
,,,,,,,Images/Speaker1.jpg,Images/Speaker2.jpg,Images/Speaker3.jpg,Images/Speaker4.jpg,Audio/Speaker4_Per/P4-17-Per.wav,Speaker4,گوینده۴,,,,,,,,,0,27,27,76,335.40615295799944,,,,,,,,,,,,,,,,,,,,,,,,,,,,,,,,,,,,,,,,,,,,,,,,,,,,,,,,,,,,,,,,,,,,,,,,,,,,,,,,,,,,,,,,,,,,,,,,,,,,,,,,,,,,,,335.38351170799797,335.40615295799944,335.40615295799944,335.40615295799944,335.40615295799944,335.41216570833103,335.40615295799944,335.40615295799944,336.0792745409999,1,0.6680032080003002,None,1,Images/Speaker1.jpg,Images/Speaker2.jpg,Images/Speaker3.jpg,Images/Speaker4.jpg,Audio/Speaker4_Per/P4-17-Per.wav,Speaker4,گوینده۴,,,,,893010,001,2024-08-04_14h43.37.994,5-32 ready-Group3 English Trained,2024.1.5,None,2024-08-04 14h43.43.157519 +0900,
,,,,,,,Images/Speaker1.jpg,Images/Speaker2.jpg,Images/Speaker3.jpg,Images/Speaker4.jpg,Audio/Speaker1_Per/P1-8-Per.wav,Speaker1,گوینده ۱,,,,,,,,,0,28,28,7,336.11007779099964,,,,,,,,,,,,,,,,,,,,,,,,,,,,,,,,,,,,,,,,,,,,,,,,,,,,,,,,,,,,,,,,,,,,,,,,,,,,,,,,,,,,,,,,,,,,,,,,,,,,,,,,,,,,,,336.08453854099935,336.11007779099964,336.11007779099964,336.11007779099964,336.11007779099964,336.1118254993312,336.11007779099964,336.11007779099964,336.7467245000007,1,0.6309946670007776,None,1,Images/Speaker1.jpg,Images/Speaker2.jpg,Images/Speaker3.jpg,Images/Speaker4.jpg,Audio/Speaker1_Per/P1-8-Per.wav,Speaker1,گوینده ۱,,,,,893010,001,2024-08-04_14h43.37.994,5-32 ready-Group3 English Trained,2024.1.5,None,2024-08-04 14h43.43.157519 +0900,
,,,,,,,Images/Speaker1.jpg,Images/Speaker2.jpg,Images/Speaker3.jpg,Images/Speaker4.jpg,Audio/Speaker3_Per/P3-2-Per.wav,Speaker3,گوینده۳,,,,,,,,,0,29,29,41,336.774682457999,,,,,,,,,,,,,,,,,,,,,,,,,,,,,,,,,,,,,,,,,,,,,,,,,,,,,,,,,,,,,,,,,,,,,,,,,,,,,,,,,,,,,,,,,,,,,,,,,,,,,,,,,,,,,,336.7506856250002,336.774682457999,336.774682457999,336.774682457999,336.774682457999,336.7792574163327,336.774682457999,336.774682457999,337.4415527909987,1,0.6660038749978412,None,1,Images/Speaker1.jpg,Images/Speaker2.jpg,Images/Speaker3.jpg,Images/Speaker4.jpg,Audio/Speaker3_Per/P3-2-Per.wav,Speaker3,گوینده۳,,,,,893010,001,2024-08-04_14h43.37.994,5-32 ready-Group3 English Trained,2024.1.5,None,2024-08-04 14h43.43.157519 +0900,
,,,,,,,Images/Speaker1.jpg,Images/Speaker2.jpg,Images/Speaker3.jpg,Images/Speaker4.jpg,Audio/Speaker2_Per/P2-14-Per.wav,Speaker2,گوینده۲,,,,,,,,,0,30,30,33,337.4712073749979,,,,,,,,,,,,,,,,,,,,,,,,,,,,,,,,,,,,,,,,,,,,,,,,,,,,,,,,,,,,,,,,,,,,,,,,,,,,,,,,,,,,,,,,,,,,,,,,,,,,,,,,,,,,,,337.44745016600064,337.4712073749979,337.4712073749979,337.4712073749979,337.4712073749979,337.4741079993332,337.4712073749979,337.4712073749979,338.141292332999,1,0.6677695830003358,None,1,Images/Speaker1.jpg,Images/Speaker2.jpg,Images/Speaker3.jpg,Images/Speaker4.jpg,Audio/Speaker2_Per/P2-14-Per.wav,Speaker2,گوینده۲,,,,,893010,001,2024-08-04_14h43.37.994,5-32 ready-Group3 English Trained,2024.1.5,None,2024-08-04 14h43.43.157519 +0900,
,,,,,,,Images/Speaker1.jpg,Images/Speaker2.jpg,Images/Speaker3.jpg,Images/Speaker4.jpg,Audio/Speaker2_Per/P2-16-Per.wav,Speaker2,گوینده۲,,,,,,,,,0,31,31,35,338.1679914999986,,,,,,,,,,,,,,,,,,,,,,,,,,,,,,,,,,,,,,,,,,,,,,,,,,,,,,,,,,,,,,,,,,,,,,,,,,,,,,,,,,,,,,,,,,,,,,,,,,,,,,,,,,,,,,338.1453962909982,338.1679914999986,338.1679914999986,338.1679914999986,338.1679914999986,338.17384774933134,338.1679914999986,338.1679914999986,338.79701108299923,1,0.6217558329990425,None,1,Images/Speaker1.jpg,Images/Speaker2.jpg,Images/Speaker3.jpg,Images/Speaker4.jpg,Audio/Speaker2_Per/P2-16-Per.wav,Speaker2,گوینده۲,,,,,893010,001,2024-08-04_14h43.37.994,5-32 ready-Group3 English Trained,2024.1.5,None,2024-08-04 14h43.43.157519 +0900,
,,,,,,,Images/Speaker1.jpg,Images/Speaker2.jpg,Images/Speaker3.jpg,Images/Speaker4.jpg,Audio/Speaker1_Per/P1-6-Per.wav,Speaker1,گوینده ۱,,,,,,,,,0,32,32,5,338.82400833299835,,,,,,,,,,,,,,,,,,,,,,,,,,,,,,,,,,,,,,,,,,,,,,,,,,,,,,,,,,,,,,,,,,,,,,,,,,,,,,,,,,,,,,,,,,,,,,,,,,,,,,,,,,,,,,338.8010269580009,338.82400833299835,338.82400833299835,338.82400833299835,338.82400833299835,338.82952979133233,338.82400833299835,338.82400833299835,339.4704877080003,1,0.633643832999951,None,1,Images/Speaker1.jpg,Images/Speaker2.jpg,Images/Speaker3.jpg,Images/Speaker4.jpg,Audio/Speaker1_Per/P1-6-Per.wav,Speaker1,گوینده ۱,,,,,893010,001,2024-08-04_14h43.37.994,5-32 ready-Group3 English Trained,2024.1.5,None,2024-08-04 14h43.43.157519 +0900,
,,,,,,,Images/Speaker1.jpg,Images/Speaker2.jpg,Images/Speaker3.jpg,Images/Speaker4.jpg,Audio/Speaker3_Per/P3-6-Per.wav,Speaker3,گوینده۳,,,,,,,,,0,33,33,45,339.49575733299935,,,,,,,,,,,,,,,,,,,,,,,,,,,,,,,,,,,,,,,,,,,,,,,,,,,,,,,,,,,,,,,,,,,,,,,,,,,,,,,,,,,,,,,,,,,,,,,,,,,,,,,,,,,,,,339.47477666600025,339.49575733299935,339.49575733299935,339.49575733299935,339.49575733299935,339.5034003333317,339.49575733299935,339.49575733299935,340.0966625000001,1,0.5936974169999303,None,1,Images/Speaker1.jpg,Images/Speaker2.jpg,Images/Speaker3.jpg,Images/Speaker4.jpg,Audio/Speaker3_Per/P3-6-Per.wav,Speaker3,گوینده۳,,,,,893010,001,2024-08-04_14h43.37.994,5-32 ready-Group3 English Trained,2024.1.5,None,2024-08-04 14h43.43.157519 +0900,
,,,,,,,Images/Speaker1.jpg,Images/Speaker2.jpg,Images/Speaker3.jpg,Images/Speaker4.jpg,Audio/Speaker2_Per/P2-17-Per.wav,Speaker2,گوینده۲,,,,,,,,,0,34,34,36,340.12429408299795,,,,,,,,,,,,,,,,,,,,,,,,,,,,,,,,,,,,,,,,,,,,,,,,,,,,,,,,,,,,,,,,,,,,,,,,,,,,,,,,,,,,,,,,,,,,,,,,,,,,,,,,,,,,,,340.1007045410006,340.12429408299795,340.12429408299795,340.12429408299795,340.12429408299795,340.12911008333367,340.12429408299795,340.12429408299795,340.7977353749993,1,0.6616698750003707,None,1,Images/Speaker1.jpg,Images/Speaker2.jpg,Images/Speaker3.jpg,Images/Speaker4.jpg,Audio/Speaker2_Per/P2-17-Per.wav,Speaker2,گوینده۲,,,,,893010,001,2024-08-04_14h43.37.994,5-32 ready-Group3 English Trained,2024.1.5,None,2024-08-04 14h43.43.157519 +0900,
,,,,,,,Images/Speaker1.jpg,Images/Speaker2.jpg,Images/Speaker3.jpg,Images/Speaker4.jpg,Audio/Speaker4_Per/P4-15-Per.wav,Speaker4,گوینده۴,,,,,,,,,0,35,35,74,340.8254026249997,,,,,,,,,,,,,,,,,,,,,,,,,,,,,,,,,,,,,,,,,,,,,,,,,,,,,,,,,,,,,,,,,,,,,,,,,,,,,,,,,,,,,,,,,,,,,,,,,,,,,,,,,,,,,,340.8016632910003,340.8254026249997,340.8254026249997,340.8254026249997,340.8254026249997,340.8273977913309,340.8254026249997,340.8254026249997,341.470743124999,1,0.6412642499999492,None,1,Images/Speaker1.jpg,Images/Speaker2.jpg,Images/Speaker3.jpg,Images/Speaker4.jpg,Audio/Speaker4_Per/P4-15-Per.wav,Speaker4,گوینده۴,,,,,893010,001,2024-08-04_14h43.37.994,5-32 ready-Group3 English Trained,2024.1.5,None,2024-08-04 14h43.43.157519 +0900,
,,,,,,,Images/Speaker1.jpg,Images/Speaker2.jpg,Images/Speaker3.jpg,Images/Speaker4.jpg,Audio/Speaker3_Per/P3-5-Per.wav,Speaker3,گوینده۳,,,,,,,,,0,36,36,44,341.4984968329991,,,,,,,,,,,,,,,,,,,,,,,,,,,,,,,,,,,,,,,,,,,,,,,,,,,,,,,,,,,,,,,,,,,,,,,,,,,,,,,,,,,,,,,,,,,,,,,,,,,,,,,,,,,,,,341.47511287499947,341.4984968329991,341.4984968329991,341.4984968329991,341.4984968329991,341.5033662083338,341.4984968329991,341.4984968329991,342.15094787499766,1,0.6490942499985977,None,1,Images/Speaker1.jpg,Images/Speaker2.jpg,Images/Speaker3.jpg,Images/Speaker4.jpg,Audio/Speaker3_Per/P3-5-Per.wav,Speaker3,گوینده۳,,,,,893010,001,2024-08-04_14h43.37.994,5-32 ready-Group3 English Trained,2024.1.5,None,2024-08-04 14h43.43.157519 +0900,
,,,,,,,Images/Speaker1.jpg,Images/Speaker2.jpg,Images/Speaker3.jpg,Images/Speaker4.jpg,Audio/Speaker2_Per/P2-13-Per.wav,Speaker2,گوینده۲,,,,,,,,,0,37,37,32,342.17846737500076,,,,,,,,,,,,,,,,,,,,,,,,,,,,,,,,,,,,,,,,,,,,,,,,,,,,,,,,,,,,,,,,,,,,,,,,,,,,,,,,,,,,,,,,,,,,,,,,,,,,,,,,,,,,,,342.1552544160004,342.17846737500076,342.17846737500076,342.17846737500076,342.17846737500076,342.1834859163323,342.17846737500076,342.17846737500076,342.7913365409986,1,0.6114856250023877,None,1,Images/Speaker1.jpg,Images/Speaker2.jpg,Images/Speaker3.jpg,Images/Speaker4.jpg,Audio/Speaker2_Per/P2-13-Per.wav,Speaker2,گوینده۲,,,,,893010,001,2024-08-04_14h43.37.994,5-32 ready-Group3 English Trained,2024.1.5,None,2024-08-04 14h43.43.157519 +0900,
,,,,,,,Images/Speaker1.jpg,Images/Speaker2.jpg,Images/Speaker3.jpg,Images/Speaker4.jpg,Audio/Speaker2_Per/P2-19-Per.wav,Speaker2,گوینده۲,,,,,,,,,0,38,38,38,342.8196757500009,,,,,,,,,,,,,,,,,,,,,,,,,,,,,,,,,,,,,,,,,,,,,,,,,,,,,,,,,,,,,,,,,,,,,,,,,,,,,,,,,,,,,,,,,,,,,,,,,,,,,,,,,,,,,,342.79572695800016,342.8196757500009,342.8196757500009,342.8196757500009,342.8196757500009,342.82383554133094,342.8196757500009,342.8196757500009,343.50532966600076,1,0.6781612500017218,None,1,Images/Speaker1.jpg,Images/Speaker2.jpg,Images/Speaker3.jpg,Images/Speaker4.jpg,Audio/Speaker2_Per/P2-19-Per.wav,Speaker2,گوینده۲,,,,,893010,001,2024-08-04_14h43.37.994,5-32 ready-Group3 English Trained,2024.1.5,None,2024-08-04 14h43.43.157519 +0900,
,,,,,,,Images/Speaker1.jpg,Images/Speaker2.jpg,Images/Speaker3.jpg,Images/Speaker4.jpg,Audio/Speaker1_Per/P1-1-Per.wav,Speaker1,گوینده ۱,,,,,,,,,0,39,39,0,343.5323535409989,,,,,,,,,,,,,,,,,,,,,,,,,,,,,,,,,,,,,,,,,,,,,,,,,,,,,,,,,,,,,,,,,,,,,,,,,,,,,,,,,,,,,,,,,,,,,,,,,,,,,,,,,,,,,,343.5094747910007,343.5323535409989,343.5323535409989,343.5323535409989,343.5323535409989,343.5379429163336,343.5323535409989,343.5323535409989,344.18487874999846,1,0.6483508340024855,None,1,Images/Speaker1.jpg,Images/Speaker2.jpg,Images/Speaker3.jpg,Images/Speaker4.jpg,Audio/Speaker1_Per/P1-1-Per.wav,Speaker1,گوینده ۱,,,,,893010,001,2024-08-04_14h43.37.994,5-32 ready-Group3 English Trained,2024.1.5,None,2024-08-04 14h43.43.157519 +0900,
,,,,,,,Images/Speaker1.jpg,Images/Speaker2.jpg,Images/Speaker3.jpg,Images/Speaker4.jpg,Audio/Speaker3_Per/P3-14-Per.wav,Speaker3,گوینده۳,,,,,,,,,0,40,40,53,344.21302070800084,,,,,,,,,,,,,,,,,,,,,,,,,,,,,,,,,,,,,,,,,,,,,,,,,,,,,,,,,,,,,,,,,,,,,,,,,,,,,,,,,,,,,,,,,,,,,,,,,,,,,,,,,,,,,,344.18895366599827,344.21302070800084,344.21302070800084,344.21302070800084,344.21302070800084,344.21738774933374,344.21302070800084,344.21302070800084,344.8797992910004,1,0.6595281670015538,None,1,Images/Speaker1.jpg,Images/Speaker2.jpg,Images/Speaker3.jpg,Images/Speaker4.jpg,Audio/Speaker3_Per/P3-14-Per.wav,Speaker3,گوینده۳,,,,,893010,001,2024-08-04_14h43.37.994,5-32 ready-Group3 English Trained,2024.1.5,None,2024-08-04 14h43.43.157519 +0900,
,,,,,,,Images/Speaker1.jpg,Images/Speaker2.jpg,Images/Speaker3.jpg,Images/Speaker4.jpg,Audio/Speaker2_Per/P2-3-Per.wav,Speaker2,گوینده۲,,,,,,,,,0,41,41,22,344.9068059159981,,,,,,,,,,,,,,,,,,,,,,,,,,,,,,,,,,,,,,,,,,,,,,,,,,,,,,,,,,,,,,,,,,,,,,,,,,,,,,,,,,,,,,,,,,,,,,,,,,,,,,,,,,,,,,344.88415845800046,344.9068059159981,344.9068059159981,344.9068059159981,344.9068059159981,344.9123172083314,344.9068059159981,344.9068059159981,345.48352266599977,1,0.5733401249999588,None,1,Images/Speaker1.jpg,Images/Speaker2.jpg,Images/Speaker3.jpg,Images/Speaker4.jpg,Audio/Speaker2_Per/P2-3-Per.wav,Speaker2,گوینده۲,,,,,893010,001,2024-08-04_14h43.37.994,5-32 ready-Group3 English Trained,2024.1.5,None,2024-08-04 14h43.43.157519 +0900,
