SpeakerImage1,SpeakerImage2,SpeakerImage3,SpeakerImage4,TrainingSound,EnglishCorrectAnswer,PersianCorrectAnswer,TrainingLoopGroup1.thisRepN,TrainingLoopGroup1.thisTrialN,TrainingLoopGroup1.thisN,TrainingLoopGroup1.thisIndex,TrainingLoopGroup2.thisRepN,TrainingLoopGroup2.thisTrialN,TrainingLoopGroup2.thisN,TrainingLoopGroup2.thisIndex,TrainingLoopGroup3.thisRepN,TrainingLoopGroup3.thisTrialN,TrainingLoopGroup3.thisN,TrainingLoopGroup3.thisIndex,testPhase1Loop.thisRepN,testPhase1Loop.thisTrialN,testPhase1Loop.thisN,testPhase1Loop.thisIndex,SpeakerPhoto1,SpeakerPhoto2,SpeakerPhoto3,SpeakerPhoto4,TestingSound,EnglishCorrectResponse,PersianCorrectResponse,thisRow.t,notes,trial.started,trial.stopped,GroupSelection.started,GroupInstructions.started,key_resp.started,GroupSelection.stopped,key_resp.keys,key_resp.rt,key_resp.duration,Introduction.started,text_2.started,image.started,sound_7.started,text_4.started,text_2.stopped,sound_8.started,image.stopped,text_4.stopped,image_7.started,sound_9.started,text_5.started,sound_10.started,image_7.stopped,text_5.stopped,image_8.started,sound_11.started,text_6.started,sound_12.started,image_8.stopped,text_6.stopped,image_9.started,sound_13.started,text_7.started,sound_14.started,image_9.stopped,text_7.stopped,Introduction.stopped,Instructions.started,InstructionText.started,InstructionText.stopped,Instructions.stopped,InitializeExperiment.started,InitializeExperiment.stopped,TrainingGroup3.started,SpeakerPicture3.started,image_15.started,image_16.started,image_17.started,Sound3.started,Instruction3.started,Response3.started,TrainingGroup3.stopped,feedbackText,Response3.keys,Response3.rt,Response3.duration,correct_responses,total_trials,FeedbackRoutine3.started,FeedbackText3.started,FeedbackRoutine3.stopped,FeedbackText3.stopped,TransitionRoutine.started,TransitionRoutine.stopped,nextRoutine,WelcomeTest.started,text_12.started,text_12.stopped,WelcomeTest.stopped,TestPhase1.started,participant,session,date,expName,psychopyVersion,frameRate,expStart,
,,,,,,,,,,,,,,,,,,,,,,,,,,,,,,,,0.010525167000196234,0.010852708999664173,,,,,,,,,,,,,,,,,,,,,,,,,,,,,,,,,,,,,,,,,,,,,,,,,,,,,,,,,,,,,,,,,,,,,903066,001,2024-06-30_12h04.44.493,5-21,2024.1.4,None,2024-06-30 12h04.49.561103 +0900,
,,,,,,,,,,,,,,,,,,,,,,,,,,,,,,,,,,0.010868833999666094,0.01634391700008564,0.01634391700008564,2.0279925419999927,3,1.9745027919998392,None,,,,,,,,,,,,,,,,,,,,,,,,,,,,,,,,,,,,,,,,,,,,,,,,,,,,,,,,,,,,,,903066,001,2024-06-30_12h04.44.493,5-21,2024.1.4,None,2024-06-30 12h04.49.561103 +0900,
,,,,,,,,,,,,,,,,,,,,,,,,,,,,,,,,,,,,,,,,,2.0280226249997213,2.093799291999858,7.020764124999914,7.0278967506667565,7.020764124999914,7.0828946250003355,12.028340750667,17.020431875000213,17.020431875000213,17.02828220900028,17.03709854166688,17.02828220900028,22.029231791666703,27.022184833999745,27.022184833999745,27.022184833999745,27.031377083666726,27.022184833999745,32.02882025066653,37.01673287500034,37.01673287500034,37.02781679199961,37.03339954166701,37.02781679199961,42.03902583366677,47.02136158400026,47.02136158400026,47.015993209000044,,,,,,,,,,,,,,,,,,,,,,,,,,,,,,,,,,903066,001,2024-06-30_12h04.44.493,5-21,2024.1.4,None,2024-06-30 12h04.49.561103 +0900,
,,,,,,,,,,,,,,,,,,,,,,,,,,,,,,,,,,,,,,,,,,,,,,,,,,,,,,,,,,,,,,,,,,,,,47.016066459000285,47.02136158400026,48.09564641700035,48.014168333999805,,,,,,,,,,,,,,,,,,,,,,,,,,,,,,903066,001,2024-06-30_12h04.44.493,5-21,2024.1.4,None,2024-06-30 12h04.49.561103 +0900,
,,,,,,,,,,,,,,,,,,,,,,,,,,,,,,,,,,,,,,,,,,,,,,,,,,,,,,,,,,,,,,,,,,,,,,,,,48.014181124999595,48.014331542000036,,,,,,,,,,,,,,,,,,,,,,,,,,,,903066,001,2024-06-30_12h04.44.493,5-21,2024.1.4,None,2024-06-30 12h04.49.561103 +0900,
Images/Speaker1.jpg,Images/Speaker2.jpg,Images/Speaker3.jpg,Images/Speaker4.jpg,Audio/Speaker4_En/P4-17-En.wav,Speaker4,گوینده۴,,,,,,,,,0,0,0,76,,,,,,,,,,,,48.09564641700035,,,,,,,,,,,,,,,,,,,,,,,,,,,,,,,,,,,,,,,,,,,,,48.07022808399961,48.09564641700035,48.09564641700035,48.09564641700035,48.09564641700035,48.09725825033305,48.09564641700035,48.09564641700035,51.88110604200028,Incorrect! The correct answer is Speaker4. نادرست! پاسخ صحیح گوینده۴ است,3,3.777629375000288,None,0,1,51.88249358400026,51.905002084000444,53.88789637500031,,,,,,,,,,903066,001,2024-06-30_12h04.44.493,5-21,2024.1.4,None,2024-06-30 12h04.49.561103 +0900,
Images/Speaker1.jpg,Images/Speaker2.jpg,Images/Speaker3.jpg,Images/Speaker4.jpg,Audio/Speaker2_En/P2-4-En.wav,Speaker2,گوینده۲,,,,,,,,,0,1,1,23,,,,,,,,,,,,53.911976125000365,,,,,,,,,,,,,,,,,,,,,,,,,,,,,,,,,,,,,,,,,,,,,53.88806408399978,53.911976125000365,53.911976125000365,53.911976125000365,53.911976125000365,53.921197000333024,53.911976125000365,53.911976125000365,55.42429870900014,Incorrect! The correct answer is Speaker2. نادرست! پاسخ صحیح گوینده۲ است,3,1.5026522079997449,None,0,2,55.42815570899984,55.43846733400005,57.424641542000245,57.448238666999714,,,,,,,,,903066,001,2024-06-30_12h04.44.493,5-21,2024.1.4,None,2024-06-30 12h04.49.561103 +0900,
Images/Speaker1.jpg,Images/Speaker2.jpg,Images/Speaker3.jpg,Images/Speaker4.jpg,Audio/Speaker1_En/P1-5-En.wav,Speaker1,گوینده ۱,,,,,,,,,0,2,2,4,,,,,,,,,,,,57.448238666999714,,,,,,,,,,,,,,,,,,,,,,,,,,,,,,,,,,,,,,,,,,,,,57.42481704199963,57.448238666999714,57.448238666999714,57.448238666999714,57.448238666999714,57.4577645003333,57.448238666999714,57.448238666999714,58.546002000000044,Incorrect! The correct answer is Speaker1. نادرست! پاسخ صحیح گوینده ۱ است,3,1.0863614169993525,None,0,3,58.55005108400019,58.56323133400019,60.55046629200024,60.5760051670004,,,,,,,,,903066,001,2024-06-30_12h04.44.493,5-21,2024.1.4,None,2024-06-30 12h04.49.561103 +0900,
Images/Speaker1.jpg,Images/Speaker2.jpg,Images/Speaker3.jpg,Images/Speaker4.jpg,Audio/Speaker2_En/P2-11-En.wav,Speaker2,گوینده۲,,,,,,,,,0,3,3,30,,,,,,,,,,,,60.5760051670004,,,,,,,,,,,,,,,,,,,,,,,,,,,,,,,,,,,,,,,,,,,,,60.551423292000436,60.5760051670004,60.5760051670004,60.5760051670004,60.5760051670004,60.58289162533359,60.5760051670004,60.5760051670004,61.82540612499997,Incorrect! The correct answer is Speaker2. نادرست! پاسخ صحیح گوینده۲ است,3,1.2446242089999942,None,0,4,61.8294784589998,61.84239466700001,63.82938224999998,63.85254716700001,,,,,,,,,903066,001,2024-06-30_12h04.44.493,5-21,2024.1.4,None,2024-06-30 12h04.49.561103 +0900,
Images/Speaker1.jpg,Images/Speaker2.jpg,Images/Speaker3.jpg,Images/Speaker4.jpg,Audio/Speaker4_En/P4-8-En.wav,Speaker4,گوینده۴,,,,,,,,,0,4,4,67,,,,,,,,,,,,63.85254716700001,,,,,,,,,,,,,,,,,,,,,,,,,,,,,,,,,,,,,,,,,,,,,63.82955674999994,63.85254716700001,63.85254716700001,63.85254716700001,63.85254716700001,63.86249312533303,63.85254716700001,63.85254716700001,65.03431754200028,Incorrect! The correct answer is Speaker4. نادرست! پاسخ صحیح گوینده۴ است,3,1.1789933749996635,None,0,5,65.03847758400025,65.05127866699968,67.04026812499978,,,,,,,,,,903066,001,2024-06-30_12h04.44.493,5-21,2024.1.4,None,2024-06-30 12h04.49.561103 +0900,
Images/Speaker1.jpg,Images/Speaker2.jpg,Images/Speaker3.jpg,Images/Speaker4.jpg,Audio/Speaker4_En/P4-2-En.wav,Speaker4,گوینده۴,,,,,,,,,0,5,5,61,,,,,,,,,,,,67.0676711670003,,,,,,,,,,,,,,,,,,,,,,,,,,,,,,,,,,,,,,,,,,,,,67.04090187499969,67.0676711670003,67.0676711670003,67.0676711670003,67.0676711670003,67.07344920833341,67.0676711670003,67.0676711670003,68.15651024999988,Incorrect! The correct answer is Speaker4. نادرست! پاسخ صحیح گوینده۴ است,3,1.0856085830000666,None,0,6,68.16041450000012,68.17386350000015,70.16070633399977,70.18677624999964,,,,,,,,,903066,001,2024-06-30_12h04.44.493,5-21,2024.1.4,None,2024-06-30 12h04.49.561103 +0900,
Images/Speaker1.jpg,Images/Speaker2.jpg,Images/Speaker3.jpg,Images/Speaker4.jpg,Audio/Speaker2_En/P2-16-En.wav,Speaker2,گوینده۲,,,,,,,,,0,6,6,35,,,,,,,,,,,,70.18677624999964,,,,,,,,,,,,,,,,,,,,,,,,,,,,,,,,,,,,,,,,,,,,,70.16115533399989,70.18677624999964,70.18677624999964,70.18677624999964,70.18677624999964,70.19350720833293,70.18677624999964,70.18677624999964,71.25366974999997,Incorrect! The correct answer is Speaker2. نادرست! پاسخ صحیح گوینده۲ است,3,1.0609533329998158,None,0,7,71.25766312500036,71.27089841700035,73.261885334,,,,,,,,,,903066,001,2024-06-30_12h04.44.493,5-21,2024.1.4,None,2024-06-30 12h04.49.561103 +0900,
Images/Speaker1.jpg,Images/Speaker2.jpg,Images/Speaker3.jpg,Images/Speaker4.jpg,Audio/Speaker2_En/P2-20-En.wav,Speaker2,گوینده۲,,,,,,,,,0,7,7,39,,,,,,,,,,,,73.28723320900008,,,,,,,,,,,,,,,,,,,,,,,,,,,,,,,,,,,,,,,,,,,,,73.26206604199979,73.28723320900008,73.28723320900008,73.28723320900008,73.28723320900008,73.29518504233377,73.28723320900008,73.28723320900008,74.65386633399976,Incorrect! The correct answer is Speaker2. نادرست! پاسخ صحیح گوینده۲ است,3,1.3620460410002124,None,0,8,74.65808962499977,74.67299999999977,76.65741937500025,76.68119870900045,,,,,,,,,903066,001,2024-06-30_12h04.44.493,5-21,2024.1.4,None,2024-06-30 12h04.49.561103 +0900,
Images/Speaker1.jpg,Images/Speaker2.jpg,Images/Speaker3.jpg,Images/Speaker4.jpg,Audio/Speaker2_En/P2-13-En.wav,Speaker2,گوینده۲,,,,,,,,,0,8,8,32,,,,,,,,,,,,76.68119870900045,,,,,,,,,,,,,,,,,,,,,,,,,,,,,,,,,,,,,,,,,,,,,76.65758050000022,76.68119870900045,76.68119870900045,76.68119870900045,76.68119870900045,76.69048379233348,76.68119870900045,76.68119870900045,77.68294533399967,Incorrect! The correct answer is Speaker2. نادرست! پاسخ صحیح گوینده۲ است,3,1.000717832999726,None,0,9,77.68691254199985,77.7002090420001,79.68368454200026,79.70631883399983,,,,,,,,,903066,001,2024-06-30_12h04.44.493,5-21,2024.1.4,None,2024-06-30 12h04.49.561103 +0900,
Images/Speaker1.jpg,Images/Speaker2.jpg,Images/Speaker3.jpg,Images/Speaker4.jpg,Audio/Speaker2_En/P2-12-En.wav,Speaker2,گوینده۲,,,,,,,,,0,9,9,31,,,,,,,,,,,,79.70631883399983,,,,,,,,,,,,,,,,,,,,,,,,,,,,,,,,,,,,,,,,,,,,,79.68385000000035,79.70631883399983,79.70631883399983,79.70631883399983,79.70631883399983,79.70002725066685,79.70631883399983,79.70631883399983,80.75820004199977,Incorrect! The correct answer is Speaker2. نادرست! پاسخ صحیح گوینده۲ است,3,1.0420964169998115,None,0,10,80.76236324999991,80.7756133339999,82.75859733400011,82.78062858399971,,,,,,,,,903066,001,2024-06-30_12h04.44.493,5-21,2024.1.4,None,2024-06-30 12h04.49.561103 +0900,
Images/Speaker1.jpg,Images/Speaker2.jpg,Images/Speaker3.jpg,Images/Speaker4.jpg,Audio/Speaker3_En/P3-9-En.wav,Speaker3,گوینده۳,,,,,,,,,0,10,10,48,,,,,,,,,,,,82.78062858399971,,,,,,,,,,,,,,,,,,,,,,,,,,,,,,,,,,,,,,,,,,,,,82.75879708400043,82.78062858399971,82.78062858399971,82.78062858399971,82.78062858399971,82.77498145866709,82.78062858399971,82.78062858399971,84.19801604199984,Incorrect! The correct answer is Speaker3. نادرست! پاسخ صحیح گوینده۳ است,2,1.4090877919998093,None,0,11,84.20175595900037,84.21603700000014,86.20385691699994,,,,,,,,,,903066,001,2024-06-30_12h04.44.493,5-21,2024.1.4,None,2024-06-30 12h04.49.561103 +0900,
Images/Speaker1.jpg,Images/Speaker2.jpg,Images/Speaker3.jpg,Images/Speaker4.jpg,Audio/Speaker3_En/P3-14-En.wav,Speaker3,گوینده۳,,,,,,,,,0,11,11,53,,,,,,,,,,,,86.23196045900022,,,,,,,,,,,,,,,,,,,,,,,,,,,,,,,,,,,,,,,,,,,,,86.2044099169998,86.23196045900022,86.23196045900022,86.23196045900022,86.23196045900022,86.23704887533361,86.23196045900022,86.23196045900022,87.40391208399978,Incorrect! The correct answer is Speaker3. نادرست! پاسخ صحیح گوینده۳ است,2,1.164630708999539,None,0,12,87.40896683400024,87.42390629199963,89.40850450000016,89.43135125000026,,,,,,,,,903066,001,2024-06-30_12h04.44.493,5-21,2024.1.4,None,2024-06-30 12h04.49.561103 +0900,
Images/Speaker1.jpg,Images/Speaker2.jpg,Images/Speaker3.jpg,Images/Speaker4.jpg,Audio/Speaker2_En/P2-18-En.wav,Speaker2,گوینده۲,,,,,,,,,0,12,12,37,,,,,,,,,,,,89.43135125000026,,,,,,,,,,,,,,,,,,,,,,,,,,,,,,,,,,,,,,,,,,,,,89.40867854200042,89.43135125000026,89.43135125000026,89.43135125000026,89.43135125000026,89.42496604166651,89.43135125000026,89.43135125000026,90.72177449999981,Incorrect! The correct answer is Speaker2. نادرست! پاسخ صحیح گوینده۲ است,3,1.2880960829998003,None,0,13,90.72554391700032,90.73869270900013,92.72435654200035,92.74730050000016,,,,,,,,,903066,001,2024-06-30_12h04.44.493,5-21,2024.1.4,None,2024-06-30 12h04.49.561103 +0900,
Images/Speaker1.jpg,Images/Speaker2.jpg,Images/Speaker3.jpg,Images/Speaker4.jpg,Audio/Speaker3_En/P3-7-En.wav,Speaker3,گوینده۳,,,,,,,,,0,13,13,46,,,,,,,,,,,,92.74730050000016,,,,,,,,,,,,,,,,,,,,,,,,,,,,,,,,,,,,,,,,,,,,,92.7245142920001,92.74730050000016,92.74730050000016,92.74730050000016,92.74730050000016,92.74082912566634,92.74730050000016,92.74730050000016,94.340551667,Incorrect! The correct answer is Speaker3. نادرست! پاسخ صحیح گوینده۳ است,2,1.5907222920004642,None,0,14,94.3452574590001,94.35939520900047,96.35361637500046,,,,,,,,,,903066,001,2024-06-30_12h04.44.493,5-21,2024.1.4,None,2024-06-30 12h04.49.561103 +0900,
Images/Speaker1.jpg,Images/Speaker2.jpg,Images/Speaker3.jpg,Images/Speaker4.jpg,Audio/Speaker4_En/P4-9-En.wav,Speaker4,گوینده۴,,,,,,,,,0,14,14,68,,,,,,,,,,,,96.37703779200001,,,,,,,,,,,,,,,,,,,,,,,,,,,,,,,,,,,,,,,,,,,,,96.35379233399999,96.37703779200001,96.37703779200001,96.37703779200001,96.37703779200001,96.38691612533378,96.37703779200001,96.37703779200001,97.36364270900049,Incorrect! The correct answer is Speaker4. نادرست! پاسخ صحیح گوینده۴ است,2,0.9849562919998789,None,0,15,97.36745574999986,97.38080916699982,99.37029504200018,,,,,,,,,,903066,001,2024-06-30_12h04.44.493,5-21,2024.1.4,None,2024-06-30 12h04.49.561103 +0900,
Images/Speaker1.jpg,Images/Speaker2.jpg,Images/Speaker3.jpg,Images/Speaker4.jpg,Audio/Speaker3_En/P3-16-En.wav,Speaker3,گوینده۳,,,,,,,,,0,15,15,55,,,,,,,,,,,,99.39393858400035,,,,,,,,,,,,,,,,,,,,,,,,,,,,,,,,,,,,,,,,,,,,,99.37045575000047,99.39393858400035,99.39393858400035,99.39393858400035,99.39393858400035,99.40359654233319,99.39393858400035,99.39393858400035,101.18863712500024,Incorrect! The correct answer is Speaker3. نادرست! پاسخ صحیح گوینده۳ است,2,1.792727542000648,None,0,16,101.19277737500033,101.20650741700047,103.19708449999962,,,,,,,,,,903066,001,2024-06-30_12h04.44.493,5-21,2024.1.4,None,2024-06-30 12h04.49.561103 +0900,
Images/Speaker1.jpg,Images/Speaker2.jpg,Images/Speaker3.jpg,Images/Speaker4.jpg,Audio/Speaker2_En/P2-14-En.wav,Speaker2,گوینده۲,,,,,,,,,0,16,16,33,,,,,,,,,,,,103.22509658400031,,,,,,,,,,,,,,,,,,,,,,,,,,,,,,,,,,,,,,,,,,,,,103.1977352089998,103.22509658400031,103.22509658400031,103.22509658400031,103.22509658400031,103.23022579233341,103.22509658400031,103.22509658400031,104.3428824169996,Incorrect! The correct answer is Speaker2. نادرست! پاسخ صحیح گوینده۲ است,3,1.1152339580003172,None,0,17,104.34759179200046,104.36248725000041,106.3575433750002,,,,,,,,,,903066,001,2024-06-30_12h04.44.493,5-21,2024.1.4,None,2024-06-30 12h04.49.561103 +0900,
Images/Speaker1.jpg,Images/Speaker2.jpg,Images/Speaker3.jpg,Images/Speaker4.jpg,Audio/Speaker2_En/P2-9-En.wav,Speaker2,گوینده۲,,,,,,,,,0,17,17,28,,,,,,,,,,,,106.38336062500002,,,,,,,,,,,,,,,,,,,,,,,,,,,,,,,,,,,,,,,,,,,,,106.35814595900047,106.38336062500002,106.38336062500002,106.38336062500002,106.38336062500002,106.39072579233337,106.38336062500002,106.38336062500002,107.4487348749999,Incorrect! The correct answer is Speaker2. نادرست! پاسخ صحیح گوینده۲ است,3,1.0600783330000922,None,0,18,107.45383879200017,107.46765095899991,109.4556085840004,,,,,,,,,,903066,001,2024-06-30_12h04.44.493,5-21,2024.1.4,None,2024-06-30 12h04.49.561103 +0900,
Images/Speaker1.jpg,Images/Speaker2.jpg,Images/Speaker3.jpg,Images/Speaker4.jpg,Audio/Speaker3_En/P3-19-En.wav,Speaker3,گوینده۳,,,,,,,,,0,18,18,58,,,,,,,,,,,,109.47932079200018,,,,,,,,,,,,,,,,,,,,,,,,,,,,,,,,,,,,,,,,,,,,,109.45580554200023,109.47932079200018,109.47932079200018,109.47932079200018,109.47932079200018,109.48889020833352,109.47932079200018,109.47932079200018,110.7119484169998,Correct! صحیح است,3,1.2245522910006912,None,0,19,110.71596500000032,110.72854258400002,112.71775683400028,,,,,,,,,,903066,001,2024-06-30_12h04.44.493,5-21,2024.1.4,None,2024-06-30 12h04.49.561103 +0900,
Images/Speaker1.jpg,Images/Speaker2.jpg,Images/Speaker3.jpg,Images/Speaker4.jpg,Audio/Speaker2_En/P2-7-En.wav,Speaker2,گوینده۲,,,,,,,,,0,19,19,26,,,,,,,,,,,,112.74054816700027,,,,,,,,,,,,,,,,,,,,,,,,,,,,,,,,,,,,,,,,,,,,,112.717919875,112.74054816700027,112.74054816700027,112.74054816700027,112.74054816700027,112.73438533366631,112.74054816700027,112.74054816700027,114.40552966700034,Correct! صحیح است,2,1.6629611660000592,None,0,20,114.40933841700007,114.42103091700028,116.41512841700023,,,,,,,,,,903066,001,2024-06-30_12h04.44.493,5-21,2024.1.4,None,2024-06-30 12h04.49.561103 +0900,
Images/Speaker1.jpg,Images/Speaker2.jpg,Images/Speaker3.jpg,Images/Speaker4.jpg,Audio/Speaker4_En/P4-18-En.wav,Speaker4,گوینده۴,,,,,,,,,0,20,20,77,,,,,,,,,,,,116.43797408400042,,,,,,,,,,,,,,,,,,,,,,,,,,,,,,,,,,,,,,,,,,,,,116.41529941699991,116.43797408400042,116.43797408400042,116.43797408400042,116.43797408400042,116.43175066666687,116.43797408400042,116.43797408400042,118.24521870900026,Incorrect! The correct answer is Speaker4. نادرست! پاسخ صحیح گوینده۴ است,2,1.795994250000149,None,0,21,118.24911354200049,118.25990633400033,120.24662145900038,120.27197241700014,,,,,,,,,903066,001,2024-06-30_12h04.44.493,5-21,2024.1.4,None,2024-06-30 12h04.49.561103 +0900,
Images/Speaker1.jpg,Images/Speaker2.jpg,Images/Speaker3.jpg,Images/Speaker4.jpg,Audio/Speaker1_En/P1-15-En.wav,Speaker1,گوینده ۱,,,,,,,,,0,21,21,14,,,,,,,,,,,,120.27197241700014,,,,,,,,,,,,,,,,,,,,,,,,,,,,,,,,,,,,,,,,,,,,,120.24715570900025,120.27197241700014,120.27197241700014,120.27197241700014,120.27197241700014,120.27956858333303,120.27197241700014,120.27197241700014,121.45463154200024,Incorrect! The correct answer is Speaker1. نادرست! پاسخ صحیح گوینده ۱ است,2,1.17477716600024,None,0,22,121.45970520900028,121.47366483400037,123.46362470900021,,,,,,,,,,903066,001,2024-06-30_12h04.44.493,5-21,2024.1.4,None,2024-06-30 12h04.49.561103 +0900,
Images/Speaker1.jpg,Images/Speaker2.jpg,Images/Speaker3.jpg,Images/Speaker4.jpg,Audio/Speaker4_En/P4-7-En.wav,Speaker4,گوینده۴,,,,,,,,,0,22,22,66,,,,,,,,,,,,123.48832670899992,,,,,,,,,,,,,,,,,,,,,,,,,,,,,,,,,,,,,,,,,,,,,123.46416554200005,123.48832670899992,123.48832670899992,123.48832670899992,123.48832670899992,123.49680670833325,123.48832670899992,123.48832670899992,124.67113912500008,Incorrect! The correct answer is Speaker4. نادرست! پاسخ صحیح گوینده۴ است,2,1.1802721250005561,None,0,23,124.67539120899983,124.68927625000015,126.67386295899996,126.69974458399975,,,,,,,,,903066,001,2024-06-30_12h04.44.493,5-21,2024.1.4,None,2024-06-30 12h04.49.561103 +0900,
Images/Speaker1.jpg,Images/Speaker2.jpg,Images/Speaker3.jpg,Images/Speaker4.jpg,Audio/Speaker4_En/P4-20-En.wav,Speaker4,گوینده۴,,,,,,,,,0,23,23,79,,,,,,,,,,,,126.69974458399975,,,,,,,,,,,,,,,,,,,,,,,,,,,,,,,,,,,,,,,,,,,,,126.67470683400006,126.69974458399975,126.69974458399975,126.69974458399975,126.69974458399975,126.70625387533303,126.69974458399975,126.69974458399975,128.13661304200014,Incorrect! The correct answer is Speaker4. نادرست! پاسخ صحیح گوینده۴ است,2,1.4262819169998693,None,0,24,128.14036374999978,128.15361500000017,130.13988258399968,130.16744683399975,,,,,,,,,903066,001,2024-06-30_12h04.44.493,5-21,2024.1.4,None,2024-06-30 12h04.49.561103 +0900,
Images/Speaker1.jpg,Images/Speaker2.jpg,Images/Speaker3.jpg,Images/Speaker4.jpg,Audio/Speaker1_En/P1-4-En.wav,Speaker1,گوینده ۱,,,,,,,,,0,24,24,3,,,,,,,,,,,,130.16744683399975,,,,,,,,,,,,,,,,,,,,,,,,,,,,,,,,,,,,,,,,,,,,,130.14047312500043,130.16744683399975,130.16744683399975,130.16744683399975,130.16744683399975,130.17240441733298,130.16744683399975,130.16744683399975,131.1471970419998,Incorrect! The correct answer is Speaker1. نادرست! پاسخ صحیح گوینده ۱ است,2,0.9701866250006788,None,0,25,131.15224775000024,131.16570079200028,133.15292808400045,,,,,,,,,,903066,001,2024-06-30_12h04.44.493,5-21,2024.1.4,None,2024-06-30 12h04.49.561103 +0900,
Images/Speaker1.jpg,Images/Speaker2.jpg,Images/Speaker3.jpg,Images/Speaker4.jpg,Audio/Speaker2_En/P2-3-En.wav,Speaker2,گوینده۲,,,,,,,,,0,25,25,22,,,,,,,,,,,,133.17617545899975,,,,,,,,,,,,,,,,,,,,,,,,,,,,,,,,,,,,,,,,,,,,,133.1531043750001,133.17617545899975,133.17617545899975,133.17617545899975,133.17617545899975,133.18622445833313,133.17617545899975,133.17617545899975,134.37669974999972,Incorrect! The correct answer is Speaker2. نادرست! پاسخ صحیح گوینده۲ است,3,1.198090584000056,None,0,26,134.38046316700002,134.39428712500012,136.38072079199992,,,,,,,,,,903066,001,2024-06-30_12h04.44.493,5-21,2024.1.4,None,2024-06-30 12h04.49.561103 +0900,
Images/Speaker1.jpg,Images/Speaker2.jpg,Images/Speaker3.jpg,Images/Speaker4.jpg,Audio/Speaker4_En/P4-1-En.wav,Speaker4,گوینده۴,,,,,,,,,0,26,26,60,,,,,,,,,,,,136.404752292,,,,,,,,,,,,,,,,,,,,,,,,,,,,,,,,,,,,,,,,,,,,,136.3809083340002,136.404752292,136.404752292,136.404752292,136.404752292,136.41399366733327,136.404752292,136.404752292,137.77688158399997,Incorrect! The correct answer is Speaker4. نادرست! پاسخ صحیح گوینده۴ است,3,1.3595584999993662,None,0,27,137.78079187500043,137.7942624999996,139.78092808400015,139.80374787500023,,,,,,,,,903066,001,2024-06-30_12h04.44.493,5-21,2024.1.4,None,2024-06-30 12h04.49.561103 +0900,
Images/Speaker1.jpg,Images/Speaker2.jpg,Images/Speaker3.jpg,Images/Speaker4.jpg,Audio/Speaker3_En/P3-8-En.wav,Speaker3,گوینده۳,,,,,,,,,0,27,27,47,,,,,,,,,,,,139.80374787500023,,,,,,,,,,,,,,,,,,,,,,,,,,,,,,,,,,,,,,,,,,,,,139.78109995900013,139.80374787500023,139.80374787500023,139.80374787500023,139.80374787500023,139.79721262566662,139.80374787500023,139.80374787500023,140.9327668750002,Incorrect! The correct answer is Speaker3. نادرست! پاسخ صحیح گوینده۳ است,2,1.1143730829999186,None,0,28,140.9367767089998,140.9499314169998,142.93882066700007,,,,,,,,,,903066,001,2024-06-30_12h04.44.493,5-21,2024.1.4,None,2024-06-30 12h04.49.561103 +0900,
Images/Speaker1.jpg,Images/Speaker2.jpg,Images/Speaker3.jpg,Images/Speaker4.jpg,Audio/Speaker3_En/P3-10-En.wav,Speaker3,گوینده۳,,,,,,,,,0,28,28,49,,,,,,,,,,,,142.962687792,,,,,,,,,,,,,,,,,,,,,,,,,,,,,,,,,,,,,,,,,,,,,142.93902266700024,142.962687792,142.962687792,142.962687792,142.962687792,142.97208045833355,142.962687792,142.962687792,143.98434912500034,Incorrect! The correct answer is Speaker3. نادرست! پاسخ صحیح گوینده۳ است,2,1.019426625000051,None,0,29,143.9882670420002,144.0014195419999,145.98510862500007,146.00826566700016,,,,,,,,,903066,001,2024-06-30_12h04.44.493,5-21,2024.1.4,None,2024-06-30 12h04.49.561103 +0900,
Images/Speaker1.jpg,Images/Speaker2.jpg,Images/Speaker3.jpg,Images/Speaker4.jpg,Audio/Speaker2_En/P2-8-En.wav,Speaker2,گوینده۲,,,,,,,,,0,29,29,27,,,,,,,,,,,,146.00826566700016,,,,,,,,,,,,,,,,,,,,,,,,,,,,,,,,,,,,,,,,,,,,,145.98527900000045,146.00826566700016,146.00826566700016,146.00826566700016,146.00826566700016,146.01816929233297,146.00826566700016,146.00826566700016,147.05583458399997,Incorrect! The correct answer is Speaker2. نادرست! پاسخ صحیح گوینده۲ است,3,1.046463458999824,None,0,30,147.060612667,147.07506687499972,149.06206216700048,,,,,,,,,,903066,001,2024-06-30_12h04.44.493,5-21,2024.1.4,None,2024-06-30 12h04.49.561103 +0900,
Images/Speaker1.jpg,Images/Speaker2.jpg,Images/Speaker3.jpg,Images/Speaker4.jpg,Audio/Speaker3_En/P3-5-En.wav,Speaker3,گوینده۳,,,,,,,,,0,30,30,44,,,,,,,,,,,,149.0850357090003,,,,,,,,,,,,,,,,,,,,,,,,,,,,,,,,,,,,,,,,,,,,,149.06222824999986,149.0850357090003,149.0850357090003,149.0850357090003,149.0850357090003,149.0786952086667,149.0850357090003,149.0850357090003,150.29624770900045,Incorrect! The correct answer is Speaker3. نادرست! پاسخ صحیح گوینده۳ است,2,1.2028740839996317,None,0,31,150.30023116699977,150.31087616700006,152.2987388749998,152.32613704200048,,,,,,,,,903066,001,2024-06-30_12h04.44.493,5-21,2024.1.4,None,2024-06-30 12h04.49.561103 +0900,
Images/Speaker1.jpg,Images/Speaker2.jpg,Images/Speaker3.jpg,Images/Speaker4.jpg,Audio/Speaker3_En/P3-17-En.wav,Speaker3,گوینده۳,,,,,,,,,0,31,31,56,,,,,,,,,,,,152.32613704200048,,,,,,,,,,,,,,,,,,,,,,,,,,,,,,,,,,,,,,,,,,,,,152.29964429200027,152.32613704200048,152.32613704200048,152.32613704200048,152.32613704200048,152.33119766733358,152.32613704200048,152.32613704200048,153.56633962500018,Incorrect! The correct answer is Speaker3. نادرست! پاسخ صحیح گوینده۳ است,2,1.2391892499999813,None,0,32,153.57023879200005,153.58337120899978,155.56686375000027,155.59177787499993,,,,,,,,,903066,001,2024-06-30_12h04.44.493,5-21,2024.1.4,None,2024-06-30 12h04.49.561103 +0900,
Images/Speaker1.jpg,Images/Speaker2.jpg,Images/Speaker3.jpg,Images/Speaker4.jpg,Audio/Speaker4_En/P4-10-En.wav,Speaker4,گوینده۴,,,,,,,,,0,32,32,69,,,,,,,,,,,,155.59177787499993,,,,,,,,,,,,,,,,,,,,,,,,,,,,,,,,,,,,,,,,,,,,,155.56780904199968,155.59177787499993,155.59177787499993,155.59177787499993,155.59177787499993,155.59916754233342,155.59177787499993,155.59177787499993,157.19254999999976,Incorrect! The correct answer is Speaker4. نادرست! پاسخ صحیح گوینده۴ است,2,1.5979796250003346,None,0,33,157.1964720420001,157.20952475000013,159.19539125000028,159.21995549999974,,,,,,,,,903066,001,2024-06-30_12h04.44.493,5-21,2024.1.4,None,2024-06-30 12h04.49.561103 +0900,
Images/Speaker1.jpg,Images/Speaker2.jpg,Images/Speaker3.jpg,Images/Speaker4.jpg,Audio/Speaker3_En/P3-6-En.wav,Speaker3,گوینده۳,,,,,,,,,0,33,33,45,,,,,,,,,,,,159.21995549999974,,,,,,,,,,,,,,,,,,,,,,,,,,,,,,,,,,,,,,,,,,,,,159.19555450000007,159.21995549999974,159.21995549999974,159.21995549999974,159.21995549999974,159.22846341733344,159.21995549999974,159.21995549999974,160.2494902919998,Incorrect! The correct answer is Speaker3. نادرست! پاسخ صحیح گوینده۳ است,2,1.0190076660001068,None,0,34,160.25444333399992,160.26943645899973,162.25487766700007,,,,,,,,,,903066,001,2024-06-30_12h04.44.493,5-21,2024.1.4,None,2024-06-30 12h04.49.561103 +0900,
Images/Speaker1.jpg,Images/Speaker2.jpg,Images/Speaker3.jpg,Images/Speaker4.jpg,Audio/Speaker1_En/P1-16-En.wav,Speaker1,گوینده ۱,,,,,,,,,0,34,34,15,,,,,,,,,,,,162.27781691699965,,,,,,,,,,,,,,,,,,,,,,,,,,,,,,,,,,,,,,,,,,,,,162.25504933400043,162.27781691699965,162.27781691699965,162.27781691699965,162.27781691699965,162.27148787566628,162.27781691699965,162.27781691699965,163.33708166700035,Incorrect! The correct answer is Speaker1. نادرست! پاسخ صحیح گوینده ۱ است,2,1.0570110419994307,None,0,35,163.34084016700035,163.35394474999976,165.34661849999975,,,,,,,,,,903066,001,2024-06-30_12h04.44.493,5-21,2024.1.4,None,2024-06-30 12h04.49.561103 +0900,
Images/Speaker1.jpg,Images/Speaker2.jpg,Images/Speaker3.jpg,Images/Speaker4.jpg,Audio/Speaker4_En/P4-4-En.wav,Speaker4,گوینده۴,,,,,,,,,0,35,35,63,,,,,,,,,,,,165.37203041700013,,,,,,,,,,,,,,,,,,,,,,,,,,,,,,,,,,,,,,,,,,,,,165.34676679200038,165.37203041700013,165.37203041700013,165.37203041700013,165.37203041700013,165.37992033333336,165.37203041700013,165.37203041700013,166.22167812499993,Incorrect! The correct answer is Speaker4. نادرست! پاسخ صحیح گوینده۴ است,2,0.842790708999928,None,0,36,166.2255965840004,166.24066858399965,168.231918167,,,,,,,,,,903066,001,2024-06-30_12h04.44.493,5-21,2024.1.4,None,2024-06-30 12h04.49.561103 +0900,
Images/Speaker1.jpg,Images/Speaker2.jpg,Images/Speaker3.jpg,Images/Speaker4.jpg,Audio/Speaker1_En/P1-2-En.wav,Speaker1,گوینده ۱,,,,,,,,,0,36,36,1,,,,,,,,,,,,168.25777916700008,,,,,,,,,,,,,,,,,,,,,,,,,,,,,,,,,,,,,,,,,,,,,168.23249175,168.25777916700008,168.25777916700008,168.25777916700008,168.25777916700008,168.26510541733347,168.25777916700008,168.25777916700008,168.9087407500001,Incorrect! The correct answer is Speaker1. نادرست! پاسخ صحیح گوینده ۱ است,2,0.6480588750000607,None,0,37,168.91277604199968,168.92536516699965,170.90855929200006,170.93197837499974,,,,,,,,,903066,001,2024-06-30_12h04.44.493,5-21,2024.1.4,None,2024-06-30 12h04.49.561103 +0900,
Images/Speaker1.jpg,Images/Speaker2.jpg,Images/Speaker3.jpg,Images/Speaker4.jpg,Audio/Speaker4_En/P4-11-En.wav,Speaker4,گوینده۴,,,,,,,,,0,37,37,70,,,,,,,,,,,,170.93197837499974,,,,,,,,,,,,,,,,,,,,,,,,,,,,,,,,,,,,,,,,,,,,,170.90872941700036,170.93197837499974,170.93197837499974,170.93197837499974,170.93197837499974,170.9416875003331,170.93197837499974,170.93197837499974,172.84566508399985,Incorrect! The correct answer is Speaker4. نادرست! پاسخ صحیح گوینده۴ است,2,1.9125724169998648,None,0,38,172.85002212499967,172.86345291700036,174.84727199999998,174.87168937499973,,,,,,,,,903066,001,2024-06-30_12h04.44.493,5-21,2024.1.4,None,2024-06-30 12h04.49.561103 +0900,
Images/Speaker1.jpg,Images/Speaker2.jpg,Images/Speaker3.jpg,Images/Speaker4.jpg,Audio/Speaker4_En/P4-15-En.wav,Speaker4,گوینده۴,,,,,,,,,0,38,38,74,,,,,,,,,,,,174.87168937499973,,,,,,,,,,,,,,,,,,,,,,,,,,,,,,,,,,,,,,,,,,,,,174.84753075000026,174.87168937499973,174.87168937499973,174.87168937499973,174.87168937499973,174.88023245833352,174.87168937499973,174.87168937499973,175.93209308400037,Incorrect! The correct answer is Speaker4. نادرست! پاسخ صحیح گوینده۴ است,2,1.0510404999995444,None,0,39,175.93627291699977,175.94940929200038,177.93887625000025,,,,,,,,,,903066,001,2024-06-30_12h04.44.493,5-21,2024.1.4,None,2024-06-30 12h04.49.561103 +0900,
Images/Speaker1.jpg,Images/Speaker2.jpg,Images/Speaker3.jpg,Images/Speaker4.jpg,Audio/Speaker3_En/P3-1-En.wav,Speaker3,گوینده۳,,,,,,,,,0,39,39,40,,,,,,,,,,,,177.9655085000004,,,,,,,,,,,,,,,,,,,,,,,,,,,,,,,,,,,,,,,,,,,,,177.93954674999986,177.9655085000004,177.9655085000004,177.9655085000004,177.9655085000004,177.9720282503336,177.9655085000004,177.9655085000004,179.0116075420001,Incorrect! The correct answer is Speaker3. نادرست! پاسخ صحیح گوینده۳ است,2,1.0366312079995623,None,0,40,179.0152984590004,179.02544891700018,181.01258812499964,181.03659666699969,,,,,,,,,903066,001,2024-06-30_12h04.44.493,5-21,2024.1.4,None,2024-06-30 12h04.49.561103 +0900,
Images/Speaker1.jpg,Images/Speaker2.jpg,Images/Speaker3.jpg,Images/Speaker4.jpg,Audio/Speaker2_En/P2-10-En.wav,Speaker2,گوینده۲,,,,,,,,,0,40,40,29,,,,,,,,,,,,181.03659666699969,,,,,,,,,,,,,,,,,,,,,,,,,,,,,,,,,,,,,,,,,,,,,181.0134369999996,181.03659666699969,181.03659666699969,181.03659666699969,181.03659666699969,181.04504658333332,181.03659666699969,181.03659666699969,182.0581122499998,Incorrect! The correct answer is Speaker2. نادرست! پاسخ صحیح گوینده۲ است,3,1.0118551249997836,None,0,41,182.06223533400043,182.0731065,184.0571862500001,184.08016362499984,,,,,,,,,903066,001,2024-06-30_12h04.44.493,5-21,2024.1.4,None,2024-06-30 12h04.49.561103 +0900,
Images/Speaker1.jpg,Images/Speaker2.jpg,Images/Speaker3.jpg,Images/Speaker4.jpg,Audio/Speaker4_En/P4-3-En.wav,Speaker4,گوینده۴,,,,,,,,,0,41,41,62,,,,,,,,,,,,184.08016362499984,,,,,,,,,,,,,,,,,,,,,,,,,,,,,,,,,,,,,,,,,,,,,184.0573831669999,184.08016362499984,184.08016362499984,184.08016362499984,184.08016362499984,184.0903200833332,184.08016362499984,184.08016362499984,185.12971808400016,Incorrect! The correct answer is Speaker4. نادرست! پاسخ صحیح گوینده۴ است,3,1.044113875000221,None,0,42,185.13381870900048,185.14713895899968,187.1307298339998,187.15396783400047,,,,,,,,,903066,001,2024-06-30_12h04.44.493,5-21,2024.1.4,None,2024-06-30 12h04.49.561103 +0900,
Images/Speaker1.jpg,Images/Speaker2.jpg,Images/Speaker3.jpg,Images/Speaker4.jpg,Audio/Speaker1_En/P1-10-En.wav,Speaker1,گوینده ۱,,,,,,,,,0,42,42,9,,,,,,,,,,,,187.15396783400047,,,,,,,,,,,,,,,,,,,,,,,,,,,,,,,,,,,,,,,,,,,,,187.13090841699977,187.15396783400047,187.15396783400047,187.15396783400047,187.15396783400047,187.16384133333355,187.15396783400047,187.15396783400047,188.41175291699983,Incorrect! The correct answer is Speaker1. نادرست! پاسخ صحیح گوینده ۱ است,3,1.2474495000005845,None,0,43,188.4156803750002,188.42874129200027,190.42234287500014,,,,,,,,,,903066,001,2024-06-30_12h04.44.493,5-21,2024.1.4,None,2024-06-30 12h04.49.561103 +0900,
Images/Speaker1.jpg,Images/Speaker2.jpg,Images/Speaker3.jpg,Images/Speaker4.jpg,Audio/Speaker1_En/P1-18-En.wav,Speaker1,گوینده ۱,,,,,,,,,0,43,43,17,,,,,,,,,,,,190.44760995900015,,,,,,,,,,,,,,,,,,,,,,,,,,,,,,,,,,,,,,,,,,,,,190.4229300420002,190.44760995900015,190.44760995900015,190.44760995900015,190.44760995900015,190.45549066733344,190.44760995900015,190.44760995900015,191.45612254200023,Incorrect! The correct answer is Speaker1. نادرست! پاسخ صحیح گوینده ۱ است,3,1.0007274579993464,None,0,44,191.46011025000007,191.4704508750001,193.45920029199988,193.48412541699963,,,,,,,,,903066,001,2024-06-30_12h04.44.493,5-21,2024.1.4,None,2024-06-30 12h04.49.561103 +0900,
Images/Speaker1.jpg,Images/Speaker2.jpg,Images/Speaker3.jpg,Images/Speaker4.jpg,Audio/Speaker2_En/P2-1-En.wav,Speaker2,گوینده۲,,,,,,,,,0,44,44,20,,,,,,,,,,,,193.48412541699963,,,,,,,,,,,,,,,,,,,,,,,,,,,,,,,,,,,,,,,,,,,,,193.46019058399997,193.48412541699963,193.48412541699963,193.48412541699963,193.48412541699963,193.49150570833314,193.48412541699963,193.48412541699963,194.6881459590004,Incorrect! The correct answer is Speaker2. نادرست! پاسخ صحیح گوینده۲ است,3,1.2030048329997953,None,0,45,194.69322133399965,194.70769954200023,196.69103016700046,196.71406449999995,,,,,,,,,903066,001,2024-06-30_12h04.44.493,5-21,2024.1.4,None,2024-06-30 12h04.49.561103 +0900,
Images/Speaker1.jpg,Images/Speaker2.jpg,Images/Speaker3.jpg,Images/Speaker4.jpg,Audio/Speaker4_En/P4-16-En.wav,Speaker4,گوینده۴,,,,,,,,,0,45,45,75,,,,,,,,,,,,196.71406449999995,,,,,,,,,,,,,,,,,,,,,,,,,,,,,,,,,,,,,,,,,,,,,196.69119870899976,196.71406449999995,196.71406449999995,196.71406449999995,196.71406449999995,196.70750904166678,196.71406449999995,196.71406449999995,197.93045354199967,Incorrect! The correct answer is Speaker4. نادرست! پاسخ صحیح گوینده۴ است,3,1.2116699580001296,None,0,46,197.93541112500043,197.9499127500003,199.93410629200025,199.9576285840003,,,,,,,,,903066,001,2024-06-30_12h04.44.493,5-21,2024.1.4,None,2024-06-30 12h04.49.561103 +0900,
Images/Speaker1.jpg,Images/Speaker2.jpg,Images/Speaker3.jpg,Images/Speaker4.jpg,Audio/Speaker2_En/P2-6-En.wav,Speaker2,گوینده۲,,,,,,,,,0,46,46,25,,,,,,,,,,,,199.9576285840003,,,,,,,,,,,,,,,,,,,,,,,,,,,,,,,,,,,,,,,,,,,,,199.93429350000042,199.9576285840003,199.9576285840003,199.9576285840003,199.9576285840003,199.9672360003338,199.9576285840003,199.9576285840003,201.31410291700013,Incorrect! The correct answer is Speaker2. نادرست! پاسخ صحیح گوینده۲ است,3,1.3541482919999908,None,0,47,201.31825775000016,201.33161241699963,203.32084170899998,,,,,,,,,,903066,001,2024-06-30_12h04.44.493,5-21,2024.1.4,None,2024-06-30 12h04.49.561103 +0900,
Images/Speaker1.jpg,Images/Speaker2.jpg,Images/Speaker3.jpg,Images/Speaker4.jpg,Audio/Speaker4_En/P4-6-En.wav,Speaker4,گوینده۴,,,,,,,,,0,47,47,65,,,,,,,,,,,,203.34454033400016,,,,,,,,,,,,,,,,,,,,,,,,,,,,,,,,,,,,,,,,,,,,,203.32101558399972,203.34454033400016,203.34454033400016,203.34454033400016,203.34454033400016,203.35413333333378,203.34454033400016,203.34454033400016,204.4506797920003,Incorrect! The correct answer is Speaker4. نادرست! پاسخ صحیح گوینده۴ است,3,1.1040899159997934,None,0,48,204.45461049999994,204.467541084,206.4649285000005,,,,,,,,,,903066,001,2024-06-30_12h04.44.493,5-21,2024.1.4,None,2024-06-30 12h04.49.561103 +0900,
Images/Speaker1.jpg,Images/Speaker2.jpg,Images/Speaker3.jpg,Images/Speaker4.jpg,Audio/Speaker1_En/P1-6-En.wav,Speaker1,گوینده ۱,,,,,,,,,0,48,48,5,,,,,,,,,,,,206.49209650000012,,,,,,,,,,,,,,,,,,,,,,,,,,,,,,,,,,,,,,,,,,,,,206.46548812499987,206.49209650000012,206.49209650000012,206.49209650000012,206.49209650000012,206.49810633333306,206.49209650000012,206.49209650000012,207.64824379200036,Incorrect! The correct answer is Speaker1. نادرست! پاسخ صحیح گوینده ۱ است,3,1.1502210420003394,None,0,49,207.6520440000004,207.66519291700024,209.65709487500044,,,,,,,,,,903066,001,2024-06-30_12h04.44.493,5-21,2024.1.4,None,2024-06-30 12h04.49.561103 +0900,
Images/Speaker1.jpg,Images/Speaker2.jpg,Images/Speaker3.jpg,Images/Speaker4.jpg,Audio/Speaker2_En/P2-2-En.wav,Speaker2,گوینده۲,,,,,,,,,0,49,49,21,,,,,,,,,,,,209.68584795900006,,,,,,,,,,,,,,,,,,,,,,,,,,,,,,,,,,,,,,,,,,,,,209.65772216700043,209.68584795900006,209.68584795900006,209.68584795900006,209.68584795900006,209.69026112533317,209.68584795900006,209.68584795900006,210.65339949999998,Incorrect! The correct answer is Speaker2. نادرست! پاسخ صحیح گوینده۲ است,3,0.9629287090001526,None,0,50,210.6576320840004,210.67068879199996,212.657922417,212.68322645900025,,,,,,,,,903066,001,2024-06-30_12h04.44.493,5-21,2024.1.4,None,2024-06-30 12h04.49.561103 +0900,
Images/Speaker1.jpg,Images/Speaker2.jpg,Images/Speaker3.jpg,Images/Speaker4.jpg,Audio/Speaker4_En/P4-5-En.wav,Speaker4,گوینده۴,,,,,,,,,0,50,50,64,,,,,,,,,,,,212.68322645900025,,,,,,,,,,,,,,,,,,,,,,,,,,,,,,,,,,,,,,,,,,,,,212.65885224999965,212.68322645900025,212.68322645900025,212.68322645900025,212.68322645900025,212.6903475833338,212.68322645900025,212.68322645900025,214.09255783400022,Incorrect! The correct answer is Speaker4. نادرست! پاسخ صحیح گوینده۴ است,3,1.4045839999998861,None,0,51,214.0967538750001,214.1104336669996,216.0963410000004,216.1199668750005,,,,,,,,,903066,001,2024-06-30_12h04.44.493,5-21,2024.1.4,None,2024-06-30 12h04.49.561103 +0900,
Images/Speaker1.jpg,Images/Speaker2.jpg,Images/Speaker3.jpg,Images/Speaker4.jpg,Audio/Speaker3_En/P3-15-En.wav,Speaker3,گوینده۳,,,,,,,,,0,51,51,54,,,,,,,,,,,,216.1199668750005,,,,,,,,,,,,,,,,,,,,,,,,,,,,,,,,,,,,,,,,,,,,,216.09649499999978,216.1199668750005,216.1199668750005,216.1199668750005,216.1199668750005,216.12944237533299,216.1199668750005,216.1199668750005,217.57594249999966,Incorrect! The correct answer is Speaker3. نادرست! پاسخ صحیح گوینده۳ است,2,1.4454004170002008,None,0,52,217.5799333750001,217.59273124999982,219.58740720900005,,,,,,,,,,903066,001,2024-06-30_12h04.44.493,5-21,2024.1.4,None,2024-06-30 12h04.49.561103 +0900,
Images/Speaker1.jpg,Images/Speaker2.jpg,Images/Speaker3.jpg,Images/Speaker4.jpg,Audio/Speaker2_En/P2-15-En.wav,Speaker2,گوینده۲,,,,,,,,,0,52,52,34,,,,,,,,,,,,219.6104491670003,,,,,,,,,,,,,,,,,,,,,,,,,,,,,,,,,,,,,,,,,,,,,219.587592459,219.6104491670003,219.6104491670003,219.6104491670003,219.6104491670003,219.60403233366677,219.6104491670003,219.6104491670003,221.03226362500027,Incorrect! The correct answer is Speaker2. نادرست! پاسخ صحیح گوینده۲ است,3,1.4135519579995162,None,0,53,221.03650479200041,221.04738325000017,223.04053512500013,,,,,,,,,,903066,001,2024-06-30_12h04.44.493,5-21,2024.1.4,None,2024-06-30 12h04.49.561103 +0900,
Images/Speaker1.jpg,Images/Speaker2.jpg,Images/Speaker3.jpg,Images/Speaker4.jpg,Audio/Speaker1_En/P1-11-En.wav,Speaker1,گوینده ۱,,,,,,,,,0,53,53,10,,,,,,,,,,,,223.06838512499962,,,,,,,,,,,,,,,,,,,,,,,,,,,,,,,,,,,,,,,,,,,,,223.0411127919997,223.06838512499962,223.06838512499962,223.06838512499962,223.06838512499962,223.0737186673337,223.06838512499962,223.06838512499962,224.4597969590004,Incorrect! The correct answer is Speaker1. نادرست! پاسخ صحیح گوینده ۱ است,3,1.3883473340001729,None,0,54,224.46369116700043,224.47670779199962,226.4734365000004,,,,,,,,,,903066,001,2024-06-30_12h04.44.493,5-21,2024.1.4,None,2024-06-30 12h04.49.561103 +0900,
Images/Speaker1.jpg,Images/Speaker2.jpg,Images/Speaker3.jpg,Images/Speaker4.jpg,Audio/Speaker4_En/P4-19-En.wav,Speaker4,گوینده۴,,,,,,,,,0,54,54,78,,,,,,,,,,,,226.50015766700017,,,,,,,,,,,,,,,,,,,,,,,,,,,,,,,,,,,,,,,,,,,,,226.47408320900013,226.50015766700017,226.50015766700017,226.50015766700017,226.50015766700017,226.5066013333331,226.50015766700017,226.50015766700017,227.50434220900024,Incorrect! The correct answer is Speaker4. نادرست! پاسخ صحیح گوینده۴ است,3,1.001219917000526,None,0,55,227.5081056250001,227.52139354199971,229.51338270900033,,,,,,,,,,903066,001,2024-06-30_12h04.44.493,5-21,2024.1.4,None,2024-06-30 12h04.49.561103 +0900,
Images/Speaker1.jpg,Images/Speaker2.jpg,Images/Speaker3.jpg,Images/Speaker4.jpg,Audio/Speaker1_En/P1-19-En.wav,Speaker1,گوینده ۱,,,,,,,,,0,55,55,18,,,,,,,,,,,,229.53868675000012,,,,,,,,,,,,,,,,,,,,,,,,,,,,,,,,,,,,,,,,,,,,,229.51407604199994,229.53868675000012,229.53868675000012,229.53868675000012,229.53868675000012,229.54652437533383,229.53868675000012,229.53868675000012,230.7272805419998,Incorrect! The correct answer is Speaker1. نادرست! پاسخ صحیح گوینده ۱ است,3,1.1867350000002261,None,0,56,230.73166033400048,230.7449167499999,232.73038199999974,232.75860320900028,,,,,,,,,903066,001,2024-06-30_12h04.44.493,5-21,2024.1.4,None,2024-06-30 12h04.49.561103 +0900,
Images/Speaker1.jpg,Images/Speaker2.jpg,Images/Speaker3.jpg,Images/Speaker4.jpg,Audio/Speaker3_En/P3-2-En.wav,Speaker3,گوینده۳,,,,,,,,,0,56,56,41,,,,,,,,,,,,232.75860320900028,,,,,,,,,,,,,,,,,,,,,,,,,,,,,,,,,,,,,,,,,,,,,232.7309534169999,232.75860320900028,232.75860320900028,232.75860320900028,232.75860320900028,232.76275841733383,232.75860320900028,232.75860320900028,233.8147665839997,Correct! صحیح است,3,1.0526216250000289,None,0,57,233.81904124999983,233.83055629200044,235.81619062499976,235.8390757090001,,,,,,,,,903066,001,2024-06-30_12h04.44.493,5-21,2024.1.4,None,2024-06-30 12h04.49.561103 +0900,
Images/Speaker1.jpg,Images/Speaker2.jpg,Images/Speaker3.jpg,Images/Speaker4.jpg,Audio/Speaker1_En/P1-20-En.wav,Speaker1,گوینده ۱,,,,,,,,,0,57,57,19,,,,,,,,,,,,235.8390757090001,,,,,,,,,,,,,,,,,,,,,,,,,,,,,,,,,,,,,,,,,,,,,235.8163993750004,235.8390757090001,235.8390757090001,235.8390757090001,235.8390757090001,235.83265800066718,235.8390757090001,235.8390757090001,237.34878300000037,Incorrect! The correct answer is Speaker1. نادرست! پاسخ صحیح گوینده ۱ است,2,1.50065558300048,None,0,58,237.35284295899964,237.36593662500036,239.34898750000048,239.37452279199988,,,,,,,,,903066,001,2024-06-30_12h04.44.493,5-21,2024.1.4,None,2024-06-30 12h04.49.561103 +0900,
Images/Speaker1.jpg,Images/Speaker2.jpg,Images/Speaker3.jpg,Images/Speaker4.jpg,Audio/Speaker1_En/P1-1-En.wav,Speaker1,گوینده ۱,,,,,,,,,0,58,58,0,,,,,,,,,,,,239.37452279199988,,,,,,,,,,,,,,,,,,,,,,,,,,,,,,,,,,,,,,,,,,,,,239.34916900000007,239.37452279199988,239.37452279199988,239.37452279199988,239.37452279199988,239.38210358333305,239.37452279199988,239.37452279199988,240.47054158399988,Incorrect! The correct answer is Speaker1. نادرست! پاسخ صحیح گوینده ۱ است,2,1.086398082999949,None,0,59,240.475538959,240.4898388749998,242.47498350000023,242.49710945900006,,,,,,,,,903066,001,2024-06-30_12h04.44.493,5-21,2024.1.4,None,2024-06-30 12h04.49.561103 +0900,
Images/Speaker1.jpg,Images/Speaker2.jpg,Images/Speaker3.jpg,Images/Speaker4.jpg,Audio/Speaker2_En/P2-19-En.wav,Speaker2,گوینده۲,,,,,,,,,0,59,59,38,,,,,,,,,,,,242.49710945900006,,,,,,,,,,,,,,,,,,,,,,,,,,,,,,,,,,,,,,,,,,,,,242.47514641700036,242.49710945900006,242.49710945900006,242.49710945900006,242.49710945900006,242.49144495866702,242.49710945900006,242.49710945900006,243.56530462499995,Incorrect! The correct answer is Speaker2. نادرست! پاسخ صحیح گوینده۲ است,3,1.0591030839996165,None,0,60,243.56909508399985,243.57935708399964,245.56485245899967,245.59066941699984,,,,,,,,,903066,001,2024-06-30_12h04.44.493,5-21,2024.1.4,None,2024-06-30 12h04.49.561103 +0900,
Images/Speaker1.jpg,Images/Speaker2.jpg,Images/Speaker3.jpg,Images/Speaker4.jpg,Audio/Speaker1_En/P1-12-En.wav,Speaker1,گوینده ۱,,,,,,,,,0,60,60,11,,,,,,,,,,,,245.59066941699984,,,,,,,,,,,,,,,,,,,,,,,,,,,,,,,,,,,,,,,,,,,,,245.5654292500003,245.59066941699984,245.59066941699984,245.59066941699984,245.59066941699984,245.59718187533377,245.59066941699984,245.59066941699984,246.64440908400047,Incorrect! The correct answer is Speaker1. نادرست! پاسخ صحیح گوینده ۱ است,3,1.0505534580006497,None,0,61,246.64825083400046,246.66201233399988,248.65017400000033,,,,,,,,,,903066,001,2024-06-30_12h04.44.493,5-21,2024.1.4,None,2024-06-30 12h04.49.561103 +0900,
Images/Speaker1.jpg,Images/Speaker2.jpg,Images/Speaker3.jpg,Images/Speaker4.jpg,Audio/Speaker1_En/P1-7-En.wav,Speaker1,گوینده ۱,,,,,,,,,0,61,61,6,,,,,,,,,,,,248.67315270899962,,,,,,,,,,,,,,,,,,,,,,,,,,,,,,,,,,,,,,,,,,,,,248.65033220900023,248.67315270899962,248.67315270899962,248.67315270899962,248.67315270899962,248.66680316666705,248.67315270899962,248.67315270899962,249.65931029199965,Incorrect! The correct answer is Speaker1. نادرست! پاسخ صحیح گوینده ۱ است,3,0.9845679999998538,None,0,62,249.6631816250001,249.67581450000034,251.6729162089996,,,,,,,,,,903066,001,2024-06-30_12h04.44.493,5-21,2024.1.4,None,2024-06-30 12h04.49.561103 +0900,
Images/Speaker1.jpg,Images/Speaker2.jpg,Images/Speaker3.jpg,Images/Speaker4.jpg,Audio/Speaker3_En/P3-20-En.wav,Speaker3,گوینده۳,,,,,,,,,0,62,62,59,,,,,,,,,,,,251.69486874999984,,,,,,,,,,,,,,,,,,,,,,,,,,,,,,,,,,,,,,,,,,,,,251.67308258400044,251.69486874999984,251.69486874999984,251.69486874999984,251.69486874999984,251.6895540006665,251.69486874999984,251.69486874999984,252.91791512500004,Incorrect! The correct answer is Speaker3. نادرست! پاسخ صحیح گوینده۳ است,2,1.219850999999835,None,0,63,252.92226429200036,252.93531637500018,254.92071545900035,254.94528016700042,,,,,,,,,903066,001,2024-06-30_12h04.44.493,5-21,2024.1.4,None,2024-06-30 12h04.49.561103 +0900,
Images/Speaker1.jpg,Images/Speaker2.jpg,Images/Speaker3.jpg,Images/Speaker4.jpg,Audio/Speaker3_En/P3-13-En.wav,Speaker3,گوینده۳,,,,,,,,,0,63,63,52,,,,,,,,,,,,254.94528016700042,,,,,,,,,,,,,,,,,,,,,,,,,,,,,,,,,,,,,,,,,,,,,254.9209063340004,254.94528016700042,254.94528016700042,254.94528016700042,254.94528016700042,254.9537768333335,254.94528016700042,254.94528016700042,256.1608693340004,Incorrect! The correct answer is Speaker3. نادرست! پاسخ صحیح گوینده۳ است,2,1.2137202919993797,None,0,64,256.1651756250003,256.17823512500036,258.1653108339997,,,,,,,,,,903066,001,2024-06-30_12h04.44.493,5-21,2024.1.4,None,2024-06-30 12h04.49.561103 +0900,
Images/Speaker1.jpg,Images/Speaker2.jpg,Images/Speaker3.jpg,Images/Speaker4.jpg,Audio/Speaker1_En/P1-3-En.wav,Speaker1,گوینده ۱,,,,,,,,,0,64,64,2,,,,,,,,,,,,258.19321924999986,,,,,,,,,,,,,,,,,,,,,,,,,,,,,,,,,,,,,,,,,,,,,258.1659754170005,258.19321924999986,258.19321924999986,258.19321924999986,258.19321924999986,258.19848750033316,258.19321924999986,258.19321924999986,259.2878312089997,Incorrect! The correct answer is Speaker1. نادرست! پاسخ صحیح گوینده ۱ است,2,1.0864408749994254,None,0,65,259.2919887090002,259.30502233399966,261.2910624169999,261.3159384999999,,,,,,,,,903066,001,2024-06-30_12h04.44.493,5-21,2024.1.4,None,2024-06-30 12h04.49.561103 +0900,
Images/Speaker1.jpg,Images/Speaker2.jpg,Images/Speaker3.jpg,Images/Speaker4.jpg,Audio/Speaker1_En/P1-13-En.wav,Speaker1,گوینده ۱,,,,,,,,,0,65,65,12,,,,,,,,,,,,261.3159384999999,,,,,,,,,,,,,,,,,,,,,,,,,,,,,,,,,,,,,,,,,,,,,261.2919887090002,261.3159384999999,261.3159384999999,261.3159384999999,261.3159384999999,261.3233251673332,261.3159384999999,261.3159384999999,262.33709462499974,Incorrect! The correct answer is Speaker1. نادرست! پاسخ صحیح گوینده ۱ است,2,1.0155129160002616,None,0,66,262.34101908400044,262.35449583399986,264.34139645899995,,,,,,,,,,903066,001,2024-06-30_12h04.44.493,5-21,2024.1.4,None,2024-06-30 12h04.49.561103 +0900,
Images/Speaker1.jpg,Images/Speaker2.jpg,Images/Speaker3.jpg,Images/Speaker4.jpg,Audio/Speaker1_En/P1-9-En.wav,Speaker1,گوینده ۱,,,,,,,,,0,66,66,8,,,,,,,,,,,,264.3677014169998,,,,,,,,,,,,,,,,,,,,,,,,,,,,,,,,,,,,,,,,,,,,,264.3419488339996,264.3677014169998,264.3677014169998,264.3677014169998,264.3677014169998,264.3745883333336,264.3677014169998,264.3677014169998,265.27011462500013,Incorrect! The correct answer is Speaker1. نادرست! پاسخ صحیح گوینده ۱ است,2,0.8990032910005539,None,0,67,265.2738551250004,265.2865069170002,267.27410616700035,267.2969953749998,,,,,,,,,903066,001,2024-06-30_12h04.44.493,5-21,2024.1.4,None,2024-06-30 12h04.49.561103 +0900,
Images/Speaker1.jpg,Images/Speaker2.jpg,Images/Speaker3.jpg,Images/Speaker4.jpg,Audio/Speaker3_En/P3-18-En.wav,Speaker3,گوینده۳,,,,,,,,,0,67,67,57,,,,,,,,,,,,267.2969953749998,,,,,,,,,,,,,,,,,,,,,,,,,,,,,,,,,,,,,,,,,,,,,267.27428624999993,267.2969953749998,267.2969953749998,267.2969953749998,267.2969953749998,267.2904129166666,267.2969953749998,267.2969953749998,268.3803347089997,Incorrect! The correct answer is Speaker3. نادرست! پاسخ صحیح گوینده۳ است,2,1.0703268330007631,None,0,68,268.38451579200046,268.3952129999998,270.3876730840002,,,,,,,,,,903066,001,2024-06-30_12h04.44.493,5-21,2024.1.4,None,2024-06-30 12h04.49.561103 +0900,
Images/Speaker1.jpg,Images/Speaker2.jpg,Images/Speaker3.jpg,Images/Speaker4.jpg,Audio/Speaker3_En/P3-3-En.wav,Speaker3,گوینده۳,,,,,,,,,0,68,68,42,,,,,,,,,,,,270.41154129200004,,,,,,,,,,,,,,,,,,,,,,,,,,,,,,,,,,,,,,,,,,,,,270.3878396250002,270.41154129200004,270.41154129200004,270.41154129200004,270.41154129200004,270.420971375333,270.41154129200004,270.41154129200004,271.4793890000001,Incorrect! The correct answer is Speaker3. نادرست! پاسخ صحیح گوینده۳ است,2,1.0607617919995391,None,0,69,271.4833049589997,271.49412770900017,273.4774233340004,273.5015365420004,,,,,,,,,903066,001,2024-06-30_12h04.44.493,5-21,2024.1.4,None,2024-06-30 12h04.49.561103 +0900,
Images/Speaker1.jpg,Images/Speaker2.jpg,Images/Speaker3.jpg,Images/Speaker4.jpg,Audio/Speaker3_En/P3-11-En.wav,Speaker3,گوینده۳,,,,,,,,,0,69,69,50,,,,,,,,,,,,273.5015365420004,,,,,,,,,,,,,,,,,,,,,,,,,,,,,,,,,,,,,,,,,,,,,273.47757550000006,273.5015365420004,273.5015365420004,273.5015365420004,273.5015365420004,273.5104837503336,273.5015365420004,273.5015365420004,274.503565,Incorrect! The correct answer is Speaker3. نادرست! پاسخ صحیح گوینده۳ است,2,0.9975515830001314,None,0,70,274.50735941699986,274.5196496669996,276.50774354199984,276.53123841700017,,,,,,,,,903066,001,2024-06-30_12h04.44.493,5-21,2024.1.4,None,2024-06-30 12h04.49.561103 +0900,
Images/Speaker1.jpg,Images/Speaker2.jpg,Images/Speaker3.jpg,Images/Speaker4.jpg,Audio/Speaker1_En/P1-17-En.wav,Speaker1,گوینده ۱,,,,,,,,,0,70,70,16,,,,,,,,,,,,276.53123841700017,,,,,,,,,,,,,,,,,,,,,,,,,,,,,,,,,,,,,,,,,,,,,276.5086650000003,276.53123841700017,276.53123841700017,276.53123841700017,276.53123841700017,276.5401367503332,276.53123841700017,276.53123841700017,277.4949188339997,Incorrect! The correct answer is Speaker1. نادرست! پاسخ صحیح گوینده ۱ است,2,0.9531791250001334,None,0,71,277.4989098750002,277.5101009170003,279.5043567499997,,,,,,,,,,903066,001,2024-06-30_12h04.44.493,5-21,2024.1.4,None,2024-06-30 12h04.49.561103 +0900,
Images/Speaker1.jpg,Images/Speaker2.jpg,Images/Speaker3.jpg,Images/Speaker4.jpg,Audio/Speaker1_En/P1-4-En.wav,Speaker1,گوینده ۱,,,,,,,,,0,71,71,13,,,,,,,,,,,,279.5278688750004,,,,,,,,,,,,,,,,,,,,,,,,,,,,,,,,,,,,,,,,,,,,,279.5049172500003,279.5278688750004,279.5278688750004,279.5278688750004,279.5278688750004,279.5375413333336,279.5278688750004,279.5278688750004,280.8794315840005,Incorrect! The correct answer is Speaker1. نادرست! پاسخ صحیح گوینده ۱ است,2,1.3414521249997051,None,0,72,280.88366070899974,280.8968587090003,282.89001041699976,,,,,,,,,,903066,001,2024-06-30_12h04.44.493,5-21,2024.1.4,None,2024-06-30 12h04.49.561103 +0900,
Images/Speaker1.jpg,Images/Speaker2.jpg,Images/Speaker3.jpg,Images/Speaker4.jpg,Audio/Speaker2_En/P2-17-En.wav,Speaker2,گوینده۲,,,,,,,,,0,72,72,36,,,,,,,,,,,,282.9125365,,,,,,,,,,,,,,,,,,,,,,,,,,,,,,,,,,,,,,,,,,,,,282.8901692500003,282.9125365,282.9125365,282.9125365,282.9125365,282.90663525066634,282.9125365,282.9125365,283.99614787500013,Incorrect! The correct answer is Speaker2. نادرست! پاسخ صحیح گوینده۲ است,3,1.0800992919994314,None,0,73,284.0002193749997,284.0134191670004,286.0004092500003,,,,,,,,,,903066,001,2024-06-30_12h04.44.493,5-21,2024.1.4,None,2024-06-30 12h04.49.561103 +0900,
Images/Speaker1.jpg,Images/Speaker2.jpg,Images/Speaker3.jpg,Images/Speaker4.jpg,Audio/Speaker2_En/P2-5-En.wav,Speaker2,گوینده۲,,,,,,,,,0,73,73,24,,,,,,,,,,,,286.0239243340002,,,,,,,,,,,,,,,,,,,,,,,,,,,,,,,,,,,,,,,,,,,,,286.0005760419999,286.0239243340002,286.0239243340002,286.0239243340002,286.0239243340002,286.03370025033337,286.0239243340002,286.0239243340002,287.0635808750003,Incorrect! The correct answer is Speaker2. نادرست! پاسخ صحیح گوینده۲ است,3,1.0296173329998055,None,0,74,287.06744795899976,287.0801776670005,289.0699502919997,,,,,,,,,,903066,001,2024-06-30_12h04.44.493,5-21,2024.1.4,None,2024-06-30 12h04.49.561103 +0900,
Images/Speaker1.jpg,Images/Speaker2.jpg,Images/Speaker3.jpg,Images/Speaker4.jpg,Audio/Speaker4_En/P4-12-En.wav,Speaker4,گوینده۴,,,,,,,,,0,74,74,71,,,,,,,,,,,,289.09315133400014,,,,,,,,,,,,,,,,,,,,,,,,,,,,,,,,,,,,,,,,,,,,,289.07011579200025,289.09315133400014,289.09315133400014,289.09315133400014,289.09315133400014,289.10324991733296,289.09315133400014,289.09315133400014,290.22608904200024,Incorrect! The correct answer is Speaker4. نادرست! پاسخ صحیح گوینده۴ است,3,1.1305592090002392,None,0,75,290.230229625,290.2430085420001,292.22683758400035,292.2491812090002,,,,,,,,,903066,001,2024-06-30_12h04.44.493,5-21,2024.1.4,None,2024-06-30 12h04.49.561103 +0900,
Images/Speaker1.jpg,Images/Speaker2.jpg,Images/Speaker3.jpg,Images/Speaker4.jpg,Audio/Speaker4_En/P4-13-En.wav,Speaker4,گوینده۴,,,,,,,,,0,75,75,72,,,,,,,,,,,,292.2491812090002,,,,,,,,,,,,,,,,,,,,,,,,,,,,,,,,,,,,,,,,,,,,,292.22699612500037,292.2491812090002,292.2491812090002,292.2491812090002,292.2491812090002,292.24326679166666,292.2491812090002,292.2491812090002,293.5068679169999,Incorrect! The correct answer is Speaker4. نادرست! پاسخ صحیح گوینده۴ است,3,1.249092582999765,None,0,76,293.51120695900045,293.5223341669998,295.5136049590001,,,,,,,,,,903066,001,2024-06-30_12h04.44.493,5-21,2024.1.4,None,2024-06-30 12h04.49.561103 +0900,
Images/Speaker1.jpg,Images/Speaker2.jpg,Images/Speaker3.jpg,Images/Speaker4.jpg,Audio/Speaker1_En/P1-8-En.wav,Speaker1,گوینده ۱,,,,,,,,,0,76,76,7,,,,,,,,,,,,295.53641979199983,,,,,,,,,,,,,,,,,,,,,,,,,,,,,,,,,,,,,,,,,,,,,295.51378300000033,295.53641979199983,295.53641979199983,295.53641979199983,295.53641979199983,295.53024062566715,295.53641979199983,295.53641979199983,296.70508187500036,Incorrect! The correct answer is Speaker1. نادرست! پاسخ صحیح گوینده ۱ است,3,1.1588327919998846,None,0,77,296.70903145900047,296.7222092920001,298.7120503340002,,,,,,,,,,903066,001,2024-06-30_12h04.44.493,5-21,2024.1.4,None,2024-06-30 12h04.49.561103 +0900,
Images/Speaker1.jpg,Images/Speaker2.jpg,Images/Speaker3.jpg,Images/Speaker4.jpg,Audio/Speaker4_En/P4-14-En.wav,Speaker4,گوینده۴,,,,,,,,,0,77,77,73,,,,,,,,,,,,298.7406469999996,,,,,,,,,,,,,,,,,,,,,,,,,,,,,,,,,,,,,,,,,,,,,298.7126781670004,298.7406469999996,298.7406469999996,298.7406469999996,298.7406469999996,298.7452320833331,298.7406469999996,298.7406469999996,299.9508232500002,Incorrect! The correct answer is Speaker4. نادرست! پاسخ صحیح گوینده۴ است,3,1.196624874999543,None,0,78,299.9560211670005,299.97109841699967,301.9564451670003,301.9837379589999,,,,,,,,,903066,001,2024-06-30_12h04.44.493,5-21,2024.1.4,None,2024-06-30 12h04.49.561103 +0900,
Images/Speaker1.jpg,Images/Speaker2.jpg,Images/Speaker3.jpg,Images/Speaker4.jpg,Audio/Speaker3_En/P3-4-En.wav,Speaker3,گوینده۳,,,,,,,,,0,78,78,43,,,,,,,,,,,,301.9837379589999,,,,,,,,,,,,,,,,,,,,,,,,,,,,,,,,,,,,,,,,,,,,,301.95695779200014,301.9837379589999,301.9837379589999,301.9837379589999,301.9837379589999,301.9889042923337,301.9837379589999,301.9837379589999,303.2701426249996,Incorrect! The correct answer is Speaker3. نادرست! پاسخ صحیح گوینده۳ است,2,1.2853866249997736,None,0,79,303.2739527499998,303.2862231250001,305.2713439999998,305.2935323339998,,,,,,,,,903066,001,2024-06-30_12h04.44.493,5-21,2024.1.4,None,2024-06-30 12h04.49.561103 +0900,
Images/Speaker1.jpg,Images/Speaker2.jpg,Images/Speaker3.jpg,Images/Speaker4.jpg,Audio/Speaker3_En/P3-12-En.wav,Speaker3,گوینده۳,,,,,,,,,0,79,79,51,,,,,,,,,,,,305.2935323339998,,,,,,,,,,,,,,,,,,,,,,,,,,,,,,,,,,,,,,,,,,,,,305.2714919170003,305.2935323339998,305.2935323339998,305.2935323339998,305.2935323339998,305.2877670006667,305.2935323339998,305.2935323339998,306.2589427089997,Incorrect! The correct answer is Speaker3. نادرست! پاسخ صحیح گوینده۳ است,2,0.9628904170003807,None,0,80,306.2628533750003,306.27590150000015,308.2625698339998,308.2663346669997,,,,,,,,,903066,001,2024-06-30_12h04.44.493,5-21,2024.1.4,None,2024-06-30 12h04.49.561103 +0900,
,,,,,,,,,,,,,,,,,,,,,,,,,,,,,,,,,,,,,,,,,,,,,,,,,,,,,,,,,,,,,,,,,,,,,,,,,,,,,,,,,,,,,,,,,,,,,,308.26261770899964,308.2627783750004,TrainingGroup1,,,,,,903066,001,2024-06-30_12h04.44.493,5-21,2024.1.4,None,2024-06-30 12h04.49.561103 +0900,
,,,,,,,,,,,,,,,,,,,,,,,,,,,,,,,,,,,,,,,,,,,,,,,,,,,,,,,,,,,,,,,,,,,,,,,,,,,,,,,,,,,,,,,,,,,,,,,,,308.2627916669999,308.2663346669997,,313.2559555839998,,903066,001,2024-06-30_12h04.44.493,5-21,2024.1.4,None,2024-06-30 12h04.49.561103 +0900,
,,,,,,,,,,,,,,,,,,,,,,,,,,,,,,,,,,,,,,,,,,,,,,,,,,,,,,,,,,,,,,,,,,,,,,,,,,,,,,,,,,,,,,,,,,,,,,,,,,,,,313.2762741249999,,,,,,,,
