SpeakerImage1,SpeakerImage2,SpeakerImage3,SpeakerImage4,TrainingSound,EnglishCorrectAnswer,PersianCorrectAnswer,TrainingLoopGroup1.thisRepN,TrainingLoopGroup1.thisTrialN,TrainingLoopGroup1.thisN,TrainingLoopGroup1.thisIndex,TrainingLoopGroup2.thisRepN,TrainingLoopGroup2.thisTrialN,TrainingLoopGroup2.thisN,TrainingLoopGroup2.thisIndex,TrainingLoopGroup3.thisRepN,TrainingLoopGroup3.thisTrialN,TrainingLoopGroup3.thisN,TrainingLoopGroup3.thisIndex,thisRow.t,notes,trial.started,trial.stopped,GroupSelection.started,GroupInstructions.started,key_resp.started,GroupSelection.stopped,key_resp.keys,key_resp.rt,key_resp.duration,Introduction.started,text_2.started,image.started,sound_7.started,text_4.started,text_2.stopped,sound_8.started,image.stopped,text_4.stopped,image_7.started,sound_9.started,text_5.started,sound_10.started,image_7.stopped,text_5.stopped,image_8.started,sound_11.started,text_6.started,sound_12.started,image_8.stopped,text_6.stopped,image_9.started,sound_13.started,text_7.started,sound_14.started,image_9.stopped,text_7.stopped,Introduction.stopped,Instructions.started,InstructionText.started,InstructionText.stopped,Instructions.stopped,InitializeExperiment.started,InitializeExperiment.stopped,TrainingGroup3.started,SpeakerPicture3.started,image_15.started,image_16.started,image_17.started,Sound3.started,Instruction3.started,Response3.started,TrainingGroup3.stopped,feedbackText,Response3.keys,Response3.rt,Response3.duration,correct_responses_group3,total_trials_group3,FeedbackRoutine3.started,FeedbackText3.started,FeedbackText3.stopped,FeedbackRoutine3.stopped,CheckAccuracy3.started,CheckAccuracy3.stopped,participant,session,date,expName,psychopyVersion,frameRate,expStart,
,,,,,,,,,,,,,,,,,,,,,0.00926691699987714,0.009571624999807682,,,,,,,,,,,,,,,,,,,,,,,,,,,,,,,,,,,,,,,,,,,,,,,,,,,,,,,,,,,,,,,910523,001,2024-07-01_17h05.52.248,5-26,2024.1.4,None,2024-07-01 17h05.58.806157 +0900,
,,,,,,,,,,,,,,,,,,,,,,,0.009585957999661332,0.014296416999968642,0.014296416999968642,2.0844432079998114,3,2.035547291999592,None,,,,,,,,,,,,,,,,,,,,,,,,,,,,,,,,,,,,,,,,,,,,,,,,,,,,,,,,910523,001,2024-07-01_17h05.52.248,5-26,2024.1.4,None,2024-07-01 17h05.58.806157 +0900,
,,,,,,,,,,,,,,,,,,,,,,,,,,,,,,2.0844753749997835,2.1361358330000257,7.081571291999808,7.088275333666631,7.081571291999808,7.125751874999878,12.098348124666488,17.08168762499963,17.08168762499963,17.08168762499963,17.091127666666367,17.08168762499963,22.089393708666435,27.078627999999753,27.078627999999753,27.078627999999753,27.088558833666653,27.078627999999753,32.08395879166643,37.06646574999968,37.06646574999968,37.085434082999654,37.097318833666364,37.085434082999654,42.087239291666506,47.07500191700001,47.07500191700001,47.07198320799989,,,,,,,,,,,,,,,,,,,,,,,,,,,,910523,001,2024-07-01_17h05.52.248,5-26,2024.1.4,None,2024-07-01 17h05.58.806157 +0900,
,,,,,,,,,,,,,,,,,,,,,,,,,,,,,,,,,,,,,,,,,,,,,,,,,,,,,,,,,,47.07199720799963,47.07500191700001,48.12741204199983,48.05866408299971,,,,,,,,,,,,,,,,,,,,,,,,910523,001,2024-07-01_17h05.52.248,5-26,2024.1.4,None,2024-07-01 17h05.58.806157 +0900,
,,,,,,,,,,,,,,,,,,,,,,,,,,,,,,,,,,,,,,,,,,,,,,,,,,,,,,,,,,,,,,48.05868283299969,48.05883233299983,,,,,,,,,,,,,,,,,,,,,,910523,001,2024-07-01_17h05.52.248,5-26,2024.1.4,None,2024-07-01 17h05.58.806157 +0900,
Images/Speaker1.jpg,Images/Speaker2.jpg,Images/Speaker3.jpg,Images/Speaker4.jpg,Audio/Speaker3_En/P3-12-En.wav,Speaker3,گوینده۳,,,,,,,,,0,0,0,51,48.12741204199983,,,,,,,,,,,,,,,,,,,,,,,,,,,,,,,,,,,,,,,,,,,,,48.106427833,48.12741204199983,48.12741204199983,48.12741204199983,48.12741204199983,48.125046041666394,48.12741204199983,48.12741204199983,54.06709262499999,Incorrect! The correct answer is Speaker3. نادرست! پاسخ صحیح گوینده۳ است,1,5.934791334000238,None,68,81,54.07214166699987,54.08561374999999,56.09555533299999,56.06989733299997,56.06992091699976,56.07016537499976,910523,001,2024-07-01_17h05.52.248,5-26,2024.1.4,None,2024-07-01 17h05.58.806157 +0900,
Images/Speaker1.jpg,Images/Speaker2.jpg,Images/Speaker3.jpg,Images/Speaker4.jpg,Audio/Speaker1_En/P1-12-En.wav,Speaker1,گوینده ۱,,,,,,,,,0,1,1,11,56.09555533299999,,,,,,,,,,,,,,,,,,,,,,,,,,,,,,,,,,,,,,,,,,,,,56.07163929199987,56.09555533299999,56.09555533299999,56.09555533299999,56.09555533299999,56.10248750033318,56.09555533299999,56.09555533299999,61.38848504199996,Correct! صحیح است,1,5.283196959000179,None,68,82,61.38960745799977,61.40704258300002,,63.39427099999966,63.394302332999814,63.395031666999785,910523,001,2024-07-01_17h05.52.248,5-26,2024.1.4,None,2024-07-01 17h05.58.806157 +0900,
Images/Speaker1.jpg,Images/Speaker2.jpg,Images/Speaker3.jpg,Images/Speaker4.jpg,Audio/Speaker4_En/P4-5-En.wav,Speaker4,گوینده۴,,,,,,,,,0,2,2,64,63.42254637499991,,,,,,,,,,,,,,,,,,,,,,,,,,,,,,,,,,,,,,,,,,,,,63.39638658299964,63.42254637499991,63.42254637499991,63.42254637499991,63.42254637499991,63.42741329133335,63.42254637499991,63.42254637499991,65.3619417079999,Incorrect! The correct answer is Speaker4. نادرست! پاسخ صحیح گوینده۴ است,1,1.928722000000107,None,68,83,65.36625641699993,65.37956495799972,67.39067537499977,67.36613133299988,67.3661415419997,67.36629862499967,910523,001,2024-07-01_17h05.52.248,5-26,2024.1.4,None,2024-07-01 17h05.58.806157 +0900,
Images/Speaker1.jpg,Images/Speaker2.jpg,Images/Speaker3.jpg,Images/Speaker4.jpg,Audio/Speaker3_En/P3-5-En.wav,Speaker3,گوینده۳,,,,,,,,,0,3,3,44,67.39067537499977,,,,,,,,,,,,,,,,,,,,,,,,,,,,,,,,,,,,,,,,,,,,,67.36677245800001,67.39067537499977,67.39067537499977,67.39067537499977,67.39067537499977,67.39920391633316,67.39067537499977,67.39067537499977,398.92781966699977,Incorrect! The correct answer is Speaker3. نادرست! پاسخ صحیح گوینده۳ است,1,331.52822508400004,None,68,84,398.92841391699994,398.9416374999996,,400.928810292,400.92883462500004,400.9294186249999,910523,001,2024-07-01_17h05.52.248,5-26,2024.1.4,None,2024-07-01 17h05.58.806157 +0900,
Images/Speaker1.jpg,Images/Speaker2.jpg,Images/Speaker3.jpg,Images/Speaker4.jpg,Audio/Speaker2_En/P2-11-En.wav,Speaker2,گوینده۲,,,,,,,,,0,4,4,30,400.95525829200005,,,,,,,,,,,,,,,,,,,,,,,,,,,,,,,,,,,,,,,,,,,,,400.93083258299976,400.95525829200005,400.95525829200005,400.95525829200005,400.95525829200005,400.9619704583333,400.95525829200005,400.95525829200005,404.60171383299985,Incorrect! The correct answer is Speaker2. نادرست! پاسخ صحیح گوینده۲ است,1,3.644569290999698,None,68,85,404.60228904199994,404.6151414169999,,406.6039915829997,406.60402933299974,406.6046877079998,910523,001,2024-07-01_17h05.52.248,5-26,2024.1.4,None,2024-07-01 17h05.58.806157 +0900,
Images/Speaker1.jpg,Images/Speaker2.jpg,Images/Speaker3.jpg,Images/Speaker4.jpg,Audio/Speaker2_En/P2-19-En.wav,Speaker2,گوینده۲,,,,,,,,,0,5,5,38,406.6289225829996,,,,,,,,,,,,,,,,,,,,,,,,,,,,,,,,,,,,,,,,,,,,,406.60619170799964,406.6289225829996,406.6289225829996,406.6289225829996,406.6289225829996,406.6371737913332,406.6289225829996,406.6289225829996,406.8128459579998,Incorrect! The correct answer is Speaker2. نادرست! پاسخ صحیح گوینده۲ است,1,0.18026758299993162,None,68,86,406.8172621249996,406.83009083299976,408.8389270829998,408.8147009999998,408.81470899999977,408.8148558329999,910523,001,2024-07-01_17h05.52.248,5-26,2024.1.4,None,2024-07-01 17h05.58.806157 +0900,
Images/Speaker1.jpg,Images/Speaker2.jpg,Images/Speaker3.jpg,Images/Speaker4.jpg,Audio/Speaker3_En/P3-4-En.wav,Speaker3,گوینده۳,,,,,,,,,0,6,6,43,408.8389270829998,,,,,,,,,,,,,,,,,,,,,,,,,,,,,,,,,,,,,,,,,,,,,408.81528208300006,408.8389270829998,408.8389270829998,408.8389270829998,408.8389270829998,408.847789583333,408.8389270829998,408.8389270829998,409.06797549999965,Incorrect! The correct answer is Speaker3. نادرست! پاسخ صحیح گوینده۳ است,1,0.2272258339999098,None,68,87,409.0725723329997,409.0846368329999,,411.07670541699963,411.0767139579998,411.0768848749999,910523,001,2024-07-01_17h05.52.248,5-26,2024.1.4,None,2024-07-01 17h05.58.806157 +0900,
Images/Speaker1.jpg,Images/Speaker2.jpg,Images/Speaker3.jpg,Images/Speaker4.jpg,Audio/Speaker1_En/P1-19-En.wav,Speaker1,گوینده ۱,,,,,,,,,0,7,7,18,411.100354833,,,,,,,,,,,,,,,,,,,,,,,,,,,,,,,,,,,,,,,,,,,,,411.07736129199975,411.100354833,411.100354833,411.100354833,411.100354833,411.10999691633333,411.100354833,411.100354833,411.10093941700006,Correct! صحیح است,1,2.1432164169996213,None,68,88,411.101617583,411.10943874999975,,413.1029283749999,413.1029521669998,413.1037457079997,910523,001,2024-07-01_17h05.52.248,5-26,2024.1.4,None,2024-07-01 17h05.58.806157 +0900,
Images/Speaker1.jpg,Images/Speaker2.jpg,Images/Speaker3.jpg,Images/Speaker4.jpg,Audio/Speaker4_En/P4-14-En.wav,Speaker4,گوینده۴,,,,,,,,,0,8,8,73,413.1310828749997,,,,,,,,,,,,,,,,,,,,,,,,,,,,,,,,,,,,,,,,,,,,,413.10498095799994,413.1310828749997,413.1310828749997,413.1310828749997,413.1310828749997,413.13609283333335,413.1310828749997,413.1310828749997,413.4062278329998,Incorrect! The correct answer is Speaker4. نادرست! پاسخ صحیح گوینده۴ است,1,0.27227095799980816,None,68,89,413.4107103749998,413.42345479200003,,415.41727304200003,415.417281042,415.41745708300004,910523,001,2024-07-01_17h05.52.248,5-26,2024.1.4,None,2024-07-01 17h05.58.806157 +0900,
Images/Speaker1.jpg,Images/Speaker2.jpg,Images/Speaker3.jpg,Images/Speaker4.jpg,Audio/Speaker4_En/P4-15-En.wav,Speaker4,گوینده۴,,,,,,,,,0,9,9,74,415.4414623329999,,,,,,,,,,,,,,,,,,,,,,,,,,,,,,,,,,,,,,,,,,,,,415.4178489579999,415.4414623329999,415.4414623329999,415.4414623329999,415.4414623329999,415.45056816633314,415.4414623329999,415.4414623329999,415.485082833,Incorrect! The correct answer is Speaker4. نادرست! پاسخ صحیح گوینده۴ است,1,0.032569708000210085,None,68,90,415.48918516699996,415.50158437499977,,417.4957452079998,417.495770083,417.49640224999985,910523,001,2024-07-01_17h05.52.248,5-26,2024.1.4,None,2024-07-01 17h05.58.806157 +0900,
Images/Speaker1.jpg,Images/Speaker2.jpg,Images/Speaker3.jpg,Images/Speaker4.jpg,Audio/Speaker3_En/P3-3-En.wav,Speaker3,گوینده۳,,,,,,,,,0,10,10,42,417.52473204199987,,,,,,,,,,,,,,,,,,,,,,,,,,,,,,,,,,,,,,,,,,,,,417.49781433299995,417.52473204199987,417.52473204199987,417.52473204199987,417.52473204199987,417.5288920833332,417.52473204199987,417.52473204199987,417.52539254199974,Incorrect! The correct answer is Speaker3. نادرست! پاسخ صحیح گوینده۳ است,1,2.0593589999998585,None,68,91,417.5260169999997,417.5373319999999,419.54721387499967,419.52248529200006,419.52251049999995,419.5228541669999,910523,001,2024-07-01_17h05.52.248,5-26,2024.1.4,None,2024-07-01 17h05.58.806157 +0900,
Images/Speaker1.jpg,Images/Speaker2.jpg,Images/Speaker3.jpg,Images/Speaker4.jpg,Audio/Speaker4_En/P4-7-En.wav,Speaker4,گوینده۴,,,,,,,,,0,11,11,66,419.54721387499967,,,,,,,,,,,,,,,,,,,,,,,,,,,,,,,,,,,,,,,,,,,,,419.52382012499993,419.54721387499967,419.54721387499967,419.54721387499967,419.54721387499967,419.5550588333331,419.54721387499967,419.54721387499967,419.71509424999977,Incorrect! The correct answer is Speaker4. نادرست! پاسخ صحیح گوینده۴ است,1,0.16268004199991992,None,68,92,419.7191803329997,419.7318713749996,,421.72354712499964,421.72358212499967,421.7242235829999,910523,001,2024-07-01_17h05.52.248,5-26,2024.1.4,None,2024-07-01 17h05.58.806157 +0900,
Images/Speaker1.jpg,Images/Speaker2.jpg,Images/Speaker3.jpg,Images/Speaker4.jpg,Audio/Speaker4_En/P4-17-En.wav,Speaker4,گوینده۴,,,,,,,,,0,12,12,76,421.74814287499976,,,,,,,,,,,,,,,,,,,,,,,,,,,,,,,,,,,,,,,,,,,,,421.72545887499973,421.74814287499976,421.74814287499976,421.74814287499976,421.74814287499976,421.75666291633297,421.74814287499976,421.74814287499976,421.95919749999985,Incorrect! The correct answer is Speaker4. نادرست! پاسخ صحیح گوینده۴ است,1,0.20758183299994926,None,68,93,421.963536708,421.9762097499997,423.98703216700005,423.96272958300005,423.96273904200007,423.9629324579996,910523,001,2024-07-01_17h05.52.248,5-26,2024.1.4,None,2024-07-01 17h05.58.806157 +0900,
Images/Speaker1.jpg,Images/Speaker2.jpg,Images/Speaker3.jpg,Images/Speaker4.jpg,Audio/Speaker1_En/P1-16-En.wav,Speaker1,گوینده ۱,,,,,,,,,0,13,13,15,423.98703216700005,,,,,,,,,,,,,,,,,,,,,,,,,,,,,,,,,,,,,,,,,,,,,423.963407833,423.98703216700005,423.98703216700005,423.98703216700005,423.98703216700005,423.9957947913331,423.98703216700005,423.98703216700005,423.98760575000006,Correct! صحیح است,1,2.103957874999651,None,68,94,423.98823408299995,423.9960961249999,,425.99130387499963,425.99133808299985,425.99202108300005,910523,001,2024-07-01_17h05.52.248,5-26,2024.1.4,None,2024-07-01 17h05.58.806157 +0900,
Images/Speaker1.jpg,Images/Speaker2.jpg,Images/Speaker3.jpg,Images/Speaker4.jpg,Audio/Speaker1_En/P1-9-En.wav,Speaker1,گوینده ۱,,,,,,,,,0,14,14,8,426.01642708300005,,,,,,,,,,,,,,,,,,,,,,,,,,,,,,,,,,,,,,,,,,,,,425.99329666699987,426.01642708300005,426.01642708300005,426.01642708300005,426.01642708300005,426.024469416333,426.01642708300005,426.01642708300005,426.01712770799986,Correct! صحیح است,1,1.9128833330000816,None,68,95,426.01798949999966,426.02589987500005,428.0419252499996,428.01715858299985,428.0171829169999,428.0176377499997,910523,001,2024-07-01_17h05.52.248,5-26,2024.1.4,None,2024-07-01 17h05.58.806157 +0900,
Images/Speaker1.jpg,Images/Speaker2.jpg,Images/Speaker3.jpg,Images/Speaker4.jpg,Audio/Speaker4_En/P4-6-En.wav,Speaker4,گوینده۴,,,,,,,,,0,15,15,65,428.0419252499996,,,,,,,,,,,,,,,,,,,,,,,,,,,,,,,,,,,,,,,,,,,,,428.0189006249998,428.0419252499996,428.0419252499996,428.0419252499996,428.0419252499996,428.049700250333,428.0419252499996,428.0419252499996,428.0530275829997,Incorrect! The correct answer is Speaker4. نادرست! پاسخ صحیح گوینده۴ است,1,0.006847959000424453,None,68,96,428.05737170799966,428.0698712919998,430.0780636669997,430.0545002499998,430.05450941699974,430.05468679199976,910523,001,2024-07-01_17h05.52.248,5-26,2024.1.4,None,2024-07-01 17h05.58.806157 +0900,
Images/Speaker1.jpg,Images/Speaker2.jpg,Images/Speaker3.jpg,Images/Speaker4.jpg,Audio/Speaker2_En/P2-13-En.wav,Speaker2,گوینده۲,,,,,,,,,0,16,16,32,430.0780636669997,,,,,,,,,,,,,,,,,,,,,,,,,,,,,,,,,,,,,,,,,,,,,430.05509679199986,430.0780636669997,430.0780636669997,430.0780636669997,430.0780636669997,430.087623625333,430.0780636669997,430.0780636669997,430.078674458,Incorrect! The correct answer is Speaker2. نادرست! پاسخ صحیح گوینده۲ است,1,1.9774560840000959,None,68,97,430.07956112500005,430.0889442919997,,432.083194542,432.083226792,432.08417366699996,910523,001,2024-07-01_17h05.52.248,5-26,2024.1.4,None,2024-07-01 17h05.58.806157 +0900,
Images/Speaker1.jpg,Images/Speaker2.jpg,Images/Speaker3.jpg,Images/Speaker4.jpg,Audio/Speaker4_En/P4-11-En.wav,Speaker4,گوینده۴,,,,,,,,,0,17,17,70,432.10816099999965,,,,,,,,,,,,,,,,,,,,,,,,,,,,,,,,,,,,,,,,,,,,,432.08462170799976,432.10816099999965,432.10816099999965,432.10816099999965,432.10816099999965,432.1162967503333,432.10816099999965,432.10816099999965,432.1141379579999,Incorrect! The correct answer is Speaker4. نادرست! پاسخ صحیح گوینده۴ است,1,0.004634707999684906,None,68,98,432.11859212499985,432.1309061249999,434.1442219999999,434.11620458299967,434.1162399169998,434.1165636249998,910523,001,2024-07-01_17h05.52.248,5-26,2024.1.4,None,2024-07-01 17h05.58.806157 +0900,
Images/Speaker1.jpg,Images/Speaker2.jpg,Images/Speaker3.jpg,Images/Speaker4.jpg,Audio/Speaker1_En/P1-17-En.wav,Speaker1,گوینده ۱,,,,,,,,,0,18,18,16,434.1442219999999,,,,,,,,,,,,,,,,,,,,,,,,,,,,,,,,,,,,,,,,,,,,,434.11811791699984,434.1442219999999,434.1442219999999,434.1442219999999,434.1442219999999,434.1486759583331,434.1442219999999,434.1442219999999,434.32188266699995,Correct! صحیح است,1,0.16891691699993316,None,68,99,434.3275001669999,434.33923829199966,436.34718733299997,436.32297512499963,436.32298408299994,436.32313499999964,910523,001,2024-07-01_17h05.52.248,5-26,2024.1.4,None,2024-07-01 17h05.58.806157 +0900,
Images/Speaker1.jpg,Images/Speaker2.jpg,Images/Speaker3.jpg,Images/Speaker4.jpg,Audio/Speaker1_En/P1-6-En.wav,Speaker1,گوینده ۱,,,,,,,,,0,19,19,5,436.34718733299997,,,,,,,,,,,,,,,,,,,,,,,,,,,,,,,,,,,,,,,,,,,,,436.32357962499964,436.34718733299997,436.34718733299997,436.34718733299997,436.34718733299997,436.35578687533325,436.34718733299997,436.34718733299997,436.68757454199977,Correct! صحیح است,1,0.3360892089999652,None,68,100,436.69178887499993,436.7026300829998,,438.6971430829999,438.6971510829999,438.69735033300003,910523,001,2024-07-01_17h05.52.248,5-26,2024.1.4,None,2024-07-01 17h05.58.806157 +0900,
Images/Speaker1.jpg,Images/Speaker2.jpg,Images/Speaker3.jpg,Images/Speaker4.jpg,Audio/Speaker2_En/P2-9-En.wav,Speaker2,گوینده۲,,,,,,,,,0,20,20,28,438.72084566700005,,,,,,,,,,,,,,,,,,,,,,,,,,,,,,,,,,,,,,,,,,,,,438.69779574999984,438.72084566700005,438.72084566700005,438.72084566700005,438.72084566700005,438.73043625033324,438.72084566700005,438.72084566700005,438.9284553329999,Incorrect! The correct answer is Speaker2. نادرست! پاسخ صحیح گوینده۲ است,1,0.20449650000000474,None,68,101,438.9330330829998,438.9461504579999,440.95520120799983,440.930555208,440.93057433299964,440.93075574999966,910523,001,2024-07-01_17h05.52.248,5-26,2024.1.4,None,2024-07-01 17h05.58.806157 +0900,
Images/Speaker1.jpg,Images/Speaker2.jpg,Images/Speaker3.jpg,Images/Speaker4.jpg,Audio/Speaker2_En/P2-10-En.wav,Speaker2,گوینده۲,,,,,,,,,0,21,21,29,440.95520120799983,,,,,,,,,,,,,,,,,,,,,,,,,,,,,,,,,,,,,,,,,,,,,440.93115604199966,440.95520120799983,440.95520120799983,440.95520120799983,440.95520120799983,440.9636695833333,440.95520120799983,440.95520120799983,441.30382845799977,Incorrect! The correct answer is Speaker2. نادرست! پاسخ صحیح گوینده۲ است,1,0.347379791000094,None,68,102,441.30804758299973,441.3207082499998,443.3283715829998,443.30514449999964,443.30515379200006,443.3053184999999,910523,001,2024-07-01_17h05.52.248,5-26,2024.1.4,None,2024-07-01 17h05.58.806157 +0900,
Images/Speaker1.jpg,Images/Speaker2.jpg,Images/Speaker3.jpg,Images/Speaker4.jpg,Audio/Speaker1_En/P1-7-En.wav,Speaker1,گوینده ۱,,,,,,,,,0,22,22,6,443.3283715829998,,,,,,,,,,,,,,,,,,,,,,,,,,,,,,,,,,,,,,,,,,,,,443.3057454169998,443.3283715829998,443.3283715829998,443.3283715829998,443.3283715829998,443.3382207083332,443.3283715829998,443.3283715829998,443.6632642919999,Correct! صحیح است,1,0.32518866700002036,None,68,103,443.66773562499975,443.678771458,445.68582983299984,445.66196354199974,445.66197270799967,445.66212712499964,910523,001,2024-07-01_17h05.52.248,5-26,2024.1.4,None,2024-07-01 17h05.58.806157 +0900,
Images/Speaker1.jpg,Images/Speaker2.jpg,Images/Speaker3.jpg,Images/Speaker4.jpg,Audio/Speaker3_En/P3-10-En.wav,Speaker3,گوینده۳,,,,,,,,,0,23,23,49,445.68582983299984,,,,,,,,,,,,,,,,,,,,,,,,,,,,,,,,,,,,,,,,,,,,,445.662545875,445.68582983299984,445.68582983299984,445.68582983299984,445.68582983299984,445.6950330833333,445.68582983299984,445.68582983299984,445.85553220799966,Incorrect! The correct answer is Speaker3. نادرست! پاسخ صحیح گوینده۳ است,1,0.16549508300022353,None,68,104,445.8599571669997,445.8726775,,447.8651144999999,447.86514575,447.8657915419999,910523,001,2024-07-01_17h05.52.248,5-26,2024.1.4,None,2024-07-01 17h05.58.806157 +0900,
Images/Speaker1.jpg,Images/Speaker2.jpg,Images/Speaker3.jpg,Images/Speaker4.jpg,Audio/Speaker4_En/P4-19-En.wav,Speaker4,گوینده۴,,,,,,,,,0,24,24,78,447.8906495829997,,,,,,,,,,,,,,,,,,,,,,,,,,,,,,,,,,,,,,,,,,,,,447.8669236669998,447.8906495829997,447.8906495829997,447.8906495829997,447.8906495829997,447.89828783333314,447.8906495829997,447.8906495829997,447.9911172919997,Incorrect! The correct answer is Speaker4. نادرست! پاسخ صحیح گوینده۴ است,1,0.09234866699989652,None,68,105,447.99560058299994,448.00778187499964,,449.9991733329998,449.9992259579999,449.99985608299994,910523,001,2024-07-01_17h05.52.248,5-26,2024.1.4,None,2024-07-01 17h05.58.806157 +0900,
Images/Speaker1.jpg,Images/Speaker2.jpg,Images/Speaker3.jpg,Images/Speaker4.jpg,Audio/Speaker3_En/P3-2-En.wav,Speaker3,گوینده۳,,,,,,,,,0,25,25,41,450.02762349999966,,,,,,,,,,,,,,,,,,,,,,,,,,,,,,,,,,,,,,,,,,,,,450.0013373329998,450.02762349999966,450.02762349999966,450.02762349999966,450.02762349999966,450.03234954133313,450.02762349999966,450.02762349999966,450.1386362919998,Incorrect! The correct answer is Speaker3. نادرست! پاسخ صحیح گوینده۳ است,1,0.10641395900029238,None,68,106,450.14276574999985,450.1550227079997,452.1638954169998,452.1405207079997,452.1405301669997,452.1406687919998,910523,001,2024-07-01_17h05.52.248,5-26,2024.1.4,None,2024-07-01 17h05.58.806157 +0900,
Images/Speaker1.jpg,Images/Speaker2.jpg,Images/Speaker3.jpg,Images/Speaker4.jpg,Audio/Speaker4_En/P4-8-En.wav,Speaker4,گوینده۴,,,,,,,,,0,26,26,67,452.1638954169998,,,,,,,,,,,,,,,,,,,,,,,,,,,,,,,,,,,,,,,,,,,,,452.1410794579997,452.1638954169998,452.1638954169998,452.1638954169998,452.1638954169998,452.17359087533305,452.1638954169998,452.1638954169998,452.28173449999986,Incorrect! The correct answer is Speaker4. نادرست! پاسخ صحیح گوینده۴ است,1,0.10741812500009473,None,68,107,452.28589404199965,452.29841874999966,,454.28949108300003,454.289542125,454.2902609169996,910523,001,2024-07-01_17h05.52.248,5-26,2024.1.4,None,2024-07-01 17h05.58.806157 +0900,
Images/Speaker1.jpg,Images/Speaker2.jpg,Images/Speaker3.jpg,Images/Speaker4.jpg,Audio/Speaker2_En/P2-4-En.wav,Speaker2,گوینده۲,,,,,,,,,0,27,27,23,454.3152466249999,,,,,,,,,,,,,,,,,,,,,,,,,,,,,,,,,,,,,,,,,,,,,454.291526125,454.3152466249999,454.3152466249999,454.3152466249999,454.3152466249999,454.3226639163331,454.3152466249999,454.3152466249999,454.364420375,Incorrect! The correct answer is Speaker2. نادرست! پاسخ صحیح گوینده۲ است,1,0.03716504099975282,None,68,108,454.36872745799974,454.381087792,,456.3747669999998,456.3747941249999,456.3754521249998,910523,001,2024-07-01_17h05.52.248,5-26,2024.1.4,None,2024-07-01 17h05.58.806157 +0900,
Images/Speaker1.jpg,Images/Speaker2.jpg,Images/Speaker3.jpg,Images/Speaker4.jpg,Audio/Speaker3_En/P3-8-En.wav,Speaker3,گوینده۳,,,,,,,,,0,28,28,47,456.4037250829997,,,,,,,,,,,,,,,,,,,,,,,,,,,,,,,,,,,,,,,,,,,,,456.3771207079999,456.4037250829997,456.4037250829997,456.4037250829997,456.4037250829997,456.40794066633316,456.4037250829997,456.4037250829997,456.845399625,Incorrect! The correct answer is Speaker3. نادرست! پاسخ صحیح گوینده۳ است,1,0.4332989580002504,None,68,109,456.84969408300003,456.86219116699976,458.8718127919997,458.84880912499966,458.8488178329999,458.8489650419997,910523,001,2024-07-01_17h05.52.248,5-26,2024.1.4,None,2024-07-01 17h05.58.806157 +0900,
Images/Speaker1.jpg,Images/Speaker2.jpg,Images/Speaker3.jpg,Images/Speaker4.jpg,Audio/Speaker1_En/P1-20-En.wav,Speaker1,گوینده ۱,,,,,,,,,0,29,29,19,458.8718127919997,,,,,,,,,,,,,,,,,,,,,,,,,,,,,,,,,,,,,,,,,,,,,458.8493680419997,458.8718127919997,458.8718127919997,458.8718127919997,458.8718127919997,458.88189520833293,458.8718127919997,458.8718127919997,459.00604220800005,Correct! صحیح است,1,0.12636099999963335,None,68,110,459.01061566699946,459.02153554200004,461.03220445800025,461.0089937079997,461.00900304200013,461.00915954199945,910523,001,2024-07-01_17h05.52.248,5-26,2024.1.4,None,2024-07-01 17h05.58.806157 +0900,
Images/Speaker1.jpg,Images/Speaker2.jpg,Images/Speaker3.jpg,Images/Speaker4.jpg,Audio/Speaker3_En/P3-17-En.wav,Speaker3,گوینده۳,,,,,,,,,0,30,30,56,461.03220445800025,,,,,,,,,,,,,,,,,,,,,,,,,,,,,,,,,,,,,,,,,,,,,461.00957999999946,461.03220445800025,461.03220445800025,461.03220445800025,461.03220445800025,461.0420930833334,461.03220445800025,461.03220445800025,461.1942465830002,Incorrect! The correct answer is Speaker3. نادرست! پاسخ صحیح گوینده۳ است,1,0.1609639589996732,None,68,111,461.1987799169997,461.21223645799955,,463.2053139169998,463.2053376250001,463.2060120000001,910523,001,2024-07-01_17h05.52.248,5-26,2024.1.4,None,2024-07-01 17h05.58.806157 +0900,
Images/Speaker1.jpg,Images/Speaker2.jpg,Images/Speaker3.jpg,Images/Speaker4.jpg,Audio/Speaker1_En/P1-3-En.wav,Speaker1,گوینده ۱,,,,,,,,,0,31,31,2,463.22971554199967,,,,,,,,,,,,,,,,,,,,,,,,,,,,,,,,,,,,,,,,,,,,,463.2072784999996,463.22971554199967,463.22971554199967,463.22971554199967,463.22971554199967,463.2384728333327,463.22971554199967,463.22971554199967,463.2886292500002,Correct! صحیح است,1,0.05788854100046592,None,68,112,463.29317904200025,463.30341499999986,,465.29842016700013,465.2984280830001,465.29860637499996,910523,001,2024-07-01_17h05.52.248,5-26,2024.1.4,None,2024-07-01 17h05.58.806157 +0900,
Images/Speaker1.jpg,Images/Speaker2.jpg,Images/Speaker3.jpg,Images/Speaker4.jpg,Audio/Speaker1_En/P1-4-En.wav,Speaker1,گوینده ۱,,,,,,,,,0,32,32,13,465.32119745799946,,,,,,,,,,,,,,,,,,,,,,,,,,,,,,,,,,,,,,,,,,,,,465.299051042,465.32119745799946,465.32119745799946,465.32119745799946,465.32119745799946,465.3150500416666,465.32119745799946,465.32119745799946,465.4817286249995,Correct! صحیح است,1,0.15361291600038385,None,68,113,465.4859684170001,465.49682774999974,467.5055169579996,467.4822427919994,467.4822507499998,467.48242766700014,910523,001,2024-07-01_17h05.52.248,5-26,2024.1.4,None,2024-07-01 17h05.58.806157 +0900,
Images/Speaker1.jpg,Images/Speaker2.jpg,Images/Speaker3.jpg,Images/Speaker4.jpg,Audio/Speaker2_En/P2-18-En.wav,Speaker2,گوینده۲,,,,,,,,,0,33,33,37,467.5055169579996,,,,,,,,,,,,,,,,,,,,,,,,,,,,,,,,,,,,,,,,,,,,,467.48288204200026,467.5055169579996,467.5055169579996,467.5055169579996,467.5055169579996,467.5153254163333,467.5055169579996,467.5055169579996,467.55495312499943,Incorrect! The correct answer is Speaker2. نادرست! پاسخ صحیح گوینده۲ است,1,0.04559970799982693,None,68,114,467.5590686669998,467.57122433299946,469.58147012499967,469.55613808299995,469.55614724999987,469.55652425000017,910523,001,2024-07-01_17h05.52.248,5-26,2024.1.4,None,2024-07-01 17h05.58.806157 +0900,
Images/Speaker1.jpg,Images/Speaker2.jpg,Images/Speaker3.jpg,Images/Speaker4.jpg,Audio/Speaker4_En/P4-12-En.wav,Speaker4,گوینده۴,,,,,,,,,0,34,34,71,469.58147012499967,,,,,,,,,,,,,,,,,,,,,,,,,,,,,,,,,,,,,,,,,,,,,469.55766212499975,469.58147012499967,469.58147012499967,469.58147012499967,469.58147012499967,469.5892738333332,469.58147012499967,469.58147012499967,469.7506056669995,Incorrect! The correct answer is Speaker4. نادرست! پاسخ صحیح گوینده۴ است,1,0.16802720799933013,None,68,115,469.75470262499994,469.76690220799946,,471.756157667,471.75619595800026,471.7569518329997,910523,001,2024-07-01_17h05.52.248,5-26,2024.1.4,None,2024-07-01 17h05.58.806157 +0900,
Images/Speaker1.jpg,Images/Speaker2.jpg,Images/Speaker3.jpg,Images/Speaker4.jpg,Audio/Speaker4_En/P4-13-En.wav,Speaker4,گوینده۴,,,,,,,,,0,35,35,72,471.78169624999964,,,,,,,,,,,,,,,,,,,,,,,,,,,,,,,,,,,,,,,,,,,,,471.7581921249998,471.78169624999964,471.78169624999964,471.78169624999964,471.78169624999964,471.7893267913332,471.78169624999964,471.78169624999964,471.86461241699953,Incorrect! The correct answer is Speaker4. نادرست! پاسخ صحیح گوینده۴ است,1,0.07439383299970359,None,68,116,471.8687503750002,471.88181208299966,473.8954934170001,473.86758708299976,473.86761312499993,473.86795912499974,910523,001,2024-07-01_17h05.52.248,5-26,2024.1.4,None,2024-07-01 17h05.58.806157 +0900,
Images/Speaker1.jpg,Images/Speaker2.jpg,Images/Speaker3.jpg,Images/Speaker4.jpg,Audio/Speaker1_En/P1-13-En.wav,Speaker1,گوینده ۱,,,,,,,,,0,36,36,12,473.8954934170001,,,,,,,,,,,,,,,,,,,,,,,,,,,,,,,,,,,,,,,,,,,,,473.86961887499956,473.8954934170001,473.8954934170001,473.8954934170001,473.8954934170001,473.9000794583335,473.8954934170001,473.8954934170001,474.20195575000025,Correct! صحیح است,1,0.3033809580001616,None,68,117,474.20779820799953,474.2196703750001,,476.21078683299993,476.2108392919995,476.2120700419996,910523,001,2024-07-01_17h05.52.248,5-26,2024.1.4,None,2024-07-01 17h05.58.806157 +0900,
Images/Speaker1.jpg,Images/Speaker2.jpg,Images/Speaker3.jpg,Images/Speaker4.jpg,Audio/Speaker1_En/P1-10-En.wav,Speaker1,گوینده ۱,,,,,,,,,0,37,37,9,476.23929275,,,,,,,,,,,,,,,,,,,,,,,,,,,,,,,,,,,,,,,,,,,,,476.2137747920001,476.23929275,476.23929275,476.23929275,476.23929275,476.243493500333,476.23929275,476.23929275,476.4848892919995,Correct! صحیح است,1,0.23645145899990894,None,68,118,476.4891847499998,476.50049895799975,478.5112207919997,478.4886400829996,478.4886484169997,478.4888049169999,910523,001,2024-07-01_17h05.52.248,5-26,2024.1.4,None,2024-07-01 17h05.58.806157 +0900,
Images/Speaker1.jpg,Images/Speaker2.jpg,Images/Speaker3.jpg,Images/Speaker4.jpg,Audio/Speaker1_En/P1-4-En.wav,Speaker1,گوینده ۱,,,,,,,,,0,38,38,3,478.5112207919997,,,,,,,,,,,,,,,,,,,,,,,,,,,,,,,,,,,,,,,,,,,,,478.4892540830001,478.5112207919997,478.5112207919997,478.5112207919997,478.5112207919997,478.5050664996668,478.5112207919997,478.5112207919997,478.51181616700023,Correct! صحیح است,1,2.156114833999709,None,68,119,478.51631812499954,478.52524570800006,480.5311696670001,480.50884608299975,480.5088558329994,480.5090075000003,910523,001,2024-07-01_17h05.52.248,5-26,2024.1.4,None,2024-07-01 17h05.58.806157 +0900,
Images/Speaker1.jpg,Images/Speaker2.jpg,Images/Speaker3.jpg,Images/Speaker4.jpg,Audio/Speaker2_En/P2-16-En.wav,Speaker2,گوینده۲,,,,,,,,,0,39,39,35,480.5311696670001,,,,,,,,,,,,,,,,,,,,,,,,,,,,,,,,,,,,,,,,,,,,,480.5094125419996,480.5311696670001,480.5311696670001,480.5311696670001,480.5311696670001,480.5419732913333,480.5311696670001,480.5311696670001,480.7186995830002,Incorrect! The correct answer is Speaker2. نادرست! پاسخ صحیح گوینده۲ است,1,0.17752158300027077,None,68,120,480.723313125,480.73347158299975,482.7416890419995,482.71844295799974,482.7184548330001,482.7186320830001,910523,001,2024-07-01_17h05.52.248,5-26,2024.1.4,None,2024-07-01 17h05.58.806157 +0900,
Images/Speaker1.jpg,Images/Speaker2.jpg,Images/Speaker3.jpg,Images/Speaker4.jpg,Audio/Speaker4_En/P4-18-En.wav,Speaker4,گوینده۴,,,,,,,,,0,40,40,77,482.7416890419995,,,,,,,,,,,,,,,,,,,,,,,,,,,,,,,,,,,,,,,,,,,,,482.7190481249995,482.7416890419995,482.7416890419995,482.7416890419995,482.7416890419995,482.75150887533346,482.7416890419995,482.7416890419995,482.96459837500015,Incorrect! The correct answer is Speaker4. نادرست! پاسخ صحیح گوینده۴ است,1,0.2207421670000258,None,68,121,482.970200667,482.9847740419996,,484.9748797500001,484.9748884169999,484.97510508299956,910523,001,2024-07-01_17h05.52.248,5-26,2024.1.4,None,2024-07-01 17h05.58.806157 +0900,
Images/Speaker1.jpg,Images/Speaker2.jpg,Images/Speaker3.jpg,Images/Speaker4.jpg,Audio/Speaker3_En/P3-19-En.wav,Speaker3,گوینده۳,,,,,,,,,0,41,41,58,484.9983656669997,,,,,,,,,,,,,,,,,,,,,,,,,,,,,,,,,,,,,,,,,,,,,484.9755338330001,484.9983656669997,484.9983656669997,484.9983656669997,484.9983656669997,485.0081697083333,484.9983656669997,484.9983656669997,485.2834619579994,Incorrect! The correct answer is Speaker3. نادرست! پاسخ صحیح گوینده۳ است,1,0.2743052079995323,None,68,122,485.2879622919995,485.29811966700026,487.305292042,487.2813595419998,487.2813724169996,487.28153379199966,910523,001,2024-07-01_17h05.52.248,5-26,2024.1.4,None,2024-07-01 17h05.58.806157 +0900,
Images/Speaker1.jpg,Images/Speaker2.jpg,Images/Speaker3.jpg,Images/Speaker4.jpg,Audio/Speaker2_En/P2-2-En.wav,Speaker2,گوینده۲,,,,,,,,,0,42,42,21,487.305292042,,,,,,,,,,,,,,,,,,,,,,,,,,,,,,,,,,,,,,,,,,,,,487.28201679199947,487.305292042,487.305292042,487.305292042,487.305292042,487.3144445413327,487.305292042,487.305292042,487.4816603329996,Incorrect! The correct answer is Speaker2. نادرست! پاسخ صحیح گوینده۲ است,1,0.17319183300060104,None,68,123,487.4857592080002,487.4982596249997,489.50582845799954,489.4818612919994,489.4818700419996,489.48204291699994,910523,001,2024-07-01_17h05.52.248,5-26,2024.1.4,None,2024-07-01 17h05.58.806157 +0900,
Images/Speaker1.jpg,Images/Speaker2.jpg,Images/Speaker3.jpg,Images/Speaker4.jpg,Audio/Speaker2_En/P2-20-En.wav,Speaker2,گوینده۲,,,,,,,,,0,43,43,39,489.50582845799954,,,,,,,,,,,,,,,,,,,,,,,,,,,,,,,,,,,,,,,,,,,,,489.48245924999947,489.50582845799954,489.50582845799954,489.50582845799954,489.50582845799954,489.5146184163332,489.50582845799954,489.50582845799954,489.82167591699954,Incorrect! The correct answer is Speaker2. نادرست! پاسخ صحیح گوینده۲ است,1,0.31459979099963675,None,68,124,489.8261147500002,489.8393756669998,491.8480083749996,491.8230897919998,491.82312366699944,491.82348933299954,910523,001,2024-07-01_17h05.52.248,5-26,2024.1.4,None,2024-07-01 17h05.58.806157 +0900,
Images/Speaker1.jpg,Images/Speaker2.jpg,Images/Speaker3.jpg,Images/Speaker4.jpg,Audio/Speaker2_En/P2-14-En.wav,Speaker2,گوینده۲,,,,,,,,,0,44,44,33,491.8480083749996,,,,,,,,,,,,,,,,,,,,,,,,,,,,,,,,,,,,,,,,,,,,,491.82437058299956,491.8480083749996,491.8480083749996,491.8480083749996,491.8480083749996,491.8556311663333,491.8480083749996,491.8480083749996,492.03832962499973,Incorrect! The correct answer is Speaker2. نادرست! پاسخ صحیح گوینده۲ است,1,0.1856839170004605,None,68,125,492.0429877499996,492.05584166699964,,494.0503153750001,494.0503277499997,494.05049983300023,910523,001,2024-07-01_17h05.52.248,5-26,2024.1.4,None,2024-07-01 17h05.58.806157 +0900,
Images/Speaker1.jpg,Images/Speaker2.jpg,Images/Speaker3.jpg,Images/Speaker4.jpg,Audio/Speaker3_En/P3-6-En.wav,Speaker3,گوینده۳,,,,,,,,,0,45,45,45,494.0744446249996,,,,,,,,,,,,,,,,,,,,,,,,,,,,,,,,,,,,,,,,,,,,,494.05092345799994,494.0744446249996,494.0744446249996,494.0744446249996,494.0744446249996,494.083605875333,494.0744446249996,494.0744446249996,494.2308982919999,Incorrect! The correct answer is Speaker3. نادرست! پاسخ صحیح گوینده۳ است,1,0.14757250000002387,None,68,126,494.2354729579997,494.2483513329994,496.2580248749996,496.23381995799946,496.23384533299986,496.23419887499995,910523,001,2024-07-01_17h05.52.248,5-26,2024.1.4,None,2024-07-01 17h05.58.806157 +0900,
Images/Speaker1.jpg,Images/Speaker2.jpg,Images/Speaker3.jpg,Images/Speaker4.jpg,Audio/Speaker2_En/P2-5-En.wav,Speaker2,گوینده۲,,,,,,,,,0,46,46,24,496.2580248749996,,,,,,,,,,,,,,,,,,,,,,,,,,,,,,,,,,,,,,,,,,,,,496.2353326669995,496.2580248749996,496.2580248749996,496.2580248749996,496.2580248749996,496.2663398333334,496.2580248749996,496.2580248749996,496.4331657919997,Incorrect! The correct answer is Speaker2. نادرست! پاسخ صحیح گوینده۲ است,1,0.1741285419993801,None,68,127,496.43738729200004,496.44963425000014,,498.4399502499996,498.43999304199997,498.44082133300026,910523,001,2024-07-01_17h05.52.248,5-26,2024.1.4,None,2024-07-01 17h05.58.806157 +0900,
Images/Speaker1.jpg,Images/Speaker2.jpg,Images/Speaker3.jpg,Images/Speaker4.jpg,Audio/Speaker4_En/P4-16-En.wav,Speaker4,گوینده۴,,,,,,,,,0,47,47,75,498.46670145799953,,,,,,,,,,,,,,,,,,,,,,,,,,,,,,,,,,,,,,,,,,,,,498.4420349999996,498.46670145799953,498.46670145799953,498.46670145799953,498.46670145799953,498.4731330003333,498.46670145799953,498.46670145799953,498.8138322919999,Incorrect! The correct answer is Speaker4. نادرست! پاسخ صحیح گوینده۴ است,1,0.3453628329998537,None,68,128,498.8180667499996,498.83106524999994,500.83781045800015,500.8141003329997,500.81410941700005,500.81426024999973,910523,001,2024-07-01_17h05.52.248,5-26,2024.1.4,None,2024-07-01 17h05.58.806157 +0900,
Images/Speaker1.jpg,Images/Speaker2.jpg,Images/Speaker3.jpg,Images/Speaker4.jpg,Audio/Speaker2_En/P2-8-En.wav,Speaker2,گوینده۲,,,,,,,,,0,48,48,27,500.83781045800015,,,,,,,,,,,,,,,,,,,,,,,,,,,,,,,,,,,,,,,,,,,,,500.8146737080001,500.83781045800015,500.83781045800015,500.83781045800015,500.83781045800015,500.84721570833335,500.83781045800015,500.83781045800015,501.147720167,Incorrect! The correct answer is Speaker2. نادرست! پاسخ صحیح گوینده۲ است,1,0.30820191699967836,None,68,129,501.15366287499955,501.16687995799975,,503.1585400829995,503.15857124999957,503.1592281669996,910523,001,2024-07-01_17h05.52.248,5-26,2024.1.4,None,2024-07-01 17h05.58.806157 +0900,
Images/Speaker1.jpg,Images/Speaker2.jpg,Images/Speaker3.jpg,Images/Speaker4.jpg,Audio/Speaker3_En/P3-16-En.wav,Speaker3,گوینده۳,,,,,,,,,0,49,49,55,503.1843648749996,,,,,,,,,,,,,,,,,,,,,,,,,,,,,,,,,,,,,,,,,,,,,503.16069387499965,503.1843648749996,503.1843648749996,503.1843648749996,503.1843648749996,503.19170166633285,503.1843648749996,503.1843648749996,503.2770207079998,Incorrect! The correct answer is Speaker3. نادرست! پاسخ صحیح گوینده۳ است,1,0.0873890829998345,None,68,130,503.28116091699985,503.29370804200016,,505.2841962919997,505.28423433299986,505.2850546249997,910523,001,2024-07-01_17h05.52.248,5-26,2024.1.4,None,2024-07-01 17h05.58.806157 +0900,
Images/Speaker1.jpg,Images/Speaker2.jpg,Images/Speaker3.jpg,Images/Speaker4.jpg,Audio/Speaker1_En/P1-5-En.wav,Speaker1,گوینده ۱,,,,,,,,,0,50,50,4,505.3101752919997,,,,,,,,,,,,,,,,,,,,,,,,,,,,,,,,,,,,,,,,,,,,,505.28664574999993,505.3101752919997,505.3101752919997,505.3101752919997,505.3101752919997,505.31735283333273,505.3101752919997,505.3101752919997,505.43312087499953,Correct! صحیح است,1,0.11453891699966334,None,68,131,505.4377372499998,505.4490295419996,,507.4407312919998,507.4407672080001,507.4415314169996,910523,001,2024-07-01_17h05.52.248,5-26,2024.1.4,None,2024-07-01 17h05.58.806157 +0900,
Images/Speaker1.jpg,Images/Speaker2.jpg,Images/Speaker3.jpg,Images/Speaker4.jpg,Audio/Speaker2_En/P2-6-En.wav,Speaker2,گوینده۲,,,,,,,,,0,51,51,25,507.4697067920001,,,,,,,,,,,,,,,,,,,,,,,,,,,,,,,,,,,,,,,,,,,,,507.4429464580003,507.4697067920001,507.4697067920001,507.4697067920001,507.4697067920001,507.4738881663334,507.4697067920001,507.4697067920001,507.4703160419999,Incorrect! The correct answer is Speaker2. نادرست! پاسخ صحیح گوینده۲ است,1,2.0591530840001724,None,68,132,507.4746035000003,507.4846802500001,509.494982875,509.47126958299987,509.4712774579998,509.4714350829995,910523,001,2024-07-01_17h05.52.248,5-26,2024.1.4,None,2024-07-01 17h05.58.806157 +0900,
Images/Speaker1.jpg,Images/Speaker2.jpg,Images/Speaker3.jpg,Images/Speaker4.jpg,Audio/Speaker1_En/P1-2-En.wav,Speaker1,گوینده ۱,,,,,,,,,0,52,52,1,509.494982875,,,,,,,,,,,,,,,,,,,,,,,,,,,,,,,,,,,,,,,,,,,,,509.47188470799983,509.494982875,509.494982875,509.494982875,509.494982875,509.5043608753331,509.494982875,509.494982875,509.51130675000013,Correct! صحیح است,1,0.013119833000018843,None,68,133,509.51583620799966,509.52653883299945,511.53792683300026,511.51296758299986,511.5129776250001,511.5131522079996,910523,001,2024-07-01_17h05.52.248,5-26,2024.1.4,None,2024-07-01 17h05.58.806157 +0900,
Images/Speaker1.jpg,Images/Speaker2.jpg,Images/Speaker3.jpg,Images/Speaker4.jpg,Audio/Speaker3_En/P3-14-En.wav,Speaker3,گوینده۳,,,,,,,,,0,53,53,53,511.53792683300026,,,,,,,,,,,,,,,,,,,,,,,,,,,,,,,,,,,,,,,,,,,,,511.5135839999998,511.53792683300026,511.53792683300026,511.53792683300026,511.53792683300026,511.54595295833315,511.53792683300026,511.53792683300026,511.6819035419999,Incorrect! The correct answer is Speaker3. نادرست! پاسخ صحیح گوینده۳ است,1,0.14212274999954388,None,68,134,511.6862024999996,511.69863770799975,,513.6915140420001,513.6915267919999,513.691711125,910523,001,2024-07-01_17h05.52.248,5-26,2024.1.4,None,2024-07-01 17h05.58.806157 +0900,
Images/Speaker1.jpg,Images/Speaker2.jpg,Images/Speaker3.jpg,Images/Speaker4.jpg,Audio/Speaker4_En/P4-3-En.wav,Speaker4,گوینده۴,,,,,,,,,0,54,54,62,513.7156275829998,,,,,,,,,,,,,,,,,,,,,,,,,,,,,,,,,,,,,,,,,,,,,513.69215975,513.7156275829998,513.7156275829998,513.7156275829998,513.7156275829998,513.7248092913333,513.7156275829998,513.7156275829998,513.8198479580001,Incorrect! The correct answer is Speaker4. نادرست! پاسخ صحیح گوینده۴ است,1,0.09504987499985873,None,68,135,513.8243490829996,513.836850833,515.845558167,515.8211205000002,515.8211295830001,515.8213231670002,910523,001,2024-07-01_17h05.52.248,5-26,2024.1.4,None,2024-07-01 17h05.58.806157 +0900,
Images/Speaker1.jpg,Images/Speaker2.jpg,Images/Speaker3.jpg,Images/Speaker4.jpg,Audio/Speaker4_En/P4-2-En.wav,Speaker4,گوینده۴,,,,,,,,,0,55,55,61,515.845558167,,,,,,,,,,,,,,,,,,,,,,,,,,,,,,,,,,,,,,,,,,,,,515.821732375,515.845558167,515.845558167,515.845558167,515.845558167,515.8542002913327,515.845558167,515.845558167,515.8461508750001,Incorrect! The correct answer is Speaker4. نادرست! پاسخ صحیح گوینده۴ است,1,2.0868083329996807,None,68,136,515.8468066250002,515.856924917,,517.8519085419998,517.8519331249995,517.8526663749994,910523,001,2024-07-01_17h05.52.248,5-26,2024.1.4,None,2024-07-01 17h05.58.806157 +0900,
Images/Speaker1.jpg,Images/Speaker2.jpg,Images/Speaker3.jpg,Images/Speaker4.jpg,Audio/Speaker2_En/P2-15-En.wav,Speaker2,گوینده۲,,,,,,,,,0,56,56,34,517.8774365419999,,,,,,,,,,,,,,,,,,,,,,,,,,,,,,,,,,,,,,,,,,,,,517.8537069580002,517.8774365419999,517.8774365419999,517.8774365419999,517.8774365419999,517.8851075003331,517.8774365419999,517.8774365419999,518.0115590829996,Incorrect! The correct answer is Speaker2. نادرست! پاسخ صحیح گوینده۲ است,1,0.12638770900048257,None,68,137,518.0159027499999,518.0281382919998,520.035317333,520.0111568749994,520.0111663749999,520.0113654579995,910523,001,2024-07-01_17h05.52.248,5-26,2024.1.4,None,2024-07-01 17h05.58.806157 +0900,
Images/Speaker1.jpg,Images/Speaker2.jpg,Images/Speaker3.jpg,Images/Speaker4.jpg,Audio/Speaker4_En/P4-1-En.wav,Speaker4,گوینده۴,,,,,,,,,0,57,57,60,520.035317333,,,,,,,,,,,,,,,,,,,,,,,,,,,,,,,,,,,,,,,,,,,,,520.0117801249994,520.035317333,520.035317333,520.035317333,520.035317333,520.0442434163333,520.035317333,520.035317333,520.0359523749999,Incorrect! The correct answer is Speaker4. نادرست! پاسخ صحیح گوینده۴ است,1,2.1066886250000607,None,68,138,520.0368888329999,520.046993292,522.0575975830002,522.0311353749998,522.031144,522.0313034999995,910523,001,2024-07-01_17h05.52.248,5-26,2024.1.4,None,2024-07-01 17h05.58.806157 +0900,
Images/Speaker1.jpg,Images/Speaker2.jpg,Images/Speaker3.jpg,Images/Speaker4.jpg,Audio/Speaker2_En/P2-7-En.wav,Speaker2,گوینده۲,,,,,,,,,0,58,58,26,522.0575975830002,,,,,,,,,,,,,,,,,,,,,,,,,,,,,,,,,,,,,,,,,,,,,522.031706792,522.0575975830002,522.0575975830002,522.0575975830002,522.0575975830002,522.0641795833335,522.0575975830002,522.0575975830002,522.058254,Incorrect! The correct answer is Speaker2. نادرست! پاسخ صحیح گوینده۲ است,1,1.9990642920001847,None,68,139,522.0590876249994,522.0689950419996,524.0774261249994,524.054123417,524.054131417,524.0543006249995,910523,001,2024-07-01_17h05.52.248,5-26,2024.1.4,None,2024-07-01 17h05.58.806157 +0900,
Images/Speaker1.jpg,Images/Speaker2.jpg,Images/Speaker3.jpg,Images/Speaker4.jpg,Audio/Speaker4_En/P4-10-En.wav,Speaker4,گوینده۴,,,,,,,,,0,59,59,69,524.0774261249994,,,,,,,,,,,,,,,,,,,,,,,,,,,,,,,,,,,,,,,,,,,,,524.0547504579995,524.0774261249994,524.0774261249994,524.0774261249994,524.0774261249994,524.0872189583333,524.0774261249994,524.0774261249994,524.2165992919995,Incorrect! The correct answer is Speaker4. نادرست! پاسخ صحیح گوینده۴ است,1,0.13578012499965553,None,68,140,524.2212104999994,524.2339434579994,,526.2277165419996,526.2277793749995,526.2285068750002,910523,001,2024-07-01_17h05.52.248,5-26,2024.1.4,None,2024-07-01 17h05.58.806157 +0900,
Images/Speaker1.jpg,Images/Speaker2.jpg,Images/Speaker3.jpg,Images/Speaker4.jpg,Audio/Speaker3_En/P3-15-En.wav,Speaker3,گوینده۳,,,,,,,,,0,60,60,54,526.2557579999998,,,,,,,,,,,,,,,,,,,,,,,,,,,,,,,,,,,,,,,,,,,,,526.2297319169998,526.2557579999998,526.2557579999998,526.2557579999998,526.2557579999998,526.2608705003331,526.2557579999998,526.2557579999998,526.2995261250003,Incorrect! The correct answer is Speaker3. نادرست! پاسخ صحیح گوینده۳ است,1,0.036317042000518995,None,68,141,526.303860167,526.3147211669998,528.3285746669994,528.3042505829994,528.3042802499999,528.3046125420001,910523,001,2024-07-01_17h05.52.248,5-26,2024.1.4,None,2024-07-01 17h05.58.806157 +0900,
Images/Speaker1.jpg,Images/Speaker2.jpg,Images/Speaker3.jpg,Images/Speaker4.jpg,Audio/Speaker3_En/P3-18-En.wav,Speaker3,گوینده۳,,,,,,,,,0,61,61,57,528.3285746669994,,,,,,,,,,,,,,,,,,,,,,,,,,,,,,,,,,,,,,,,,,,,,528.3060424579994,528.3285746669994,528.3285746669994,528.3285746669994,528.3285746669994,528.3367347503336,528.3285746669994,528.3285746669994,528.4569038329996,Incorrect! The correct answer is Speaker3. نادرست! پاسخ صحیح گوینده۳ است,1,0.12692574999982753,None,68,142,528.4615907499997,528.4742569999994,,530.4653293750002,530.4653376249994,530.4655457920003,910523,001,2024-07-01_17h05.52.248,5-26,2024.1.4,None,2024-07-01 17h05.58.806157 +0900,
Images/Speaker1.jpg,Images/Speaker2.jpg,Images/Speaker3.jpg,Images/Speaker4.jpg,Audio/Speaker2_En/P2-3-En.wav,Speaker2,گوینده۲,,,,,,,,,0,62,62,22,530.4882763330002,,,,,,,,,,,,,,,,,,,,,,,,,,,,,,,,,,,,,,,,,,,,,530.4659840419995,530.4882763330002,530.4882763330002,530.4882763330002,530.4882763330002,530.4819649586668,530.4882763330002,530.4882763330002,530.4888745000003,Incorrect! The correct answer is Speaker2. نادرست! پاسخ صحیح گوینده۲ است,1,2.102804166000169,None,68,143,530.4931630830001,530.5025969579997,532.5140077499996,532.4908690420002,532.4908779579996,532.4910696249995,910523,001,2024-07-01_17h05.52.248,5-26,2024.1.4,None,2024-07-01 17h05.58.806157 +0900,
Images/Speaker1.jpg,Images/Speaker2.jpg,Images/Speaker3.jpg,Images/Speaker4.jpg,Audio/Speaker4_En/P4-20-En.wav,Speaker4,گوینده۴,,,,,,,,,0,63,63,79,532.5140077499996,,,,,,,,,,,,,,,,,,,,,,,,,,,,,,,,,,,,,,,,,,,,,532.4915997920002,532.5140077499996,532.5140077499996,532.5140077499996,532.5140077499996,532.5235184583335,532.5140077499996,532.5140077499996,532.5146201249995,Incorrect! The correct answer is Speaker4. نادرست! پاسخ صحیح گوینده۴ است,1,1.9958591660006277,None,68,144,532.5153727920001,532.525593625,534.5358683749996,534.5118194579995,534.5118287499995,534.5120407079999,910523,001,2024-07-01_17h05.52.248,5-26,2024.1.4,None,2024-07-01 17h05.58.806157 +0900,
Images/Speaker1.jpg,Images/Speaker2.jpg,Images/Speaker3.jpg,Images/Speaker4.jpg,Audio/Speaker3_En/P3-11-En.wav,Speaker3,گوینده۳,,,,,,,,,0,64,64,50,534.5358683749996,,,,,,,,,,,,,,,,,,,,,,,,,,,,,,,,,,,,,,,,,,,,,534.512454958,534.5358683749996,534.5358683749996,534.5358683749996,534.5358683749996,534.5448822083335,534.5358683749996,534.5358683749996,534.5364923749999,Incorrect! The correct answer is Speaker3. نادرست! پاسخ صحیح گوینده۳ است,1,1.9726310420001028,None,68,145,534.5372221249995,534.5467202079994,536.5565157919996,536.5329666249995,536.5329743329999,536.5331332499995,910523,001,2024-07-01_17h05.52.248,5-26,2024.1.4,None,2024-07-01 17h05.58.806157 +0900,
Images/Speaker1.jpg,Images/Speaker2.jpg,Images/Speaker3.jpg,Images/Speaker4.jpg,Audio/Speaker4_En/P4-9-En.wav,Speaker4,گوینده۴,,,,,,,,,0,65,65,68,536.5565157919996,,,,,,,,,,,,,,,,,,,,,,,,,,,,,,,,,,,,,,,,,,,,,536.5335750829995,536.5565157919996,536.5565157919996,536.5565157919996,536.5565157919996,536.5659789583333,536.5565157919996,536.5565157919996,536.5571622499997,Incorrect! The correct answer is Speaker4. نادرست! پاسخ صحیح گوینده۴ است,1,1.8633212919994548,None,68,146,536.5578774579994,536.5685282919999,538.5753745830002,538.5528377919995,538.552849958,538.5530537499994,910523,001,2024-07-01_17h05.52.248,5-26,2024.1.4,None,2024-07-01 17h05.58.806157 +0900,
Images/Speaker1.jpg,Images/Speaker2.jpg,Images/Speaker3.jpg,Images/Speaker4.jpg,Audio/Speaker3_En/P3-20-En.wav,Speaker3,گوینده۳,,,,,,,,,0,66,66,59,538.5753745830002,,,,,,,,,,,,,,,,,,,,,,,,,,,,,,,,,,,,,,,,,,,,,538.5534842499997,538.5753745830002,538.5753745830002,538.5753745830002,538.5753745830002,538.5692737496663,538.5753745830002,538.5753745830002,538.5759603330002,Incorrect! The correct answer is Speaker3. نادرست! پاسخ صحیح گوینده۳ است,1,1.9609333750004225,None,68,147,538.580029708,538.59007075,540.6040654579997,540.5780482499999,540.5780772499998,540.57847025,910523,001,2024-07-01_17h05.52.248,5-26,2024.1.4,None,2024-07-01 17h05.58.806157 +0900,
Images/Speaker1.jpg,Images/Speaker2.jpg,Images/Speaker3.jpg,Images/Speaker4.jpg,Audio/Speaker1_En/P1-1-En.wav,Speaker1,گوینده ۱,,,,,,,,,0,67,67,0,540.6040654579997,,,,,,,,,,,,,,,,,,,,,,,,,,,,,,,,,,,,,,,,,,,,,540.5795442080002,540.6040654579997,540.6040654579997,540.6040654579997,540.6040654579997,540.6106475413335,540.6040654579997,540.6040654579997,540.6046822080002,Correct! صحیح است,1,1.9376056660003087,None,68,148,540.6054483329995,540.613336375,542.6236544170001,542.5964849999996,542.5964954169999,542.5966630830003,910523,001,2024-07-01_17h05.52.248,5-26,2024.1.4,None,2024-07-01 17h05.58.806157 +0900,
Images/Speaker1.jpg,Images/Speaker2.jpg,Images/Speaker3.jpg,Images/Speaker4.jpg,Audio/Speaker2_En/P2-1-En.wav,Speaker2,گوینده۲,,,,,,,,,0,68,68,20,542.6236544170001,,,,,,,,,,,,,,,,,,,,,,,,,,,,,,,,,,,,,,,,,,,,,542.5970830000001,542.6236544170001,542.6236544170001,542.6236544170001,542.6236544170001,542.6296147913336,542.6236544170001,542.6236544170001,542.6242927079998,Incorrect! The correct answer is Speaker2. نادرست! پاسخ صحیح گوینده۲ است,1,2.0037597499995172,None,68,149,542.6251107080002,542.6350486249999,,544.628407875,544.6284672500001,544.6291846250001,910523,001,2024-07-01_17h05.52.248,5-26,2024.1.4,None,2024-07-01 17h05.58.806157 +0900,
Images/Speaker1.jpg,Images/Speaker2.jpg,Images/Speaker3.jpg,Images/Speaker4.jpg,Audio/Speaker1_En/P1-18-En.wav,Speaker1,گوینده ۱,,,,,,,,,0,69,69,17,544.6600883750002,,,,,,,,,,,,,,,,,,,,,,,,,,,,,,,,,,,,,,,,,,,,,544.6305363329998,544.6600883750002,544.6600883750002,544.6600883750002,544.6600883750002,544.6615637913328,544.6600883750002,544.6600883750002,544.6607152499996,Correct! صحیح است,1,2.021920167000644,None,68,150,544.6651010829996,544.6737396249996,546.6909679579999,546.6619042079997,546.6619305829995,546.6622234579995,910523,001,2024-07-01_17h05.52.248,5-26,2024.1.4,None,2024-07-01 17h05.58.806157 +0900,
Images/Speaker1.jpg,Images/Speaker2.jpg,Images/Speaker3.jpg,Images/Speaker4.jpg,Audio/Speaker4_En/P4-4-En.wav,Speaker4,گوینده۴,,,,,,,,,0,70,70,63,546.6909679579999,,,,,,,,,,,,,,,,,,,,,,,,,,,,,,,,,,,,,,,,,,,,,546.663575,546.6909679579999,546.6909679579999,546.6909679579999,546.6909679579999,546.6942434163329,546.6909679579999,546.6909679579999,546.6916003330002,Incorrect! The correct answer is Speaker4. نادرست! پاسخ صحیح گوینده۴ است,1,2.0138934159995188,None,68,151,546.6957267499997,546.7064862499997,,548.7001918330002,548.7002214999998,548.7008697079996,910523,001,2024-07-01_17h05.52.248,5-26,2024.1.4,None,2024-07-01 17h05.58.806157 +0900,
Images/Speaker1.jpg,Images/Speaker2.jpg,Images/Speaker3.jpg,Images/Speaker4.jpg,Audio/Speaker3_En/P3-1-En.wav,Speaker3,گوینده۳,,,,,,,,,0,71,71,40,548.72533875,,,,,,,,,,,,,,,,,,,,,,,,,,,,,,,,,,,,,,,,,,,,,548.7023159999994,548.72533875,548.72533875,548.72533875,548.72533875,548.7333833333332,548.72533875,548.72533875,548.7314662080003,Incorrect! The correct answer is Speaker3. نادرست! پاسخ صحیح گوینده۳ است,1,0.0013250000001789886,None,68,152,548.7360369169996,548.7480677919998,,550.7391219999995,550.7391344169996,550.7393115,910523,001,2024-07-01_17h05.52.248,5-26,2024.1.4,None,2024-07-01 17h05.58.806157 +0900,
Images/Speaker1.jpg,Images/Speaker2.jpg,Images/Speaker3.jpg,Images/Speaker4.jpg,Audio/Speaker1_En/P1-15-En.wav,Speaker1,گوینده ۱,,,,,,,,,0,72,72,14,550.764848458,,,,,,,,,,,,,,,,,,,,,,,,,,,,,,,,,,,,,,,,,,,,,550.7397337079997,550.764848458,550.764848458,550.764848458,550.764848458,550.7724175003332,550.764848458,550.764848458,550.7737911250001,Correct! صحیح است,1,0.0012015419997624122,None,68,153,550.7779478749994,550.7865522919997,,552.7832686669994,552.7832958329996,552.7841089999997,910523,001,2024-07-01_17h05.52.248,5-26,2024.1.4,None,2024-07-01 17h05.58.806157 +0900,
Images/Speaker1.jpg,Images/Speaker2.jpg,Images/Speaker3.jpg,Images/Speaker4.jpg,Audio/Speaker2_En/P2-17-En.wav,Speaker2,گوینده۲,,,,,,,,,0,73,73,36,552.8097164579999,,,,,,,,,,,,,,,,,,,,,,,,,,,,,,,,,,,,,,,,,,,,,552.785717667,552.8097164579999,552.8097164579999,552.8097164579999,552.8097164579999,552.816395916333,552.8097164579999,552.8097164579999,552.9193535419995,Incorrect! The correct answer is Speaker2. نادرست! پاسخ صحیح گوینده۲ است,1,0.10502099999939674,None,68,154,552.9235761670002,552.935729708,554.9461981669997,554.9219185420002,554.921927375,554.9221348750002,910523,001,2024-07-01_17h05.52.248,5-26,2024.1.4,None,2024-07-01 17h05.58.806157 +0900,
Images/Speaker1.jpg,Images/Speaker2.jpg,Images/Speaker3.jpg,Images/Speaker4.jpg,Audio/Speaker1_En/P1-8-En.wav,Speaker1,گوینده ۱,,,,,,,,,0,74,74,7,554.9461981669997,,,,,,,,,,,,,,,,,,,,,,,,,,,,,,,,,,,,,,,,,,,,,554.9225509579996,554.9461981669997,554.9461981669997,554.9461981669997,554.9461981669997,554.954941500333,554.9461981669997,554.9461981669997,555.1067924579997,Correct! صحیح است,1,0.1500372079999579,None,68,155,555.1114165419999,555.1234972500001,557.1350797919999,557.109278417,557.1093101249994,557.1096685420002,910523,001,2024-07-01_17h05.52.248,5-26,2024.1.4,None,2024-07-01 17h05.58.806157 +0900,
Images/Speaker1.jpg,Images/Speaker2.jpg,Images/Speaker3.jpg,Images/Speaker4.jpg,Audio/Speaker3_En/P3-9-En.wav,Speaker3,گوینده۳,,,,,,,,,0,75,75,48,557.1350797919999,,,,,,,,,,,,,,,,,,,,,,,,,,,,,,,,,,,,,,,,,,,,,557.1111816669995,557.1350797919999,557.1350797919999,557.1350797919999,557.1350797919999,557.1417670833334,557.1350797919999,557.1350797919999,557.2571782079999,Incorrect! The correct answer is Speaker3. نادرست! پاسخ صحیح گوینده۳ است,1,0.12111637500038341,None,68,156,557.261411,557.2735295830003,559.2823389579994,559.2583329169997,559.258357958,559.2585093329994,910523,001,2024-07-01_17h05.52.248,5-26,2024.1.4,None,2024-07-01 17h05.58.806157 +0900,
Images/Speaker1.jpg,Images/Speaker2.jpg,Images/Speaker3.jpg,Images/Speaker4.jpg,Audio/Speaker3_En/P3-13-En.wav,Speaker3,گوینده۳,,,,,,,,,0,76,76,52,559.2823389579994,,,,,,,,,,,,,,,,,,,,,,,,,,,,,,,,,,,,,,,,,,,,,559.2589573749997,559.2823389579994,559.2823389579994,559.2823389579994,559.2823389579994,559.2914219163331,559.2823389579994,559.2823389579994,559.3655602920003,Incorrect! The correct answer is Speaker3. نادرست! پاسخ صحیح گوینده۳ است,1,0.07633008300035726,None,68,157,559.3698651669997,559.3820762499995,561.3878548749994,561.3655908750002,561.3656019169998,561.3657632499994,910523,001,2024-07-01_17h05.52.248,5-26,2024.1.4,None,2024-07-01 17h05.58.806157 +0900,
Images/Speaker1.jpg,Images/Speaker2.jpg,Images/Speaker3.jpg,Images/Speaker4.jpg,Audio/Speaker3_En/P3-7-En.wav,Speaker3,گوینده۳,,,,,,,,,0,77,77,46,561.3878548749994,,,,,,,,,,,,,,,,,,,,,,,,,,,,,,,,,,,,,,,,,,,,,561.366186625,561.3878548749994,561.3878548749994,561.3878548749994,561.3878548749994,561.3819449996661,561.3878548749994,561.3878548749994,561.5831029169999,Incorrect! The correct answer is Speaker3. نادرست! پاسخ صحیح گوینده۳ است,1,0.1921693750000486,None,68,158,561.5875558329994,561.599648375,,563.5895952919996,563.589620792,563.5903962079997,910523,001,2024-07-01_17h05.52.248,5-26,2024.1.4,None,2024-07-01 17h05.58.806157 +0900,
Images/Speaker1.jpg,Images/Speaker2.jpg,Images/Speaker3.jpg,Images/Speaker4.jpg,Audio/Speaker2_En/P2-12-En.wav,Speaker2,گوینده۲,,,,,,,,,0,78,78,31,563.6164918749996,,,,,,,,,,,,,,,,,,,,,,,,,,,,,,,,,,,,,,,,,,,,,563.5916471670002,563.6164918749996,563.6164918749996,563.6164918749996,563.6164918749996,563.6227433333333,563.6164918749996,563.6164918749996,563.7722757919996,Incorrect! The correct answer is Speaker2. نادرست! پاسخ صحیح گوینده۲ است,1,0.1486125000001266,None,68,159,563.7767486669995,563.7892836249998,565.7976819169994,565.7735355829996,565.7735452920001,565.7737097919994,910523,001,2024-07-01_17h05.52.248,5-26,2024.1.4,None,2024-07-01 17h05.58.806157 +0900,
Images/Speaker1.jpg,Images/Speaker2.jpg,Images/Speaker3.jpg,Images/Speaker4.jpg,Audio/Speaker1_En/P1-11-En.wav,Speaker1,گوینده ۱,,,,,,,,,0,79,79,10,565.7976819169994,,,,,,,,,,,,,,,,,,,,,,,,,,,,,,,,,,,,,,,,,,,,,565.7741242919997,565.7976819169994,565.7976819169994,565.7976819169994,565.7976819169994,565.8066005003329,565.7976819169994,565.7976819169994,566.8347459579995,Correct! صحیح است,1,1.0283763329998692,None,68,160,566.8393379169997,566.8507442499999,568.8584425419999,568.8347197079997,568.8347497079999,568.8351814579996,910523,001,2024-07-01_17h05.52.248,5-26,2024.1.4,None,2024-07-01 17h05.58.806157 +0900,
Images/Speaker1.jpg,Images/Speaker2.jpg,Images/Speaker3.jpg,Images/Speaker4.jpg,Audio/Speaker4_En/P4-1-En.wav,Speaker4,گوینده۴,,,,,,,,,1,0,80,60,568.8584425419999,,,,,,,,,,,,,,,,,,,,,,,,,,,,,,,,,,,,,,,,,,,,,568.8367505000001,568.8584425419999,568.8584425419999,568.8584425419999,568.8584425419999,568.8669905413335,568.8584425419999,568.8584425419999,572.1109552080002,Correct! صحیح است,4,3.2500198329998966,None,68,161,572.1155667079997,572.1277977919995,574.1377631669998,574.113009917,574.1130195419996,574.113211542,910523,001,2024-07-01_17h05.52.248,5-26,2024.1.4,None,2024-07-01 17h05.58.806157 +0900,
Images/Speaker1.jpg,Images/Speaker2.jpg,Images/Speaker3.jpg,Images/Speaker4.jpg,Audio/Speaker2_En/P2-18-En.wav,Speaker2,گوینده۲,,,,,,,,,1,1,81,37,574.1377631669998,,,,,,,,,,,,,,,,,,,,,,,,,,,,,,,,,,,,,,,,,,,,,574.1141391249998,574.1377631669998,574.1377631669998,574.1377631669998,574.1377631669998,574.1460504583329,574.1377631669998,574.1377631669998,575.5272184169994,Correct! صحیح است,2,1.3862380829996255,None,68,162,575.5334183330001,575.5449469170003,577.5533411249994,577.5309486250003,577.5309884579997,577.5314498329994,910523,001,2024-07-01_17h05.52.248,5-26,2024.1.4,None,2024-07-01 17h05.58.806157 +0900,
Images/Speaker1.jpg,Images/Speaker2.jpg,Images/Speaker3.jpg,Images/Speaker4.jpg,Audio/Speaker4_En/P4-20-En.wav,Speaker4,گوینده۴,,,,,,,,,1,2,82,79,577.5533411249994,,,,,,,,,,,,,,,,,,,,,,,,,,,,,,,,,,,,,,,,,,,,,577.5323398329997,577.5533411249994,577.5533411249994,577.5533411249994,577.5533411249994,577.563267208333,577.5533411249994,577.5533411249994,578.8542696250001,Correct! صحیح است,4,1.2983071250000648,None,68,163,578.8587374169997,578.870236917,,580.8665249999999,580.8665511249997,580.8672076669995,910523,001,2024-07-01_17h05.52.248,5-26,2024.1.4,None,2024-07-01 17h05.58.806157 +0900,
Images/Speaker1.jpg,Images/Speaker2.jpg,Images/Speaker3.jpg,Images/Speaker4.jpg,Audio/Speaker3_En/P3-14-En.wav,Speaker3,گوینده۳,,,,,,,,,1,3,83,53,580.8917593330002,,,,,,,,,,,,,,,,,,,,,,,,,,,,,,,,,,,,,,,,,,,,,580.8686614579997,580.8917593330002,580.8917593330002,580.8917593330002,580.8917593330002,580.8996662913332,580.8917593330002,580.8917593330002,582.632541042,Correct! صحیح است,3,1.7303001250002126,None,68,164,582.636894625,582.6453753749997,584.6608684170001,584.6368891669995,584.6369008329998,584.6370593750003,910523,001,2024-07-01_17h05.52.248,5-26,2024.1.4,None,2024-07-01 17h05.58.806157 +0900,
Images/Speaker1.jpg,Images/Speaker2.jpg,Images/Speaker3.jpg,Images/Speaker4.jpg,Audio/Speaker4_En/P4-11-En.wav,Speaker4,گوینده۴,,,,,,,,,1,4,84,70,584.6608684170001,,,,,,,,,,,,,,,,,,,,,,,,,,,,,,,,,,,,,,,,,,,,,584.6375012920003,584.6608684170001,584.6608684170001,584.6608684170001,584.6608684170001,584.6699883333331,584.6608684170001,584.6608684170001,586.7247763749997,Correct! صحیح است,4,2.058293500000218,None,68,165,586.7294084999999,586.7407762919997,,588.7295226669999,588.729533958,588.7298073750003,910523,001,2024-07-01_17h05.52.248,5-26,2024.1.4,None,2024-07-01 17h05.58.806157 +0900,
Images/Speaker1.jpg,Images/Speaker2.jpg,Images/Speaker3.jpg,Images/Speaker4.jpg,Audio/Speaker4_En/P4-8-En.wav,Speaker4,گوینده۴,,,,,,,,,1,5,85,67,588.7511593329996,,,,,,,,,,,,,,,,,,,,,,,,,,,,,,,,,,,,,,,,,,,,,588.7302299170001,588.7511593329996,588.7511593329996,588.7511593329996,588.7511593329996,588.746146291667,588.7511593329996,588.7511593329996,589.9978040829997,Correct! صحیح است,4,1.2452553330003866,None,68,166,590.0022373329998,590.0140730829994,592.0209247500002,591.9987960419999,591.9988054169994,591.9989658749996,910523,001,2024-07-01_17h05.52.248,5-26,2024.1.4,None,2024-07-01 17h05.58.806157 +0900,
Images/Speaker1.jpg,Images/Speaker2.jpg,Images/Speaker3.jpg,Images/Speaker4.jpg,Audio/Speaker1_En/P1-13-En.wav,Speaker1,گوینده ۱,,,,,,,,,1,6,86,12,592.0209247500002,,,,,,,,,,,,,,,,,,,,,,,,,,,,,,,,,,,,,,,,,,,,,591.9994187079997,592.0209247500002,592.0209247500002,592.0209247500002,592.0209247500002,592.0152112086669,592.0209247500002,592.0209247500002,593.3998685000001,Correct! صحیح است,1,1.3647389160005332,None,68,167,593.404357375,593.4155592080001,,595.406475708,595.4064881669997,595.4066944579995,910523,001,2024-07-01_17h05.52.248,5-26,2024.1.4,None,2024-07-01 17h05.58.806157 +0900,
Images/Speaker1.jpg,Images/Speaker2.jpg,Images/Speaker3.jpg,Images/Speaker4.jpg,Audio/Speaker3_En/P3-19-En.wav,Speaker3,گوینده۳,,,,,,,,,1,7,87,58,595.4280939579999,,,,,,,,,,,,,,,,,,,,,,,,,,,,,,,,,,,,,,,,,,,,,595.4071404169995,595.4280939579999,595.4280939579999,595.4280939579999,595.4280939579999,595.4231037916668,595.4280939579999,595.4280939579999,597.0718277499996,Correct! صحیح است,3,1.6402439579997008,None,68,168,597.0773229579995,597.0895296249996,599.0992369999999,599.0763577920002,599.0763659170002,599.0765187499997,910523,001,2024-07-01_17h05.52.248,5-26,2024.1.4,None,2024-07-01 17h05.58.806157 +0900,
Images/Speaker1.jpg,Images/Speaker2.jpg,Images/Speaker3.jpg,Images/Speaker4.jpg,Audio/Speaker2_En/P2-13-En.wav,Speaker2,گوینده۲,,,,,,,,,1,8,88,32,599.0992369999999,,,,,,,,,,,,,,,,,,,,,,,,,,,,,,,,,,,,,,,,,,,,,599.0769852500002,599.0992369999999,599.0992369999999,599.0992369999999,599.0992369999999,599.1093442503334,599.0992369999999,599.0992369999999,600.3463877079998,Correct! صحیح است,2,1.2381087499998102,None,68,169,600.351051958,600.3619044169996,602.3681076669995,602.3455329579997,602.3455436669997,602.3457097919995,910523,001,2024-07-01_17h05.52.248,5-26,2024.1.4,None,2024-07-01 17h05.58.806157 +0900,
Images/Speaker1.jpg,Images/Speaker2.jpg,Images/Speaker3.jpg,Images/Speaker4.jpg,Audio/Speaker4_En/P4-2-En.wav,Speaker4,گوینده۴,,,,,,,,,1,9,89,61,602.3681076669995,,,,,,,,,,,,,,,,,,,,,,,,,,,,,,,,,,,,,,,,,,,,,602.3461201670002,602.3681076669995,602.3681076669995,602.3681076669995,602.3681076669995,602.3619656246663,602.3681076669995,602.3681076669995,605.0077000420001,Correct! صحیح است,4,2.6346157500001937,None,68,170,605.0119951249994,605.0231851249996,607.0350579169994,607.0085652920002,607.0086055830002,607.0090807499996,910523,001,2024-07-01_17h05.52.248,5-26,2024.1.4,None,2024-07-01 17h05.58.806157 +0900,
Images/Speaker1.jpg,Images/Speaker2.jpg,Images/Speaker3.jpg,Images/Speaker4.jpg,Audio/Speaker2_En/P2-4-En.wav,Speaker2,گوینده۲,,,,,,,,,1,10,90,23,607.0350579169994,,,,,,,,,,,,,,,,,,,,,,,,,,,,,,,,,,,,,,,,,,,,,607.0107681249997,607.0350579169994,607.0350579169994,607.0350579169994,607.0350579169994,607.0409120413333,607.0350579169994,607.0350579169994,608.4419161250003,Correct! صحیح است,2,1.4035369580005863,None,68,171,608.4475708329996,608.4608539169999,,610.4581025829998,610.4581374579998,610.4588801670002,910523,001,2024-07-01_17h05.52.248,5-26,2024.1.4,None,2024-07-01 17h05.58.806157 +0900,
Images/Speaker1.jpg,Images/Speaker2.jpg,Images/Speaker3.jpg,Images/Speaker4.jpg,Audio/Speaker2_En/P2-3-En.wav,Speaker2,گوینده۲,,,,,,,,,1,11,91,22,610.4845413749995,,,,,,,,,,,,,,,,,,,,,,,,,,,,,,,,,,,,,,,,,,,,,610.4603927080002,610.4845413749995,610.4845413749995,610.4845413749995,610.4845413749995,610.4912815833331,610.4845413749995,610.4845413749995,611.7842697499996,Correct! صحیح است,2,1.2874922500004686,None,68,172,611.7889641669994,611.8004388329996,,613.7896008329994,613.7896369999994,613.7904628749998,910523,001,2024-07-01_17h05.52.248,5-26,2024.1.4,None,2024-07-01 17h05.58.806157 +0900,
Images/Speaker1.jpg,Images/Speaker2.jpg,Images/Speaker3.jpg,Images/Speaker4.jpg,Audio/Speaker2_En/P2-5-En.wav,Speaker2,گوینده۲,,,,,,,,,1,12,92,24,613.8136490829997,,,,,,,,,,,,,,,,,,,,,,,,,,,,,,,,,,,,,,,,,,,,,613.7916124170001,613.8136490829997,613.8136490829997,613.8136490829997,613.8136490829997,613.8227648753327,613.8136490829997,613.8136490829997,615.1206497919998,Correct! صحیح است,2,1.2978454169997349,None,68,173,615.1249356249996,615.135719292,,617.1331064169995,617.1331438329994,617.1338755000002,910523,001,2024-07-01_17h05.52.248,5-26,2024.1.4,None,2024-07-01 17h05.58.806157 +0900,
Images/Speaker1.jpg,Images/Speaker2.jpg,Images/Speaker3.jpg,Images/Speaker4.jpg,Audio/Speaker3_En/P3-3-En.wav,Speaker3,گوینده۳,,,,,,,,,1,13,93,42,617.159645833,,,,,,,,,,,,,,,,,,,,,,,,,,,,,,,,,,,,,,,,,,,,,617.1354960419999,617.159645833,617.159645833,617.159645833,617.159645833,617.1662798753332,617.159645833,617.159645833,618.7532194169994,Correct! صحیح است,3,1.5869771669995316,None,68,174,618.7574566669996,618.7666542499996,620.7748317499995,620.7514357499999,620.751443875,620.7516114169998,910523,001,2024-07-01_17h05.52.248,5-26,2024.1.4,None,2024-07-01 17h05.58.806157 +0900,
Images/Speaker1.jpg,Images/Speaker2.jpg,Images/Speaker3.jpg,Images/Speaker4.jpg,Audio/Speaker3_En/P3-2-En.wav,Speaker3,گوینده۳,,,,,,,,,1,14,94,41,620.7748317499995,,,,,,,,,,,,,,,,,,,,,,,,,,,,,,,,,,,,,,,,,,,,,620.7520117079998,620.7748317499995,620.7748317499995,620.7748317499995,620.7748317499995,620.784495875333,620.7748317499995,620.7748317499995,622.2907504580003,Correct! صحیح است,3,1.5111210420000134,None,68,175,622.2952404169996,622.3069237919995,,624.30126875,624.3012770419996,624.3015050829995,910523,001,2024-07-01_17h05.52.248,5-26,2024.1.4,None,2024-07-01 17h05.58.806157 +0900,
Images/Speaker1.jpg,Images/Speaker2.jpg,Images/Speaker3.jpg,Images/Speaker4.jpg,Audio/Speaker2_En/P2-12-En.wav,Speaker2,گوینده۲,,,,,,,,,1,15,95,31,624.3224018329997,,,,,,,,,,,,,,,,,,,,,,,,,,,,,,,,,,,,,,,,,,,,,624.3019210830003,624.3224018329997,624.3224018329997,624.3224018329997,624.3224018329997,624.3178879996665,624.3224018329997,624.3224018329997,625.7343767919997,Correct! صحیح است,2,1.4105410419997497,None,68,176,625.7389730829996,625.7507499170001,627.762341917,627.7399232499997,627.7399650000002,627.7405613750002,910523,001,2024-07-01_17h05.52.248,5-26,2024.1.4,None,2024-07-01 17h05.58.806157 +0900,
Images/Speaker1.jpg,Images/Speaker2.jpg,Images/Speaker3.jpg,Images/Speaker4.jpg,Audio/Speaker1_En/P1-5-En.wav,Speaker1,گوینده ۱,,,,,,,,,1,16,96,4,627.762341917,,,,,,,,,,,,,,,,,,,,,,,,,,,,,,,,,,,,,,,,,,,,,627.7411705419995,627.762341917,627.762341917,627.762341917,627.762341917,627.7721366663327,627.762341917,627.762341917,628.8820502499998,Correct! صحیح است,1,1.1137814579997212,None,68,177,628.8862004999996,628.8971484580002,,630.8894722499995,630.8894800000003,630.889690167,910523,001,2024-07-01_17h05.52.248,5-26,2024.1.4,None,2024-07-01 17h05.58.806157 +0900,
Images/Speaker1.jpg,Images/Speaker2.jpg,Images/Speaker3.jpg,Images/Speaker4.jpg,Audio/Speaker3_En/P3-12-En.wav,Speaker3,گوینده۳,,,,,,,,,1,17,97,51,630.9117350419997,,,,,,,,,,,,,,,,,,,,,,,,,,,,,,,,,,,,,,,,,,,,,630.8901001669997,630.9117350419997,630.9117350419997,630.9117350419997,630.9117350419997,630.9061063746665,630.9117350419997,630.9117350419997,632.4711896249996,Correct! صحیح است,3,1.555137334000392,None,68,178,632.4756154579995,632.4884197919996,,634.482787083,634.4828170830001,634.4836519579999,910523,001,2024-07-01_17h05.52.248,5-26,2024.1.4,None,2024-07-01 17h05.58.806157 +0900,
Images/Speaker1.jpg,Images/Speaker2.jpg,Images/Speaker3.jpg,Images/Speaker4.jpg,Audio/Speaker2_En/P2-15-En.wav,Speaker2,گوینده۲,,,,,,,,,1,18,98,34,634.5073884580002,,,,,,,,,,,,,,,,,,,,,,,,,,,,,,,,,,,,,,,,,,,,,634.4850913750001,634.5073884580002,634.5073884580002,634.5073884580002,634.5073884580002,634.5159202503328,634.5073884580002,634.5073884580002,635.5776268329996,Correct! صحیح است,2,1.0656420409995917,None,68,179,635.581821667,635.5927278329996,637.6009805419994,637.5791748329998,637.5791825829997,637.579363667,910523,001,2024-07-01_17h05.52.248,5-26,2024.1.4,None,2024-07-01 17h05.58.806157 +0900,
Images/Speaker1.jpg,Images/Speaker2.jpg,Images/Speaker3.jpg,Images/Speaker4.jpg,Audio/Speaker3_En/P3-17-En.wav,Speaker3,گوینده۳,,,,,,,,,1,19,99,56,637.6009805419994,,,,,,,,,,,,,,,,,,,,,,,,,,,,,,,,,,,,,,,,,,,,,637.5798057919997,637.6009805419994,637.6009805419994,637.6009805419994,637.6009805419994,637.5955222916662,637.6009805419994,637.6009805419994,639.027673,Correct! صحیح است,3,1.4253553329999704,None,68,180,639.0318429169997,639.0431795829995,641.0518772499995,641.0275269580002,641.0275685000001,641.0281027919996,910523,001,2024-07-01_17h05.52.248,5-26,2024.1.4,None,2024-07-01 17h05.58.806157 +0900,
Images/Speaker1.jpg,Images/Speaker2.jpg,Images/Speaker3.jpg,Images/Speaker4.jpg,Audio/Speaker4_En/P4-6-En.wav,Speaker4,گوینده۴,,,,,,,,,1,20,100,65,641.0518772499995,,,,,,,,,,,,,,,,,,,,,,,,,,,,,,,,,,,,,,,,,,,,,641.0287105419998,641.0518772499995,641.0518772499995,641.0518772499995,641.0518772499995,641.0594704163332,641.0518772499995,641.0518772499995,642.3191094999997,Correct! صحیح است,4,1.2657150409995666,None,68,181,642.3234337079998,642.3351990830001,,644.3252312079999,644.3252399999997,644.3254261249999,910523,001,2024-07-01_17h05.52.248,5-26,2024.1.4,None,2024-07-01 17h05.58.806157 +0900,
Images/Speaker1.jpg,Images/Speaker2.jpg,Images/Speaker3.jpg,Images/Speaker4.jpg,Audio/Speaker3_En/P3-20-En.wav,Speaker3,گوینده۳,,,,,,,,,1,21,101,59,644.3466392919995,,,,,,,,,,,,,,,,,,,,,,,,,,,,,,,,,,,,,,,,,,,,,644.3258394170002,644.3466392919995,644.3466392919995,644.3466392919995,644.3466392919995,644.3418591246661,644.3466392919995,644.3466392919995,645.8326970000003,Correct! صحیح است,3,1.483237583999653,None,68,182,645.8369269580003,645.8477531670001,,647.8445233749994,647.8445557919999,647.8454917919994,910523,001,2024-07-01_17h05.52.248,5-26,2024.1.4,None,2024-07-01 17h05.58.806157 +0900,
Images/Speaker1.jpg,Images/Speaker2.jpg,Images/Speaker3.jpg,Images/Speaker4.jpg,Audio/Speaker1_En/P1-1-En.wav,Speaker1,گوینده ۱,,,,,,,,,1,22,102,0,647.8696500829997,,,,,,,,,,,,,,,,,,,,,,,,,,,,,,,,,,,,,,,,,,,,,647.8470383749996,647.8696500829997,647.8696500829997,647.8696500829997,647.8696500829997,647.8777034163331,647.8696500829997,647.8696500829997,649.4777018749996,Correct! صحیح است,1,1.6070233330001429,None,68,183,649.4818567079997,649.4931992919996,,651.4825612079999,651.4825757499998,651.4828290419996,910523,001,2024-07-01_17h05.52.248,5-26,2024.1.4,None,2024-07-01 17h05.58.806157 +0900,
Images/Speaker1.jpg,Images/Speaker2.jpg,Images/Speaker3.jpg,Images/Speaker4.jpg,Audio/Speaker2_En/P2-17-En.wav,Speaker2,گوینده۲,,,,,,,,,1,23,103,36,651.5043571669999,,,,,,,,,,,,,,,,,,,,,,,,,,,,,,,,,,,,,,,,,,,,,651.483284417,651.5043571669999,651.5043571669999,651.5043571669999,651.5043571669999,651.499164624667,651.5043571669999,651.5043571669999,653.6696257079998,Correct! صحیح است,2,2.1636482089998026,None,68,184,653.6738072080002,653.6853092079996,655.694844917,655.6715334169999,655.6715434169996,655.6717171670002,910523,001,2024-07-01_17h05.52.248,5-26,2024.1.4,None,2024-07-01 17h05.58.806157 +0900,
Images/Speaker1.jpg,Images/Speaker2.jpg,Images/Speaker3.jpg,Images/Speaker4.jpg,Audio/Speaker4_En/P4-10-En.wav,Speaker4,گوینده۴,,,,,,,,,1,24,104,69,655.694844917,,,,,,,,,,,,,,,,,,,,,,,,,,,,,,,,,,,,,,,,,,,,,655.6721307920002,655.694844917,655.694844917,655.694844917,655.694844917,655.7046577083329,655.694844917,655.694844917,656.7618308750002,Correct! صحیح است,4,1.0659007499998552,None,68,185,656.7672325829994,656.7798217079994,658.7946217080002,658.7679922920001,658.7680203329996,658.7684574170003,910523,001,2024-07-01_17h05.52.248,5-26,2024.1.4,None,2024-07-01 17h05.58.806157 +0900,
Images/Speaker1.jpg,Images/Speaker2.jpg,Images/Speaker3.jpg,Images/Speaker4.jpg,Audio/Speaker3_En/P3-16-En.wav,Speaker3,گوینده۳,,,,,,,,,1,25,105,55,658.7946217080002,,,,,,,,,,,,,,,,,,,,,,,,,,,,,,,,,,,,,,,,,,,,,658.7699689999995,658.7946217080002,658.7946217080002,658.7946217080002,658.7946217080002,658.8004045833331,658.7946217080002,658.7946217080002,660.3967473749994,Correct! صحیح است,3,1.5939615420002156,None,68,186,660.4013708329999,660.412984,,662.401706917,662.4017347499998,662.4026239170003,910523,001,2024-07-01_17h05.52.248,5-26,2024.1.4,None,2024-07-01 17h05.58.806157 +0900,
Images/Speaker1.jpg,Images/Speaker2.jpg,Images/Speaker3.jpg,Images/Speaker4.jpg,Audio/Speaker1_En/P1-19-En.wav,Speaker1,گوینده ۱,,,,,,,,,1,26,106,18,662.4273000419994,,,,,,,,,,,,,,,,,,,,,,,,,,,,,,,,,,,,,,,,,,,,,662.4041404579998,662.4273000419994,662.4273000419994,662.4273000419994,662.4273000419994,662.4348886663329,662.4273000419994,662.4273000419994,663.965762542,Correct! صحیح است,1,1.5252055410001049,None,68,187,663.971484792,663.9808755419995,,665.9766533749994,665.976683333,665.9776209999995,910523,001,2024-07-01_17h05.52.248,5-26,2024.1.4,None,2024-07-01 17h05.58.806157 +0900,
Images/Speaker1.jpg,Images/Speaker2.jpg,Images/Speaker3.jpg,Images/Speaker4.jpg,Audio/Speaker2_En/P2-16-En.wav,Speaker2,گوینده۲,,,,,,,,,1,27,107,35,666.0022043329996,,,,,,,,,,,,,,,,,,,,,,,,,,,,,,,,,,,,,,,,,,,,,665.9791691249998,666.0022043329996,666.0022043329996,666.0022043329996,666.0022043329996,666.0097935003332,666.0022043329996,666.0022043329996,667.334336458,Correct! صحیح است,2,1.3237018330000865,None,68,188,667.3389023329996,667.3474402079996,669.3588682919994,669.3327313329996,669.3327541249996,669.3330732919999,910523,001,2024-07-01_17h05.52.248,5-26,2024.1.4,None,2024-07-01 17h05.58.806157 +0900,
Images/Speaker1.jpg,Images/Speaker2.jpg,Images/Speaker3.jpg,Images/Speaker4.jpg,Audio/Speaker3_En/P3-4-En.wav,Speaker3,گوینده۳,,,,,,,,,1,28,108,43,669.3588682919994,,,,,,,,,,,,,,,,,,,,,,,,,,,,,,,,,,,,,,,,,,,,,669.3343101670002,669.3588682919994,669.3588682919994,669.3588682919994,669.3588682919994,669.3650767503332,669.3588682919994,669.3588682919994,670.5051977919998,Correct! صحیح است,3,1.1410334579995833,None,68,189,670.5098618329998,670.5214457500001,672.5342126669998,672.5093564169997,672.5093917499994,672.5098350000003,910523,001,2024-07-01_17h05.52.248,5-26,2024.1.4,None,2024-07-01 17h05.58.806157 +0900,
Images/Speaker1.jpg,Images/Speaker2.jpg,Images/Speaker3.jpg,Images/Speaker4.jpg,Audio/Speaker2_En/P2-9-En.wav,Speaker2,گوینده۲,,,,,,,,,1,29,109,28,672.5342126669998,,,,,,,,,,,,,,,,,,,,,,,,,,,,,,,,,,,,,,,,,,,,,672.5113943749998,672.5342126669998,672.5342126669998,672.5342126669998,672.5342126669998,672.5417429583331,672.5342126669998,672.5342126669998,673.923638625,Correct! صحیح است,2,1.3822812919997887,None,68,190,673.9282608749995,673.939363,,675.9333436249995,675.9333833750002,675.9342586669995,910523,001,2024-07-01_17h05.52.248,5-26,2024.1.4,None,2024-07-01 17h05.58.806157 +0900,
Images/Speaker1.jpg,Images/Speaker2.jpg,Images/Speaker3.jpg,Images/Speaker4.jpg,Audio/Speaker1_En/P1-4-En.wav,Speaker1,گوینده ۱,,,,,,,,,1,30,110,13,675.9584298750001,,,,,,,,,,,,,,,,,,,,,,,,,,,,,,,,,,,,,,,,,,,,,675.9358865829995,675.9584298750001,675.9584298750001,675.9584298750001,675.9584298750001,675.966517916333,675.9584298750001,675.9584298750001,677.4063636670003,Correct! صحیح است,1,1.4435727079999197,None,68,191,677.4107745830001,677.4222107499995,679.4293251670001,679.4068422919995,679.4068499580003,679.4070131670001,910523,001,2024-07-01_17h05.52.248,5-26,2024.1.4,None,2024-07-01 17h05.58.806157 +0900,
Images/Speaker1.jpg,Images/Speaker2.jpg,Images/Speaker3.jpg,Images/Speaker4.jpg,Audio/Speaker4_En/P4-16-En.wav,Speaker4,گوینده۴,,,,,,,,,1,31,111,75,679.4293251670001,,,,,,,,,,,,,,,,,,,,,,,,,,,,,,,,,,,,,,,,,,,,,679.4074611250003,679.4293251670001,679.4293251670001,679.4293251670001,679.4293251670001,679.4232021666664,679.4293251670001,679.4293251670001,680.9262964579998,Correct! صحیح است,4,1.4876755830000548,None,68,192,680.9308248329994,680.9394051670001,,682.9332308329999,682.933239208,682.9334562079998,910523,001,2024-07-01_17h05.52.248,5-26,2024.1.4,None,2024-07-01 17h05.58.806157 +0900,
Images/Speaker1.jpg,Images/Speaker2.jpg,Images/Speaker3.jpg,Images/Speaker4.jpg,Audio/Speaker1_En/P1-15-En.wav,Speaker1,گوینده ۱,,,,,,,,,1,32,112,14,682.9560966249996,,,,,,,,,,,,,,,,,,,,,,,,,,,,,,,,,,,,,,,,,,,,,682.9338883750002,682.9560966249996,682.9560966249996,682.9560966249996,682.9560966249996,682.966524708333,682.9560966249996,682.9560966249996,684.2167037499999,Correct! صحیح است,1,1.2514875000006214,None,68,193,684.2211614169996,684.2295346670003,686.2389135419994,686.2157649169999,686.2157755000003,686.2159648330003,910523,001,2024-07-01_17h05.52.248,5-26,2024.1.4,None,2024-07-01 17h05.58.806157 +0900,
Images/Speaker1.jpg,Images/Speaker2.jpg,Images/Speaker3.jpg,Images/Speaker4.jpg,Audio/Speaker1_En/P1-2-En.wav,Speaker1,گوینده ۱,,,,,,,,,1,33,113,1,686.2389135419994,,,,,,,,,,,,,,,,,,,,,,,,,,,,,,,,,,,,,,,,,,,,,686.2164077080001,686.2389135419994,686.2389135419994,686.2389135419994,686.2389135419994,686.2488035003335,686.2389135419994,686.2389135419994,686.9426980419998,Correct! صحیح است,1,0.698194708000301,None,68,194,686.9474227079995,686.958186458,,688.9504068330002,688.950447875,688.9512098749997,910523,001,2024-07-01_17h05.52.248,5-26,2024.1.4,None,2024-07-01 17h05.58.806157 +0900,
Images/Speaker1.jpg,Images/Speaker2.jpg,Images/Speaker3.jpg,Images/Speaker4.jpg,Audio/Speaker2_En/P2-2-En.wav,Speaker2,گوینده۲,,,,,,,,,1,34,114,21,688.9762252079995,,,,,,,,,,,,,,,,,,,,,,,,,,,,,,,,,,,,,,,,,,,,,688.9527199999998,688.9762252079995,688.9762252079995,688.9762252079995,688.9762252079995,688.9835698753332,688.9762252079995,688.9762252079995,689.983489625,Correct! صحیح است,2,1.0027779169995483,None,68,195,689.98884125,690.00038275,692.0065466250003,691.9846631670002,691.9846707080001,691.9848228750002,910523,001,2024-07-01_17h05.52.248,5-26,2024.1.4,None,2024-07-01 17h05.58.806157 +0900,
Images/Speaker1.jpg,Images/Speaker2.jpg,Images/Speaker3.jpg,Images/Speaker4.jpg,Audio/Speaker2_En/P2-8-En.wav,Speaker2,گوینده۲,,,,,,,,,1,35,115,27,692.0065466250003,,,,,,,,,,,,,,,,,,,,,,,,,,,,,,,,,,,,,,,,,,,,,691.9852594999998,692.0065466250003,692.0065466250003,692.0065466250003,692.0065466250003,692.0010683336666,692.0065466250003,692.0065466250003,693.604144292,Correct! صحیح است,2,1.590553249999175,None,68,196,693.6084511670001,693.6201344579999,695.6295192080001,695.606978458,695.6069883750001,695.6072494579998,910523,001,2024-07-01_17h05.52.248,5-26,2024.1.4,None,2024-07-01 17h05.58.806157 +0900,
Images/Speaker1.jpg,Images/Speaker2.jpg,Images/Speaker3.jpg,Images/Speaker4.jpg,Audio/Speaker1_En/P1-18-En.wav,Speaker1,گوینده ۱,,,,,,,,,1,36,116,17,695.6295192080001,,,,,,,,,,,,,,,,,,,,,,,,,,,,,,,,,,,,,,,,,,,,,695.6076668749997,695.6295192080001,695.6295192080001,695.6295192080001,695.6295192080001,695.6233547916661,695.6295192080001,695.6295192080001,696.8476027080001,Correct! صحیح است,1,1.2115054999994754,None,68,197,696.8533369169995,696.865247917,698.8732888330001,698.8488994579998,698.848931,698.8492819170001,910523,001,2024-07-01_17h05.52.248,5-26,2024.1.4,None,2024-07-01 17h05.58.806157 +0900,
Images/Speaker1.jpg,Images/Speaker2.jpg,Images/Speaker3.jpg,Images/Speaker4.jpg,Audio/Speaker4_En/P4-15-En.wav,Speaker4,گوینده۴,,,,,,,,,1,37,117,74,698.8732888330001,,,,,,,,,,,,,,,,,,,,,,,,,,,,,,,,,,,,,,,,,,,,,698.8501295000001,698.8732888330001,698.8732888330001,698.8732888330001,698.8732888330001,698.8812918753329,698.8732888330001,698.8732888330001,700.5569132919995,Correct! صحیح است,4,1.6703514160008126,None,68,198,700.5615322079998,700.5701180000001,702.5869787919996,702.558604417,702.5586310829999,702.5590166669995,910523,001,2024-07-01_17h05.52.248,5-26,2024.1.4,None,2024-07-01 17h05.58.806157 +0900,
Images/Speaker1.jpg,Images/Speaker2.jpg,Images/Speaker3.jpg,Images/Speaker4.jpg,Audio/Speaker3_En/P3-13-En.wav,Speaker3,گوینده۳,,,,,,,,,1,38,118,52,702.5869787919996,,,,,,,,,,,,,,,,,,,,,,,,,,,,,,,,,,,,,,,,,,,,,702.5606246249995,702.5869787919996,702.5869787919996,702.5869787919996,702.5869787919996,702.5909959163328,702.5869787919996,702.5869787919996,704.5234110830002,Correct! صحیح است,3,1.9250325000002704,None,68,199,704.5277954580001,704.5395392919995,,706.5323442920003,706.5323561669998,706.532657833,910523,001,2024-07-01_17h05.52.248,5-26,2024.1.4,None,2024-07-01 17h05.58.806157 +0900,
Images/Speaker1.jpg,Images/Speaker2.jpg,Images/Speaker3.jpg,Images/Speaker4.jpg,Audio/Speaker2_En/P2-19-En.wav,Speaker2,گوینده۲,,,,,,,,,1,39,119,38,706.5555441669999,,,,,,,,,,,,,,,,,,,,,,,,,,,,,,,,,,,,,,,,,,,,,706.5330909170002,706.5555441669999,706.5555441669999,706.5555441669999,706.5555441669999,706.5656211663336,706.5555441669999,706.5555441669999,708.4229005419998,Correct! صحیح است,2,1.8649543749997974,None,68,200,708.4272006669994,708.4385703749999,710.4477472499998,710.4241782919994,710.424204292,710.4244772919997,910523,001,2024-07-01_17h05.52.248,5-26,2024.1.4,None,2024-07-01 17h05.58.806157 +0900,
Images/Speaker1.jpg,Images/Speaker2.jpg,Images/Speaker3.jpg,Images/Speaker4.jpg,Audio/Speaker3_En/P3-10-En.wav,Speaker3,گوینده۳,,,,,,,,,1,40,120,49,710.4477472499998,,,,,,,,,,,,,,,,,,,,,,,,,,,,,,,,,,,,,,,,,,,,,710.4249018329997,710.4477472499998,710.4477472499998,710.4477472499998,710.4477472499998,710.4570940413332,710.4477472499998,710.4477472499998,712.3363542499997,Correct! صحیح است,3,1.8861173750001399,None,68,201,712.3406440829999,712.3527226249994,,714.3407043749999,714.3407153329995,714.3409387079996,910523,001,2024-07-01_17h05.52.248,5-26,2024.1.4,None,2024-07-01 17h05.58.806157 +0900,
Images/Speaker1.jpg,Images/Speaker2.jpg,Images/Speaker3.jpg,Images/Speaker4.jpg,Audio/Speaker2_En/P2-10-En.wav,Speaker2,گوینده۲,,,,,,,,,1,41,121,29,714.3630013750003,,,,,,,,,,,,,,,,,,,,,,,,,,,,,,,,,,,,,,,,,,,,,714.3413689579997,714.3630013750003,714.3630013750003,714.3630013750003,714.3630013750003,714.3573087086668,714.3630013750003,714.3630013750003,715.5814406249997,Correct! صحیح است,2,1.2110323750002863,None,68,202,715.5856640830002,715.5969689580002,,717.586947667,717.586959625,717.587149208,910523,001,2024-07-01_17h05.52.248,5-26,2024.1.4,None,2024-07-01 17h05.58.806157 +0900,
Images/Speaker1.jpg,Images/Speaker2.jpg,Images/Speaker3.jpg,Images/Speaker4.jpg,Audio/Speaker1_En/P1-12-En.wav,Speaker1,گوینده ۱,,,,,,,,,1,42,122,11,717.6099654169998,,,,,,,,,,,,,,,,,,,,,,,,,,,,,,,,,,,,,,,,,,,,,717.5875680419999,717.6099654169998,717.6099654169998,717.6099654169998,717.6099654169998,717.6035719996669,717.6099654169998,717.6099654169998,718.8048986250001,Correct! صحیح است,1,1.1906051669993758,None,68,203,718.8106572499996,718.823259792,,720.8139257919997,720.813958917,720.8147271249995,910523,001,2024-07-01_17h05.52.248,5-26,2024.1.4,None,2024-07-01 17h05.58.806157 +0900,
Images/Speaker1.jpg,Images/Speaker2.jpg,Images/Speaker3.jpg,Images/Speaker4.jpg,Audio/Speaker4_En/P4-17-En.wav,Speaker4,گوینده۴,,,,,,,,,1,43,123,76,720.8416964169996,,,,,,,,,,,,,,,,,,,,,,,,,,,,,,,,,,,,,,,,,,,,,720.8162790829997,720.8416964169996,720.8416964169996,720.8416964169996,720.8416964169996,720.8471141253331,720.8416964169996,720.8416964169996,722.5061750829996,Correct! صحیح است,4,1.6556802499999321,None,68,204,722.5106982080001,722.5221403749997,,724.5151006669998,724.5151263329994,724.5159692080001,910523,001,2024-07-01_17h05.52.248,5-26,2024.1.4,None,2024-07-01 17h05.58.806157 +0900,
Images/Speaker1.jpg,Images/Speaker2.jpg,Images/Speaker3.jpg,Images/Speaker4.jpg,Audio/Speaker3_En/P3-6-En.wav,Speaker3,گوینده۳,,,,,,,,,1,44,124,45,724.5406255419998,,,,,,,,,,,,,,,,,,,,,,,,,,,,,,,,,,,,,,,,,,,,,724.5172519169996,724.5406255419998,724.5406255419998,724.5406255419998,724.5406255419998,724.5482557503328,724.5406255419998,724.5406255419998,727.5968774580001,Correct! صحیح است,3,3.0449407500000234,None,68,205,727.6014072920002,727.610056,729.6212904580002,729.5985101669999,729.5985180829998,729.5986829580002,910523,001,2024-07-01_17h05.52.248,5-26,2024.1.4,None,2024-07-01 17h05.58.806157 +0900,
Images/Speaker1.jpg,Images/Speaker2.jpg,Images/Speaker3.jpg,Images/Speaker4.jpg,Audio/Speaker4_En/P4-3-En.wav,Speaker4,گوینده۴,,,,,,,,,1,45,125,62,729.6212904580002,,,,,,,,,,,,,,,,,,,,,,,,,,,,,,,,,,,,,,,,,,,,,729.5991278329998,729.6212904580002,729.6212904580002,729.6212904580002,729.6212904580002,729.6148844996667,729.6212904580002,729.6212904580002,731.948868,Correct! صحیح است,4,2.3150095000000874,None,68,206,731.9549853329995,731.9668984579998,,733.9568256669995,733.9568629999999,733.9575839169997,910523,001,2024-07-01_17h05.52.248,5-26,2024.1.4,None,2024-07-01 17h05.58.806157 +0900,
Images/Speaker1.jpg,Images/Speaker2.jpg,Images/Speaker3.jpg,Images/Speaker4.jpg,Audio/Speaker2_En/P2-7-En.wav,Speaker2,گوینده۲,,,,,,,,,1,46,126,26,733.9812516249999,,,,,,,,,,,,,,,,,,,,,,,,,,,,,,,,,,,,,,,,,,,,,733.9587280829996,733.9812516249999,733.9812516249999,733.9812516249999,733.9812516249999,733.9899772083336,733.9812516249999,733.9812516249999,735.1537670000002,Correct! صحیح است,2,1.1686253750003743,None,68,207,735.1595170420001,735.1718097500002,737.1831498750003,737.1593136249999,737.1593482080002,737.1597969170002,910523,001,2024-07-01_17h05.52.248,5-26,2024.1.4,None,2024-07-01 17h05.58.806157 +0900,
Images/Speaker1.jpg,Images/Speaker2.jpg,Images/Speaker3.jpg,Images/Speaker4.jpg,Audio/Speaker1_En/P1-4-En.wav,Speaker1,گوینده ۱,,,,,,,,,1,47,127,3,737.1831498750003,,,,,,,,,,,,,,,,,,,,,,,,,,,,,,,,,,,,,,,,,,,,,737.1612734169998,737.1831498750003,737.1831498750003,737.1831498750003,737.1831498750003,737.1916541253331,737.1831498750003,737.1831498750003,738.4278967919995,Correct! صحیح است,1,1.2412849590000405,None,68,208,738.4319967919996,738.4428284579994,740.4556205829999,740.4319502080002,740.4319615419995,740.4321338750001,910523,001,2024-07-01_17h05.52.248,5-26,2024.1.4,None,2024-07-01 17h05.58.806157 +0900,
Images/Speaker1.jpg,Images/Speaker2.jpg,Images/Speaker3.jpg,Images/Speaker4.jpg,Audio/Speaker4_En/P4-9-En.wav,Speaker4,گوینده۴,,,,,,,,,1,48,128,68,740.4556205829999,,,,,,,,,,,,,,,,,,,,,,,,,,,,,,,,,,,,,,,,,,,,,740.4325750000003,740.4556205829999,740.4556205829999,740.4556205829999,740.4556205829999,740.4650387083329,740.4556205829999,740.4556205829999,742.4649968749995,Correct! صحیح است,4,2.0037432919998537,None,68,209,742.4692315830002,742.480648917,744.4933955829997,744.4686772919999,744.4687276669997,744.4692386249994,910523,001,2024-07-01_17h05.52.248,5-26,2024.1.4,None,2024-07-01 17h05.58.806157 +0900,
Images/Speaker1.jpg,Images/Speaker2.jpg,Images/Speaker3.jpg,Images/Speaker4.jpg,Audio/Speaker2_En/P2-20-En.wav,Speaker2,گوینده۲,,,,,,,,,1,49,129,39,744.4933955829997,,,,,,,,,,,,,,,,,,,,,,,,,,,,,,,,,,,,,,,,,,,,,744.4707871670003,744.4933955829997,744.4933955829997,744.4933955829997,744.4933955829997,744.5009817503333,744.4933955829997,744.4933955829997,745.878887542,Correct! صحیح است,2,1.3788334999999279,None,68,210,745.8836157499995,745.8925564169999,747.9063148749997,747.882930833,747.8829395830003,747.8831212079999,910523,001,2024-07-01_17h05.52.248,5-26,2024.1.4,None,2024-07-01 17h05.58.806157 +0900,
Images/Speaker1.jpg,Images/Speaker2.jpg,Images/Speaker3.jpg,Images/Speaker4.jpg,Audio/Speaker2_En/P2-11-En.wav,Speaker2,گوینده۲,,,,,,,,,1,50,130,30,747.9063148749997,,,,,,,,,,,,,,,,,,,,,,,,,,,,,,,,,,,,,,,,,,,,,747.8835536249994,747.9063148749997,747.9063148749997,747.9063148749997,747.9063148749997,747.9159914583333,747.9063148749997,747.9063148749997,749.2147206670002,Correct! صحیح است,2,1.3052510420002363,None,68,211,749.2189305830002,749.2311179169997,751.2395230420002,751.2161205420002,751.2161298750002,751.2163295830001,910523,001,2024-07-01_17h05.52.248,5-26,2024.1.4,None,2024-07-01 17h05.58.806157 +0900,
Images/Speaker1.jpg,Images/Speaker2.jpg,Images/Speaker3.jpg,Images/Speaker4.jpg,Audio/Speaker4_En/P4-19-En.wav,Speaker4,گوینده۴,,,,,,,,,1,51,131,78,751.2395230420002,,,,,,,,,,,,,,,,,,,,,,,,,,,,,,,,,,,,,,,,,,,,,751.2167729999996,751.2395230420002,751.2395230420002,751.2395230420002,751.2395230420002,751.2491104583332,751.2395230420002,751.2395230420002,753.453060458,Correct! صحیح است,4,2.2124377500003902,None,68,212,753.4574453749997,753.4688561669996,755.4806689579996,755.4570641249998,755.4570732500001,755.4572471249999,910523,001,2024-07-01_17h05.52.248,5-26,2024.1.4,None,2024-07-01 17h05.58.806157 +0900,
Images/Speaker1.jpg,Images/Speaker2.jpg,Images/Speaker3.jpg,Images/Speaker4.jpg,Audio/Speaker2_En/P2-14-En.wav,Speaker2,گوینده۲,,,,,,,,,1,52,132,33,755.4806689579996,,,,,,,,,,,,,,,,,,,,,,,,,,,,,,,,,,,,,,,,,,,,,755.457692167,755.4806689579996,755.4806689579996,755.4806689579996,755.4806689579996,755.490078875333,755.4806689579996,755.4806689579996,756.8566113749998,Correct! صحیح است,2,1.3724097500007701,None,68,213,756.8611565830001,756.8726012080001,758.8799028749995,758.8569450829996,758.8569537919998,758.857118292,910523,001,2024-07-01_17h05.52.248,5-26,2024.1.4,None,2024-07-01 17h05.58.806157 +0900,
Images/Speaker1.jpg,Images/Speaker2.jpg,Images/Speaker3.jpg,Images/Speaker4.jpg,Audio/Speaker1_En/P1-20-En.wav,Speaker1,گوینده ۱,,,,,,,,,1,53,133,19,758.8799028749995,,,,,,,,,,,,,,,,,,,,,,,,,,,,,,,,,,,,,,,,,,,,,758.857574917,758.8799028749995,758.8799028749995,758.8799028749995,758.8799028749995,758.8900105833327,758.8799028749995,758.8799028749995,760.1016466670003,Correct! صحیح است,1,1.2172782920006284,None,68,214,760.1058957499995,760.1171213329994,762.1250722499994,762.1011423329996,762.1011511249994,762.101339667,910523,001,2024-07-01_17h05.52.248,5-26,2024.1.4,None,2024-07-01 17h05.58.806157 +0900,
Images/Speaker1.jpg,Images/Speaker2.jpg,Images/Speaker3.jpg,Images/Speaker4.jpg,Audio/Speaker3_En/P3-15-En.wav,Speaker3,گوینده۳,,,,,,,,,1,54,134,54,762.1250722499994,,,,,,,,,,,,,,,,,,,,,,,,,,,,,,,,,,,,,,,,,,,,,762.1017442079997,762.1250722499994,762.1250722499994,762.1250722499994,762.1250722499994,762.1342091663328,762.1250722499994,762.1250722499994,763.7151586249997,Correct! صحیح است,3,1.5890004580005552,None,68,215,763.7209457499998,763.7333625830001,765.7416307500002,765.7172310419996,765.7172390000001,765.7174149580001,910523,001,2024-07-01_17h05.52.248,5-26,2024.1.4,None,2024-07-01 17h05.58.806157 +0900,
Images/Speaker1.jpg,Images/Speaker2.jpg,Images/Speaker3.jpg,Images/Speaker4.jpg,Audio/Speaker4_En/P4-4-En.wav,Speaker4,گوینده۴,,,,,,,,,1,55,135,63,765.7416307500002,,,,,,,,,,,,,,,,,,,,,,,,,,,,,,,,,,,,,,,,,,,,,765.7178491669997,765.7416307500002,765.7416307500002,765.7416307500002,765.7416307500002,765.7503514163327,765.7416307500002,765.7416307500002,767.0980100829997,Correct! صحیح است,4,1.3535172499996406,None,68,216,767.1022267920002,767.1144351669996,769.1221680829999,769.0983332499995,769.0983409579999,769.0985059170002,910523,001,2024-07-01_17h05.52.248,5-26,2024.1.4,None,2024-07-01 17h05.58.806157 +0900,
Images/Speaker1.jpg,Images/Speaker2.jpg,Images/Speaker3.jpg,Images/Speaker4.jpg,Audio/Speaker3_En/P3-1-En.wav,Speaker3,گوینده۳,,,,,,,,,1,56,136,40,769.1221680829999,,,,,,,,,,,,,,,,,,,,,,,,,,,,,,,,,,,,,,,,,,,,,769.0989278749998,769.1221680829999,769.1221680829999,769.1221680829999,769.1221680829999,769.1313647083334,769.1221680829999,769.1221680829999,770.7832746250001,Correct! صحیح است,3,1.6522393750001356,None,68,217,770.7875395830001,770.7991954169997,772.8087789169999,772.7851527500002,772.7851616249995,772.7853544579998,910523,001,2024-07-01_17h05.52.248,5-26,2024.1.4,None,2024-07-01 17h05.58.806157 +0900,
Images/Speaker1.jpg,Images/Speaker2.jpg,Images/Speaker3.jpg,Images/Speaker4.jpg,Audio/Speaker1_En/P1-7-En.wav,Speaker1,گوینده ۱,,,,,,,,,1,57,137,6,772.8087789169999,,,,,,,,,,,,,,,,,,,,,,,,,,,,,,,,,,,,,,,,,,,,,772.7857878330001,772.8087789169999,772.8087789169999,772.8087789169999,772.8087789169999,772.8182266253334,772.8087789169999,772.8087789169999,774.2809934169995,Correct! صحیح است,1,1.4650251250004658,None,68,218,774.2856323330002,774.2968233750003,,776.2891839580002,776.2892190420002,776.2899202080002,910523,001,2024-07-01_17h05.52.248,5-26,2024.1.4,None,2024-07-01 17h05.58.806157 +0900,
Images/Speaker1.jpg,Images/Speaker2.jpg,Images/Speaker3.jpg,Images/Speaker4.jpg,Audio/Speaker3_En/P3-11-En.wav,Speaker3,گوینده۳,,,,,,,,,1,58,138,50,776.3147739999999,,,,,,,,,,,,,,,,,,,,,,,,,,,,,,,,,,,,,,,,,,,,,776.2912716670003,776.3147739999999,776.3147739999999,776.3147739999999,776.3147739999999,776.322376166333,776.3147739999999,776.3147739999999,778.5602289579997,Correct! صحیح است,3,2.243446542000129,None,68,219,778.5647252499998,778.5761511249998,,780.56748475,780.5675103749995,780.568405083,910523,001,2024-07-01_17h05.52.248,5-26,2024.1.4,None,2024-07-01 17h05.58.806157 +0900,
Images/Speaker1.jpg,Images/Speaker2.jpg,Images/Speaker3.jpg,Images/Speaker4.jpg,Audio/Speaker4_En/P4-13-En.wav,Speaker4,گوینده۴,,,,,,,,,1,59,139,72,780.5952857079997,,,,,,,,,,,,,,,,,,,,,,,,,,,,,,,,,,,,,,,,,,,,,780.570007625,780.5952857079997,780.5952857079997,780.5952857079997,780.5952857079997,780.6006304583334,780.5952857079997,780.5952857079997,782.1735168749997,Correct! صحیح است,4,1.5670469169999706,None,68,220,782.1793541249995,782.1910682920002,,784.1822457080002,784.1822735829996,784.1830894580003,910523,001,2024-07-01_17h05.52.248,5-26,2024.1.4,None,2024-07-01 17h05.58.806157 +0900,
Images/Speaker1.jpg,Images/Speaker2.jpg,Images/Speaker3.jpg,Images/Speaker4.jpg,Audio/Speaker4_En/P4-7-En.wav,Speaker4,گوینده۴,,,,,,,,,1,60,140,66,784.2075437079998,,,,,,,,,,,,,,,,,,,,,,,,,,,,,,,,,,,,,,,,,,,,,784.1843284579995,784.2075437079998,784.2075437079998,784.2075437079998,784.2075437079998,784.215370791333,784.2075437079998,784.2075437079998,785.422167958,Correct! صحیح است,4,1.2095139579996612,None,68,221,785.426348083,785.4378514999994,787.4449352079996,787.421098458,787.4211075829994,787.4212844999997,910523,001,2024-07-01_17h05.52.248,5-26,2024.1.4,None,2024-07-01 17h05.58.806157 +0900,
Images/Speaker1.jpg,Images/Speaker2.jpg,Images/Speaker3.jpg,Images/Speaker4.jpg,Audio/Speaker3_En/P3-7-En.wav,Speaker3,گوینده۳,,,,,,,,,1,61,141,46,787.4449352079996,,,,,,,,,,,,,,,,,,,,,,,,,,,,,,,,,,,,,,,,,,,,,787.4216998329998,787.4449352079996,787.4449352079996,787.4449352079996,787.4449352079996,787.4541425413336,787.4449352079996,787.4449352079996,788.907016875,Incorrect! The correct answer is Speaker3. نادرست! پاسخ صحیح گوینده۳ است,4,1.4524054169996816,None,68,222,788.9113160000002,788.9240244580001,790.9328840829999,790.9097189999998,790.9097279169996,790.909922667,910523,001,2024-07-01_17h05.52.248,5-26,2024.1.4,None,2024-07-01 17h05.58.806157 +0900,
Images/Speaker1.jpg,Images/Speaker2.jpg,Images/Speaker3.jpg,Images/Speaker4.jpg,Audio/Speaker3_En/P3-8-En.wav,Speaker3,گوینده۳,,,,,,,,,1,62,142,47,790.9328840829999,,,,,,,,,,,,,,,,,,,,,,,,,,,,,,,,,,,,,,,,,,,,,790.9103667079994,790.9328840829999,790.9328840829999,790.9328840829999,790.9328840829999,790.9427704163336,790.9328840829999,790.9328840829999,793.0251589169998,Correct! صحیح است,3,2.0839268749996336,None,68,223,793.0294896250002,793.0386820419994,795.0500627079996,795.0249013749994,795.024928542,795.0254316249998,910523,001,2024-07-01_17h05.52.248,5-26,2024.1.4,None,2024-07-01 17h05.58.806157 +0900,
Images/Speaker1.jpg,Images/Speaker2.jpg,Images/Speaker3.jpg,Images/Speaker4.jpg,Audio/Speaker2_En/P2-6-En.wav,Speaker2,گوینده۲,,,,,,,,,1,63,143,25,795.0500627079996,,,,,,,,,,,,,,,,,,,,,,,,,,,,,,,,,,,,,,,,,,,,,795.0266347499996,795.0500627079996,795.0500627079996,795.0500627079996,795.0500627079996,795.0572675833328,795.0500627079996,795.0500627079996,796.2276744169999,Correct! صحیح است,2,1.1746284170003491,None,68,224,796.2319767080003,796.2429197079996,,798.2332860419997,798.233324667,798.2342698329999,910523,001,2024-07-01_17h05.52.248,5-26,2024.1.4,None,2024-07-01 17h05.58.806157 +0900,
Images/Speaker1.jpg,Images/Speaker2.jpg,Images/Speaker3.jpg,Images/Speaker4.jpg,Audio/Speaker4_En/P4-5-En.wav,Speaker4,گوینده۴,,,,,,,,,1,64,144,64,798.2595562499996,,,,,,,,,,,,,,,,,,,,,,,,,,,,,,,,,,,,,,,,,,,,,798.2358936249998,798.2595562499996,798.2595562499996,798.2595562499996,798.2595562499996,798.2664654583332,798.2595562499996,798.2595562499996,800.9330090829994,Correct! صحیح است,4,2.6638560419996793,None,68,225,800.9387800829995,800.9503771249997,,802.9391604580001,802.9391687499997,802.9393607079996,910523,001,2024-07-01_17h05.52.248,5-26,2024.1.4,None,2024-07-01 17h05.58.806157 +0900,
Images/Speaker1.jpg,Images/Speaker2.jpg,Images/Speaker3.jpg,Images/Speaker4.jpg,Audio/Speaker1_En/P1-10-En.wav,Speaker1,گوینده ۱,,,,,,,,,1,65,145,9,802.9621689579994,,,,,,,,,,,,,,,,,,,,,,,,,,,,,,,,,,,,,,,,,,,,,802.9397992919999,802.9621689579994,802.9621689579994,802.9621689579994,802.9621689579994,802.9557859996664,802.9621689579994,802.9621689579994,804.3067040419996,Correct! صحیح است,1,1.3396019579995482,None,68,226,804.3110920419999,804.322984375,,806.3166744579999,806.3167062919997,806.3174775829998,910523,001,2024-07-01_17h05.52.248,5-26,2024.1.4,None,2024-07-01 17h05.58.806157 +0900,
Images/Speaker1.jpg,Images/Speaker2.jpg,Images/Speaker3.jpg,Images/Speaker4.jpg,Audio/Speaker2_En/P2-1-En.wav,Speaker2,گوینده۲,,,,,,,,,1,66,146,20,806.3427580829998,,,,,,,,,,,,,,,,,,,,,,,,,,,,,,,,,,,,,,,,,,,,,806.3190414999995,806.3427580829998,806.3427580829998,806.3427580829998,806.3427580829998,806.3498228753333,806.3427580829998,806.3427580829998,807.6221189579996,Correct! صحیح است,2,1.2710445829998207,None,68,227,807.6267647919999,807.635442542,809.6461869170003,809.6236006670001,809.6236231669996,809.6238170000001,910523,001,2024-07-01_17h05.52.248,5-26,2024.1.4,None,2024-07-01 17h05.58.806157 +0900,
Images/Speaker1.jpg,Images/Speaker2.jpg,Images/Speaker3.jpg,Images/Speaker4.jpg,Audio/Speaker1_En/P1-3-En.wav,Speaker1,گوینده ۱,,,,,,,,,1,67,147,2,809.6461869170003,,,,,,,,,,,,,,,,,,,,,,,,,,,,,,,,,,,,,,,,,,,,,809.6242686250002,809.6461869170003,809.6461869170003,809.6461869170003,809.6461869170003,809.6400320836663,809.6461869170003,809.6461869170003,811.3444273330001,Correct! صحیح است,1,1.6958573750007417,None,68,228,811.3486086669996,811.3601100829997,,813.3571555829999,813.3571674580003,813.3573802079995,910523,001,2024-07-01_17h05.52.248,5-26,2024.1.4,None,2024-07-01 17h05.58.806157 +0900,
Images/Speaker1.jpg,Images/Speaker2.jpg,Images/Speaker3.jpg,Images/Speaker4.jpg,Audio/Speaker4_En/P4-12-En.wav,Speaker4,گوینده۴,,,,,,,,,1,68,148,71,813.3803860419998,,,,,,,,,,,,,,,,,,,,,,,,,,,,,,,,,,,,,,,,,,,,,813.3577965829995,813.3803860419998,813.3803860419998,813.3803860419998,813.3803860419998,813.3904530003329,813.3803860419998,813.3803860419998,814.9058728750001,Correct! صحیح است,4,1.5193820000004052,None,68,229,814.910228708,814.9213207500002,816.9354494579998,816.9085042920001,816.9085301250002,816.9089101670002,910523,001,2024-07-01_17h05.52.248,5-26,2024.1.4,None,2024-07-01 17h05.58.806157 +0900,
Images/Speaker1.jpg,Images/Speaker2.jpg,Images/Speaker3.jpg,Images/Speaker4.jpg,Audio/Speaker4_En/P4-14-En.wav,Speaker4,گوینده۴,,,,,,,,,1,69,149,73,816.9354494579998,,,,,,,,,,,,,,,,,,,,,,,,,,,,,,,,,,,,,,,,,,,,,816.9103686670001,816.9354494579998,816.9354494579998,816.9354494579998,816.9354494579998,816.9408265003331,816.9354494579998,816.9354494579998,818.3618813329999,Correct! صحیح است,4,1.4214305420000528,None,68,230,818.3664991250002,818.377901583,820.3897280420001,820.3662615419994,820.3662941669995,820.3666530830001,910523,001,2024-07-01_17h05.52.248,5-26,2024.1.4,None,2024-07-01 17h05.58.806157 +0900,
Images/Speaker1.jpg,Images/Speaker2.jpg,Images/Speaker3.jpg,Images/Speaker4.jpg,Audio/Speaker1_En/P1-17-En.wav,Speaker1,گوینده ۱,,,,,,,,,1,70,150,16,820.3897280420001,,,,,,,,,,,,,,,,,,,,,,,,,,,,,,,,,,,,,,,,,,,,,820.3680467079998,820.3897280420001,820.3897280420001,820.3897280420001,820.3897280420001,820.3984958753335,820.3897280420001,820.3897280420001,821.5978167079998,Correct! صحیح است,1,1.2051369999999224,None,68,231,821.602153417,821.6142059170002,823.6203729579997,823.5983329169999,823.5983420830003,823.5985326249997,910523,001,2024-07-01_17h05.52.248,5-26,2024.1.4,None,2024-07-01 17h05.58.806157 +0900,
Images/Speaker1.jpg,Images/Speaker2.jpg,Images/Speaker3.jpg,Images/Speaker4.jpg,Audio/Speaker1_En/P1-16-En.wav,Speaker1,گوینده ۱,,,,,,,,,1,71,151,15,823.6203729579997,,,,,,,,,,,,,,,,,,,,,,,,,,,,,,,,,,,,,,,,,,,,,823.5989734999998,823.6203729579997,823.6203729579997,823.6203729579997,823.6203729579997,823.6147062496664,823.6203729579997,823.6203729579997,826.0574972499994,Correct! صحیح است,1,2.429825749999509,None,68,232,826.063494167,826.0756336250001,,828.0680863749999,828.0681106249999,828.0691162919998,910523,001,2024-07-01_17h05.52.248,5-26,2024.1.4,None,2024-07-01 17h05.58.806157 +0900,
Images/Speaker1.jpg,Images/Speaker2.jpg,Images/Speaker3.jpg,Images/Speaker4.jpg,Audio/Speaker1_En/P1-6-En.wav,Speaker1,گوینده ۱,,,,,,,,,1,72,152,5,828.0936473750003,,,,,,,,,,,,,,,,,,,,,,,,,,,,,,,,,,,,,,,,,,,,,828.0704954580001,828.0936473750003,828.0936473750003,828.0936473750003,828.0936473750003,828.1012520833328,828.0936473750003,828.0936473750003,829.4813772499997,Correct! صحیح است,1,1.383807333999357,None,68,233,829.4855941669998,829.496964167,831.5051652079997,831.4816334169996,831.4816415829996,831.4818059169997,910523,001,2024-07-01_17h05.52.248,5-26,2024.1.4,None,2024-07-01 17h05.58.806157 +0900,
