SpeakerImage1,SpeakerImage2,SpeakerImage3,SpeakerImage4,TrainingSound,EnglishCorrectAnswer,PersianCorrectAnswer,TrainingLoopGroup1.thisRepN,TrainingLoopGroup1.thisTrialN,TrainingLoopGroup1.thisN,TrainingLoopGroup1.thisIndex,TrainingLoopGroup2.thisRepN,TrainingLoopGroup2.thisTrialN,TrainingLoopGroup2.thisN,TrainingLoopGroup2.thisIndex,TrainingLoopGroup3.thisRepN,TrainingLoopGroup3.thisTrialN,TrainingLoopGroup3.thisN,TrainingLoopGroup3.thisIndex,thisRow.t,notes,trial.started,trial.stopped,GroupSelection.started,GroupInstructions.started,key_resp.started,GroupSelection.stopped,key_resp.keys,key_resp.rt,key_resp.duration,Introduction.started,text_2.started,image.started,sound_7.started,text_4.started,text_2.stopped,sound_8.started,image.stopped,text_4.stopped,image_7.started,sound_9.started,text_5.started,sound_10.started,image_7.stopped,text_5.stopped,image_8.started,sound_11.started,text_6.started,sound_12.started,image_8.stopped,text_6.stopped,image_9.started,sound_13.started,text_7.started,sound_14.started,image_9.stopped,text_7.stopped,Introduction.stopped,Instructions.started,InstructionText.started,InstructionText.stopped,Instructions.stopped,InitializeExperiment.started,InitializeExperiment.stopped,TrainingGroup3.started,SpeakerPicture3.started,image_15.started,image_16.started,image_17.started,Sound3.started,Instruction3.started,Response3.started,TrainingGroup3.stopped,feedbackText,Response3.keys,Response3.rt,Response3.duration,correct_responses,total_trials,FeedbackRoutine3.started,FeedbackText3.started,FeedbackRoutine3.stopped,FeedbackText3.stopped,TransitionRoutine.started,participant,session,date,expName,psychopyVersion,frameRate,expStart,
,,,,,,,,,,,,,,,,,,,,,0.011053124999307329,0.016276667000056477,,,,,,,,,,,,,,,,,,,,,,,,,,,,,,,,,,,,,,,,,,,,,,,,,,,,,,,,,,,,,,939355,001,2024-06-30_13h37.20.286,5-22,2024.1.4,None,2024-06-30 13h37.25.801008 +0900,
,,,,,,,,,,,,,,,,,,,,,,,0.01629141699959291,0.020840084000155912,0.020840084000155912,2.982927375000145,3,2.9255724169997848,None,,,,,,,,,,,,,,,,,,,,,,,,,,,,,,,,,,,,,,,,,,,,,,,,,,,,,,,939355,001,2024-06-30_13h37.20.286,5-22,2024.1.4,None,2024-06-30 13h37.25.801008 +0900,
,,,,,,,,,,,,,,,,,,,,,,,,,,,,,,2.9829592919995775,3.0507328339990636,7.985199167000246,7.9916552086672406,7.985199167000246,8.044887959000334,12.993525041665878,17.977881000000707,17.977881000000707,17.977881000000707,17.98904420866735,17.977881000000707,22.99209987566634,27.970481541999106,27.970481541999106,27.970481541999106,27.98206925066576,27.970481541999106,32.98432245866594,37.963145624999015,37.963145624999015,37.98330562499905,37.99237429166739,37.98330562499905,42.985083583666224,47.982651833999626,47.982651833999626,47.972712083999795,,,,,,,,,,,,,,,,,,,,,,,,,,,939355,001,2024-06-30_13h37.20.286,5-22,2024.1.4,None,2024-06-30 13h37.25.801008 +0900,
,,,,,,,,,,,,,,,,,,,,,,,,,,,,,,,,,,,,,,,,,,,,,,,,,,,,,,,,,,47.9727305840006,47.982651833999626,49.047647499999584,48.96563520900054,,,,,,,,,,,,,,,,,,,,,,,939355,001,2024-06-30_13h37.20.286,5-22,2024.1.4,None,2024-06-30 13h37.25.801008 +0900,
,,,,,,,,,,,,,,,,,,,,,,,,,,,,,,,,,,,,,,,,,,,,,,,,,,,,,,,,,,,,,,48.96565270899919,48.96582941700035,,,,,,,,,,,,,,,,,,,,,939355,001,2024-06-30_13h37.20.286,5-22,2024.1.4,None,2024-06-30 13h37.25.801008 +0900,
Images/Speaker1.jpg,Images/Speaker2.jpg,Images/Speaker3.jpg,Images/Speaker4.jpg,Audio/Speaker3_En/P3-15-En.wav,Speaker3,گوینده۳,,,,,,,,,0,0,0,54,49.047647499999584,,,,,,,,,,,,,,,,,,,,,,,,,,,,,,,,,,,,,,,,,,,,,49.02084987499984,49.047647499999584,49.047647499999584,49.047647499999584,49.047647499999584,49.048768000332835,49.047647499999584,49.047647499999584,50.79008774999966,Incorrect! The correct answer is Speaker3. نادرست! پاسخ صحیح گوینده۳ است,1,1.732408416000908,None,0,1,50.7944719169991,50.807881000000634,52.79975291700066,,,939355,001,2024-06-30_13h37.20.286,5-22,2024.1.4,None,2024-06-30 13h37.25.801008 +0900,
Images/Speaker1.jpg,Images/Speaker2.jpg,Images/Speaker3.jpg,Images/Speaker4.jpg,Audio/Speaker3_En/P3-4-En.wav,Speaker3,گوینده۳,,,,,,,,,0,1,1,43,52.827332417000434,,,,,,,,,,,,,,,,,,,,,,,,,,,,,,,,,,,,,,,,,,,,,52.80047054199895,52.827332417000434,52.827332417000434,52.827332417000434,52.827332417000434,52.83293308333353,52.827332417000434,52.827332417000434,54.0049444590004,Incorrect! The correct answer is Speaker3. نادرست! پاسخ صحیح گوینده۳ است,1,1.1643252499998198,None,0,2,54.009019334000186,54.01945716699993,56.00492441700044,56.028352334000374,,939355,001,2024-06-30_13h37.20.286,5-22,2024.1.4,None,2024-06-30 13h37.25.801008 +0900,
Images/Speaker1.jpg,Images/Speaker2.jpg,Images/Speaker3.jpg,Images/Speaker4.jpg,Audio/Speaker2_En/P2-9-En.wav,Speaker2,گوینده۲,,,,,,,,,0,2,2,28,56.028352334000374,,,,,,,,,,,,,,,,,,,,,,,,,,,,,,,,,,,,,,,,,,,,,56.00511600000027,56.028352334000374,56.028352334000374,56.028352334000374,56.028352334000374,56.03804020833243,56.028352334000374,56.028352334000374,57.040982209000504,Incorrect! The correct answer is Speaker2. نادرست! پاسخ صحیح گوینده۲ است,1,1.011345832999723,None,0,3,57.04498020900064,57.05807499999901,59.050412167000104,,,939355,001,2024-06-30_13h37.20.286,5-22,2024.1.4,None,2024-06-30 13h37.25.801008 +0900,
Images/Speaker1.jpg,Images/Speaker2.jpg,Images/Speaker3.jpg,Images/Speaker4.jpg,Audio/Speaker4_En/P4-20-En.wav,Speaker4,گوینده۴,,,,,,,,,0,3,3,79,59.07532704199912,,,,,,,,,,,,,,,,,,,,,,,,,,,,,,,,,,,,,,,,,,,,,59.051066624999294,59.07532704199912,59.07532704199912,59.07532704199912,59.07532704199912,59.083605708332954,59.07532704199912,59.07532704199912,59.24491770900022,Incorrect! The correct answer is Speaker4. نادرست! پاسخ صحیح گوینده۴ است,1,0.1660498750006809,None,0,4,59.24868283400065,59.261530792000485,61.25052933400002,,,939355,001,2024-06-30_13h37.20.286,5-22,2024.1.4,None,2024-06-30 13h37.25.801008 +0900,
Images/Speaker1.jpg,Images/Speaker2.jpg,Images/Speaker3.jpg,Images/Speaker4.jpg,Audio/Speaker1_En/P1-1-En.wav,Speaker1,گوینده ۱,,,,,,,,,0,4,4,0,61.274919542000134,,,,,,,,,,,,,,,,,,,,,,,,,,,,,,,,,,,,,,,,,,,,,61.25073333399996,61.274919542000134,61.274919542000134,61.274919542000134,61.274919542000134,61.28382454233409,61.274919542000134,61.274919542000134,61.44824137499927,Correct! صحیح است,1,0.1714371250000113,None,0,5,61.452173499999844,61.46421258400005,63.450938542000586,63.475141791999704,,939355,001,2024-06-30_13h37.20.286,5-22,2024.1.4,None,2024-06-30 13h37.25.801008 +0900,
Images/Speaker1.jpg,Images/Speaker2.jpg,Images/Speaker3.jpg,Images/Speaker4.jpg,Audio/Speaker1_En/P1-17-En.wav,Speaker1,گوینده ۱,,,,,,,,,0,5,5,16,63.475141791999704,,,,,,,,,,,,,,,,,,,,,,,,,,,,,,,,,,,,,,,,,,,,,63.45151858399913,63.475141791999704,63.475141791999704,63.475141791999704,63.475141791999704,63.48404062533385,63.475141791999704,63.475141791999704,63.66276166699936,Correct! صحیح است,1,0.18411483299860265,None,0,6,63.66648150000037,63.677628041999924,65.6614017920001,65.6886440420003,,939355,001,2024-06-30_13h37.20.286,5-22,2024.1.4,None,2024-06-30 13h37.25.801008 +0900,
Images/Speaker1.jpg,Images/Speaker2.jpg,Images/Speaker3.jpg,Images/Speaker4.jpg,Audio/Speaker4_En/P4-10-En.wav,Speaker4,گوینده۴,,,,,,,,,0,6,6,69,65.6886440420003,,,,,,,,,,,,,,,,,,,,,,,,,,,,,,,,,,,,,,,,,,,,,65.6622041669998,65.6886440420003,65.6886440420003,65.6886440420003,65.6886440420003,65.69388991733334,65.6886440420003,65.6886440420003,65.90456133400039,Incorrect! The correct answer is Speaker4. نادرست! پاسخ صحیح گوینده۴ است,1,0.21143037500041828,None,0,7,65.90837295900019,65.92062579199956,67.90888549999909,,,939355,001,2024-06-30_13h37.20.286,5-22,2024.1.4,None,2024-06-30 13h37.25.801008 +0900,
Images/Speaker1.jpg,Images/Speaker2.jpg,Images/Speaker3.jpg,Images/Speaker4.jpg,Audio/Speaker4_En/P4-12-En.wav,Speaker4,گوینده۴,,,,,,,,,0,7,7,71,67.93224495899995,,,,,,,,,,,,,,,,,,,,,,,,,,,,,,,,,,,,,,,,,,,,,67.90907483400042,67.93224495899995,67.93224495899995,67.93224495899995,67.93224495899995,67.94216125033248,67.93224495899995,67.93224495899995,68.19580841700008,Incorrect! The correct answer is Speaker4. نادرست! پاسخ صحیح گوینده۴ است,1,0.26171475000046485,None,0,8,68.19991624999966,68.21446895900044,70.200242334,70.22669491700071,,939355,001,2024-06-30_13h37.20.286,5-22,2024.1.4,None,2024-06-30 13h37.25.801008 +0900,
Images/Speaker1.jpg,Images/Speaker2.jpg,Images/Speaker3.jpg,Images/Speaker4.jpg,Audio/Speaker3_En/P3-13-En.wav,Speaker3,گوینده۳,,,,,,,,,0,8,8,52,70.22669491700071,,,,,,,,,,,,,,,,,,,,,,,,,,,,,,,,,,,,,,,,,,,,,70.20047420899937,70.22669491700071,70.22669491700071,70.22669491700071,70.22669491700071,70.2327450003327,70.22669491700071,70.22669491700071,70.2273297089996,Incorrect! The correct answer is Speaker3. نادرست! پاسخ صحیح گوینده۳ است,1,2.2653921250002895,None,0,9,70.22777179200057,70.23742320900055,72.22280179200061,72.24512641699948,,939355,001,2024-06-30_13h37.20.286,5-22,2024.1.4,None,2024-06-30 13h37.25.801008 +0900,
Images/Speaker1.jpg,Images/Speaker2.jpg,Images/Speaker3.jpg,Images/Speaker4.jpg,Audio/Speaker1_En/P1-3-En.wav,Speaker1,گوینده ۱,,,,,,,,,0,9,9,2,72.24512641699948,,,,,,,,,,,,,,,,,,,,,,,,,,,,,,,,,,,,,,,,,,,,,72.22297141700074,72.24512641699948,72.24512641699948,72.24512641699948,72.24512641699948,72.23921304166676,72.24512641699948,72.24512641699948,72.44215145899943,Correct! صحیح است,1,0.18781433299955097,None,0,10,72.44692654199935,72.45828145899941,74.45136499999899,,,939355,001,2024-06-30_13h37.20.286,5-22,2024.1.4,None,2024-06-30 13h37.25.801008 +0900,
Images/Speaker1.jpg,Images/Speaker2.jpg,Images/Speaker3.jpg,Images/Speaker4.jpg,Audio/Speaker3_En/P3-12-En.wav,Speaker3,گوینده۳,,,,,,,,,0,10,10,51,74.47761274999903,,,,,,,,,,,,,,,,,,,,,,,,,,,,,,,,,,,,,,,,,,,,,74.4519004169997,74.47761274999903,74.47761274999903,74.47761274999903,74.47761274999903,74.48454045833253,74.47761274999903,74.47761274999903,74.65204079199975,Incorrect! The correct answer is Speaker3. نادرست! پاسخ صحیح گوینده۳ است,1,0.1714726669997617,None,0,11,74.65623745899939,74.6690104169993,76.66010687500057,,,939355,001,2024-06-30_13h37.20.286,5-22,2024.1.4,None,2024-06-30 13h37.25.801008 +0900,
Images/Speaker1.jpg,Images/Speaker2.jpg,Images/Speaker3.jpg,Images/Speaker4.jpg,Audio/Speaker3_En/P3-3-En.wav,Speaker3,گوینده۳,,,,,,,,,0,11,11,42,76.68633516699992,,,,,,,,,,,,,,,,,,,,,,,,,,,,,,,,,,,,,,,,,,,,,76.66066270900046,76.68633516699992,76.68633516699992,76.68633516699992,76.68633516699992,76.69328237533276,76.68633516699992,76.68633516699992,76.86027474999901,Incorrect! The correct answer is Speaker3. نادرست! پاسخ صحیح گوینده۳ است,1,0.1659999589992367,None,0,12,76.86404666700037,76.87659729199913,78.8607566669998,78.88337704200057,,939355,001,2024-06-30_13h37.20.286,5-22,2024.1.4,None,2024-06-30 13h37.25.801008 +0900,
Images/Speaker1.jpg,Images/Speaker2.jpg,Images/Speaker3.jpg,Images/Speaker4.jpg,Audio/Speaker2_En/P2-7-En.wav,Speaker2,گوینده۲,,,,,,,,,0,12,12,26,78.88337704200057,,,,,,,,,,,,,,,,,,,,,,,,,,,,,,,,,,,,,,,,,,,,,78.86093479199917,78.88337704200057,78.88337704200057,78.88337704200057,78.88337704200057,78.87717241666566,78.88337704200057,78.88337704200057,78.90494562499953,Incorrect! The correct answer is Speaker2. نادرست! پاسخ صحیح گوینده۲ است,1,0.01864841699898534,None,0,13,78.90883312500046,78.92180262500005,80.91699954199976,,,939355,001,2024-06-30_13h37.20.286,5-22,2024.1.4,None,2024-06-30 13h37.25.801008 +0900,
Images/Speaker1.jpg,Images/Speaker2.jpg,Images/Speaker3.jpg,Images/Speaker4.jpg,Audio/Speaker3_En/P3-7-En.wav,Speaker3,گوینده۳,,,,,,,,,0,13,13,46,80.94346687500001,,,,,,,,,,,,,,,,,,,,,,,,,,,,,,,,,,,,,,,,,,,,,80.91775379200044,80.94346687500001,80.94346687500001,80.94346687500001,80.94346687500001,80.95017379233335,80.94346687500001,80.94346687500001,81.11687804199937,Incorrect! The correct answer is Speaker3. نادرست! پاسخ صحیح گوینده۳ است,1,0.16763770800025668,None,0,14,81.12066520900044,81.13326733400027,83.12677325000004,,,939355,001,2024-06-30_13h37.20.286,5-22,2024.1.4,None,2024-06-30 13h37.25.801008 +0900,
Images/Speaker1.jpg,Images/Speaker2.jpg,Images/Speaker3.jpg,Images/Speaker4.jpg,Audio/Speaker2_En/P2-11-En.wav,Speaker2,گوینده۲,,,,,,,,,0,14,14,30,83.15529216699906,,,,,,,,,,,,,,,,,,,,,,,,,,,,,,,,,,,,,,,,,,,,,83.12741320900022,83.15529216699906,83.15529216699906,83.15529216699906,83.15529216699906,83.15994195833312,83.15529216699906,83.15529216699906,83.45475787500072,Incorrect! The correct answer is Speaker2. نادرست! پاسخ صحیح گوینده۲ است,1,0.2948538330001611,None,0,15,83.4587821669993,83.4715246249998,85.46423758399942,,,939355,001,2024-06-30_13h37.20.286,5-22,2024.1.4,None,2024-06-30 13h37.25.801008 +0900,
Images/Speaker1.jpg,Images/Speaker2.jpg,Images/Speaker3.jpg,Images/Speaker4.jpg,Audio/Speaker3_En/P3-5-En.wav,Speaker3,گوینده۳,,,,,,,,,0,15,15,44,85.48863079200055,,,,,,,,,,,,,,,,,,,,,,,,,,,,,,,,,,,,,,,,,,,,,85.46442229199965,85.48863079200055,85.48863079200055,85.48863079200055,85.48863079200055,85.49754083333258,85.48863079200055,85.48863079200055,85.67123570900003,Incorrect! The correct answer is Speaker3. نادرست! پاسخ صحیح گوینده۳ است,1,0.1791163329999108,None,0,16,85.67503612499968,85.68797574999917,87.67410849999942,87.69801937500051,,939355,001,2024-06-30_13h37.20.286,5-22,2024.1.4,None,2024-06-30 13h37.25.801008 +0900,
Images/Speaker1.jpg,Images/Speaker2.jpg,Images/Speaker3.jpg,Images/Speaker4.jpg,Audio/Speaker2_En/P2-4-En.wav,Speaker2,گوینده۲,,,,,,,,,0,16,16,23,87.69801937500051,,,,,,,,,,,,,,,,,,,,,,,,,,,,,,,,,,,,,,,,,,,,,87.67428012500022,87.69801937500051,87.69801937500051,87.69801937500051,87.69801937500051,87.70715470833287,87.69801937500051,87.69801937500051,87.91162066700053,Incorrect! The correct answer is Speaker2. نادرست! پاسخ صحیح گوینده۲ است,1,0.21041304200116429,None,0,17,87.91659141700075,87.92986483399909,89.91436366699963,89.93872429200019,,939355,001,2024-06-30_13h37.20.286,5-22,2024.1.4,None,2024-06-30 13h37.25.801008 +0900,
Images/Speaker1.jpg,Images/Speaker2.jpg,Images/Speaker3.jpg,Images/Speaker4.jpg,Audio/Speaker1_En/P1-4-En.wav,Speaker1,گوینده ۱,,,,,,,,,0,17,17,3,89.93872429200019,,,,,,,,,,,,,,,,,,,,,,,,,,,,,,,,,,,,,,,,,,,,,89.91454095900008,89.93872429200019,89.93872429200019,89.93872429200019,89.93872429200019,89.94749541733339,89.93872429200019,89.93872429200019,90.05831037499956,Correct! صحیح است,1,0.1119405409990577,None,0,18,90.06257924999954,90.07134233400029,92.05953491699984,92.08407099999931,,939355,001,2024-06-30_13h37.20.286,5-22,2024.1.4,None,2024-06-30 13h37.25.801008 +0900,
Images/Speaker1.jpg,Images/Speaker2.jpg,Images/Speaker3.jpg,Images/Speaker4.jpg,Audio/Speaker1_En/P1-15-En.wav,Speaker1,گوینده ۱,,,,,,,,,0,18,18,14,92.08407099999931,,,,,,,,,,,,,,,,,,,,,,,,,,,,,,,,,,,,,,,,,,,,,92.06005749999895,92.08407099999931,92.08407099999931,92.08407099999931,92.08407099999931,92.09193608333274,92.08407099999931,92.08407099999931,92.2792127089997,Correct! صحیح است,1,0.19053625000015018,None,0,19,92.28347629199925,92.29438508400017,94.28202316699935,94.30545895899922,,939355,001,2024-06-30_13h37.20.286,5-22,2024.1.4,None,2024-06-30 13h37.25.801008 +0900,
Images/Speaker1.jpg,Images/Speaker2.jpg,Images/Speaker3.jpg,Images/Speaker4.jpg,Audio/Speaker2_En/P2-12-En.wav,Speaker2,گوینده۲,,,,,,,,,0,19,19,31,94.30545895899922,,,,,,,,,,,,,,,,,,,,,,,,,,,,,,,,,,,,,,,,,,,,,94.28238908399908,94.30545895899922,94.30545895899922,94.30545895899922,94.30545895899922,94.31487745833377,94.30545895899922,94.30545895899922,94.46629004200076,Incorrect! The correct answer is Speaker2. نادرست! پاسخ صحیح گوینده۲ است,1,0.15012183299950266,None,0,20,94.47008766699946,94.48223583400068,96.46524370899897,96.48819995899976,,939355,001,2024-06-30_13h37.20.286,5-22,2024.1.4,None,2024-06-30 13h37.25.801008 +0900,
Images/Speaker1.jpg,Images/Speaker2.jpg,Images/Speaker3.jpg,Images/Speaker4.jpg,Audio/Speaker4_En/P4-16-En.wav,Speaker4,گوینده۴,,,,,,,,,0,20,20,75,96.48819995899976,,,,,,,,,,,,,,,,,,,,,,,,,,,,,,,,,,,,,,,,,,,,,96.46541083400007,96.48819995899976,96.48819995899976,96.48819995899976,96.48819995899976,96.49831762533407,96.48819995899976,96.48819995899976,96.65148220899937,Incorrect! The correct answer is Speaker4. نادرست! پاسخ صحیح گوینده۴ است,1,0.15995399999883375,None,0,21,96.6556106249991,96.66836624999996,98.65724945900001,,,939355,001,2024-06-30_13h37.20.286,5-22,2024.1.4,None,2024-06-30 13h37.25.801008 +0900,
Images/Speaker1.jpg,Images/Speaker2.jpg,Images/Speaker3.jpg,Images/Speaker4.jpg,Audio/Speaker4_En/P4-1-En.wav,Speaker4,گوینده۴,,,,,,,,,0,21,21,60,98.68276408400015,,,,,,,,,,,,,,,,,,,,,,,,,,,,,,,,,,,,,,,,,,,,,98.65783916699911,98.68276408400015,98.68276408400015,98.68276408400015,98.68276408400015,98.69042541733373,98.68276408400015,98.68276408400015,98.72754775000067,Incorrect! The correct answer is Speaker4. نادرست! پاسخ صحیح گوینده۴ است,1,0.04250612500072748,None,0,22,98.73135687499962,98.7434761250006,100.72918729199955,100.75215112499973,,939355,001,2024-06-30_13h37.20.286,5-22,2024.1.4,None,2024-06-30 13h37.25.801008 +0900,
Images/Speaker1.jpg,Images/Speaker2.jpg,Images/Speaker3.jpg,Images/Speaker4.jpg,Audio/Speaker2_En/P2-16-En.wav,Speaker2,گوینده۲,,,,,,,,,0,22,22,35,100.75215112499973,,,,,,,,,,,,,,,,,,,,,,,,,,,,,,,,,,,,,,,,,,,,,100.72936866700002,100.75215112499973,100.75215112499973,100.75215112499973,100.75215112499973,100.76228179233343,100.75215112499973,100.75215112499973,100.77210279199971,Incorrect! The correct answer is Speaker2. نادرست! پاسخ صحیح گوینده۲ است,1,0.018979833999765106,None,0,23,100.77632066700062,100.78898275000029,102.77414804199907,102.80199212499974,,939355,001,2024-06-30_13h37.20.286,5-22,2024.1.4,None,2024-06-30 13h37.25.801008 +0900,
Images/Speaker1.jpg,Images/Speaker2.jpg,Images/Speaker3.jpg,Images/Speaker4.jpg,Audio/Speaker3_En/P3-9-En.wav,Speaker3,گوینده۳,,,,,,,,,0,23,23,48,102.80199212499974,,,,,,,,,,,,,,,,,,,,,,,,,,,,,,,,,,,,,,,,,,,,,102.77510933399935,102.80199212499974,102.80199212499974,102.80199212499974,102.80199212499974,102.8065736253325,102.80199212499974,102.80199212499974,102.8026460000001,Incorrect! The correct answer is Speaker3. نادرست! پاسخ صحیح گوینده۳ است,1,2.037332041998525,None,0,24,102.80289408399949,102.81243675000042,104.80384050000066,,,939355,001,2024-06-30_13h37.20.286,5-22,2024.1.4,None,2024-06-30 13h37.25.801008 +0900,
Images/Speaker1.jpg,Images/Speaker2.jpg,Images/Speaker3.jpg,Images/Speaker4.jpg,Audio/Speaker2_En/P2-6-En.wav,Speaker2,گوینده۲,,,,,,,,,0,24,24,25,104.82673162500032,,,,,,,,,,,,,,,,,,,,,,,,,,,,,,,,,,,,,,,,,,,,,104.80402741699982,104.82673162500032,104.82673162500032,104.82673162500032,104.82673162500032,104.820471291667,104.82673162500032,104.82673162500032,104.97087070899943,Incorrect! The correct answer is Speaker2. نادرست! پاسخ صحیح گوینده۲ است,1,0.13963862499986135,None,0,25,104.97480762499981,104.98768058399946,106.97378233400013,106.99764495899944,,939355,001,2024-06-30_13h37.20.286,5-22,2024.1.4,None,2024-06-30 13h37.25.801008 +0900,
Images/Speaker1.jpg,Images/Speaker2.jpg,Images/Speaker3.jpg,Images/Speaker4.jpg,Audio/Speaker4_En/P4-11-En.wav,Speaker4,گوینده۴,,,,,,,,,0,25,25,70,106.99764495899944,,,,,,,,,,,,,,,,,,,,,,,,,,,,,,,,,,,,,,,,,,,,,106.97395316700022,106.99764495899944,106.99764495899944,106.99764495899944,106.99764495899944,107.00681425033375,106.99764495899944,106.99764495899944,107.07989387499947,Incorrect! The correct answer is Speaker4. نادرست! پاسخ صحیح گوینده۴ است,1,0.0801846670001396,None,0,26,107.08420741699956,107.09736037499897,109.08632133399988,,,939355,001,2024-06-30_13h37.20.286,5-22,2024.1.4,None,2024-06-30 13h37.25.801008 +0900,
Images/Speaker1.jpg,Images/Speaker2.jpg,Images/Speaker3.jpg,Images/Speaker4.jpg,Audio/Speaker3_En/P3-11-En.wav,Speaker3,گوینده۳,,,,,,,,,0,26,26,50,109.11553091699898,,,,,,,,,,,,,,,,,,,,,,,,,,,,,,,,,,,,,,,,,,,,,109.08706208399963,109.11553091699898,109.11553091699898,109.11553091699898,109.11553091699898,109.1194745003327,109.11553091699898,109.11553091699898,109.11623179200069,Incorrect! The correct answer is Speaker3. نادرست! پاسخ صحیح گوینده۳ است,1,2.026630499998646,None,0,27,109.12012879199938,109.12956841699997,111.11943470900042,111.14666550000038,,939355,001,2024-06-30_13h37.20.286,5-22,2024.1.4,None,2024-06-30 13h37.25.801008 +0900,
Images/Speaker1.jpg,Images/Speaker2.jpg,Images/Speaker3.jpg,Images/Speaker4.jpg,Audio/Speaker2_En/P2-2-En.wav,Speaker2,گوینده۲,,,,,,,,,0,27,27,21,111.14666550000038,,,,,,,,,,,,,,,,,,,,,,,,,,,,,,,,,,,,,,,,,,,,,111.12024162499984,111.14666550000038,111.14666550000038,111.14666550000038,111.14666550000038,111.15197150033285,111.14666550000038,111.14666550000038,111.20069254199916,Incorrect! The correct answer is Speaker2. نادرست! پاسخ صحیح گوینده۲ است,1,0.044824667000284535,None,0,28,111.20482633400024,111.21739279199937,113.20966954200048,,,939355,001,2024-06-30_13h37.20.286,5-22,2024.1.4,None,2024-06-30 13h37.25.801008 +0900,
Images/Speaker1.jpg,Images/Speaker2.jpg,Images/Speaker3.jpg,Images/Speaker4.jpg,Audio/Speaker4_En/P4-4-En.wav,Speaker4,گوینده۴,,,,,,,,,0,28,28,63,113.23538316700069,,,,,,,,,,,,,,,,,,,,,,,,,,,,,,,,,,,,,,,,,,,,,113.21021683400068,113.23538316700069,113.23538316700069,113.23538316700069,113.23538316700069,113.24284991733342,113.23538316700069,113.23538316700069,113.36413833400002,Incorrect! The correct answer is Speaker4. نادرست! پاسخ صحیح گوینده۴ است,1,0.1262088749990653,None,0,29,113.3683621250002,113.3814650839995,115.36486162499932,115.39054054199914,,939355,001,2024-06-30_13h37.20.286,5-22,2024.1.4,None,2024-06-30 13h37.25.801008 +0900,
Images/Speaker1.jpg,Images/Speaker2.jpg,Images/Speaker3.jpg,Images/Speaker4.jpg,Audio/Speaker1_En/P1-12-En.wav,Speaker1,گوینده ۱,,,,,,,,,0,29,29,11,115.39054054199914,,,,,,,,,,,,,,,,,,,,,,,,,,,,,,,,,,,,,,,,,,,,,115.36505533399941,115.39054054199914,115.39054054199914,115.39054054199914,115.39054054199914,115.39749933333272,115.39054054199914,115.39054054199914,115.39120037499924,Correct! صحیح است,1,2.125849041998663,None,0,30,115.39174166699922,115.39984354199987,117.3866256250003,117.41014883400021,,939355,001,2024-06-30_13h37.20.286,5-22,2024.1.4,None,2024-06-30 13h37.25.801008 +0900,
Images/Speaker1.jpg,Images/Speaker2.jpg,Images/Speaker3.jpg,Images/Speaker4.jpg,Audio/Speaker1_En/P1-7-En.wav,Speaker1,گوینده ۱,,,,,,,,,0,30,30,6,117.41014883400021,,,,,,,,,,,,,,,,,,,,,,,,,,,,,,,,,,,,,,,,,,,,,117.38677383399954,117.41014883400021,117.41014883400021,117.41014883400021,117.41014883400021,117.41974804233408,117.41014883400021,117.41014883400021,117.56261745899974,Correct! صحیح است,1,0.14370279200011282,None,0,31,117.56644858400068,117.57464762500058,119.56087295900033,119.58350574999895,,939355,001,2024-06-30_13h37.20.286,5-22,2024.1.4,None,2024-06-30 13h37.25.801008 +0900,
Images/Speaker1.jpg,Images/Speaker2.jpg,Images/Speaker3.jpg,Images/Speaker4.jpg,Audio/Speaker1_En/P1-6-En.wav,Speaker1,گوینده ۱,,,,,,,,,0,31,31,5,119.58350574999895,,,,,,,,,,,,,,,,,,,,,,,,,,,,,,,,,,,,,,,,,,,,,119.56177274999936,119.58350574999895,119.58350574999895,119.58350574999895,119.58350574999895,119.59330329233356,119.58350574999895,119.58350574999895,119.70089729199935,Correct! صحیح است,1,0.10633762500037847,None,0,32,119.7048769590001,119.7156624170002,121.70344637500057,121.72982924999997,,939355,001,2024-06-30_13h37.20.286,5-22,2024.1.4,None,2024-06-30 13h37.25.801008 +0900,
Images/Speaker1.jpg,Images/Speaker2.jpg,Images/Speaker3.jpg,Images/Speaker4.jpg,Audio/Speaker3_En/P3-8-En.wav,Speaker3,گوینده۳,,,,,,,,,0,32,32,47,121.72982924999997,,,,,,,,,,,,,,,,,,,,,,,,,,,,,,,,,,,,,,,,,,,,,121.70441520900022,121.72982924999997,121.72982924999997,121.72982924999997,121.72982924999997,121.73581145833353,121.72982924999997,121.72982924999997,121.88163712499954,Incorrect! The correct answer is Speaker3. نادرست! پاسخ صحیح گوینده۳ است,1,0.14435779099949286,None,0,33,121.88582408399998,121.89669562500058,123.8947036669997,,,939355,001,2024-06-30_13h37.20.286,5-22,2024.1.4,None,2024-06-30 13h37.25.801008 +0900,
Images/Speaker1.jpg,Images/Speaker2.jpg,Images/Speaker3.jpg,Images/Speaker4.jpg,Audio/Speaker4_En/P4-13-En.wav,Speaker4,گوینده۴,,,,,,,,,0,33,33,72,123.91983316699952,,,,,,,,,,,,,,,,,,,,,,,,,,,,,,,,,,,,,,,,,,,,,123.8954174999999,123.91983316699952,123.91983316699952,123.91983316699952,123.91983316699952,123.92787291733342,123.91983316699952,123.91983316699952,124.06603383400034,Incorrect! The correct answer is Speaker4. نادرست! پاسخ صحیح گوینده۴ است,1,0.14493354099977296,None,0,34,124.06989516700014,124.08287258400014,126.06623158399998,126.08862470900021,,939355,001,2024-06-30_13h37.20.286,5-22,2024.1.4,None,2024-06-30 13h37.25.801008 +0900,
Images/Speaker1.jpg,Images/Speaker2.jpg,Images/Speaker3.jpg,Images/Speaker4.jpg,Audio/Speaker3_En/P3-18-En.wav,Speaker3,گوینده۳,,,,,,,,,0,34,34,57,126.08862470900021,,,,,,,,,,,,,,,,,,,,,,,,,,,,,,,,,,,,,,,,,,,,,126.06640424999932,126.08862470900021,126.08862470900021,126.08862470900021,126.08862470900021,126.08266458366622,126.08862470900021,126.08862470900021,126.21581612499904,Incorrect! The correct answer is Speaker3. نادرست! پاسخ صحیح گوینده۳ است,1,0.12368562500159896,None,0,35,126.219937459,126.23239187500076,128.22007279199897,,,939355,001,2024-06-30_13h37.20.286,5-22,2024.1.4,None,2024-06-30 13h37.25.801008 +0900,
Images/Speaker1.jpg,Images/Speaker2.jpg,Images/Speaker3.jpg,Images/Speaker4.jpg,Audio/Speaker4_En/P4-17-En.wav,Speaker4,گوینده۴,,,,,,,,,0,35,35,76,128.24676833400008,,,,,,,,,,,,,,,,,,,,,,,,,,,,,,,,,,,,,,,,,,,,,128.2207398339997,128.24676833400008,128.24676833400008,128.24676833400008,128.24676833400008,128.253250917333,128.24676833400008,128.24676833400008,128.36980020900046,Incorrect! The correct answer is Speaker4. نادرست! پاسخ صحیح گوینده۴ است,1,0.12172691600062535,None,0,36,128.3739631669996,128.38676175,130.3744057090007,,,939355,001,2024-06-30_13h37.20.286,5-22,2024.1.4,None,2024-06-30 13h37.25.801008 +0900,
Images/Speaker1.jpg,Images/Speaker2.jpg,Images/Speaker3.jpg,Images/Speaker4.jpg,Audio/Speaker4_En/P4-18-En.wav,Speaker4,گوینده۴,,,,,,,,,0,36,36,77,130.39648029199998,,,,,,,,,,,,,,,,,,,,,,,,,,,,,,,,,,,,,,,,,,,,,130.37457729199923,130.39648029199998,130.39648029199998,130.39648029199998,130.39648029199998,130.39103350066605,130.39648029199998,130.39648029199998,130.57637712500036,Incorrect! The correct answer is Speaker4. نادرست! پاسخ صحیح گوینده۴ است,1,0.17521154199857847,None,0,37,130.58056179199957,130.5935780839991,132.58578591699916,,,939355,001,2024-06-30_13h37.20.286,5-22,2024.1.4,None,2024-06-30 13h37.25.801008 +0900,
Images/Speaker1.jpg,Images/Speaker2.jpg,Images/Speaker3.jpg,Images/Speaker4.jpg,Audio/Speaker4_En/P4-14-En.wav,Speaker4,گوینده۴,,,,,,,,,0,37,37,73,132.6108618750004,,,,,,,,,,,,,,,,,,,,,,,,,,,,,,,,,,,,,,,,,,,,,132.5859464589994,132.6108618750004,132.6108618750004,132.6108618750004,132.6108618750004,132.61908954233382,132.6108618750004,132.6108618750004,132.6829508339997,Incorrect! The correct answer is Speaker4. نادرست! پاسخ صحیح گوینده۴ است,1,0.07107891700070468,None,0,38,132.68681579199983,132.69999795900003,134.686325749999,134.7102619590005,,939355,001,2024-06-30_13h37.20.286,5-22,2024.1.4,None,2024-06-30 13h37.25.801008 +0900,
Images/Speaker1.jpg,Images/Speaker2.jpg,Images/Speaker3.jpg,Images/Speaker4.jpg,Audio/Speaker1_En/P1-11-En.wav,Speaker1,گوینده ۱,,,,,,,,,0,38,38,10,134.7102619590005,,,,,,,,,,,,,,,,,,,,,,,,,,,,,,,,,,,,,,,,,,,,,134.68650479200005,134.7102619590005,134.7102619590005,134.7102619590005,134.7102619590005,134.7189687083324,134.7102619590005,134.7102619590005,134.71085387499988,Correct! صحیح است,1,2.0660659999994095,None,0,39,134.71115491700039,134.71922541700042,136.71045550000053,136.73774849999973,,939355,001,2024-06-30_13h37.20.286,5-22,2024.1.4,None,2024-06-30 13h37.25.801008 +0900,
Images/Speaker1.jpg,Images/Speaker2.jpg,Images/Speaker3.jpg,Images/Speaker4.jpg,Audio/Speaker4_En/P4-7-En.wav,Speaker4,گوینده۴,,,,,,,,,0,39,39,66,136.73774849999973,,,,,,,,,,,,,,,,,,,,,,,,,,,,,,,,,,,,,,,,,,,,,136.71124016700014,136.73774849999973,136.73774849999973,136.73774849999973,136.73774849999973,136.742700833333,136.73774849999973,136.73774849999973,137.80777116699937,Incorrect! The correct answer is Speaker4. نادرست! پاسخ صحیح گوینده۴ است,1,1.0643308749986318,None,0,40,137.81184758400013,137.8259791670007,139.81178725000063,139.83592183399924,,939355,001,2024-06-30_13h37.20.286,5-22,2024.1.4,None,2024-06-30 13h37.25.801008 +0900,
Images/Speaker1.jpg,Images/Speaker2.jpg,Images/Speaker3.jpg,Images/Speaker4.jpg,Audio/Speaker1_En/P1-19-En.wav,Speaker1,گوینده ۱,,,,,,,,,0,40,40,18,139.83592183399924,,,,,,,,,,,,,,,,,,,,,,,,,,,,,,,,,,,,,,,,,,,,,139.81196716699924,139.83592183399924,139.83592183399924,139.83592183399924,139.83592183399924,139.84487041733388,139.83592183399924,139.83592183399924,140.14109820900012,Correct! صحیح است,1,0.30281641699912143,None,0,41,140.1452632090004,140.15814116699948,142.1519032920005,,,939355,001,2024-06-30_13h37.20.286,5-22,2024.1.4,None,2024-06-30 13h37.25.801008 +0900,
Images/Speaker1.jpg,Images/Speaker2.jpg,Images/Speaker3.jpg,Images/Speaker4.jpg,Audio/Speaker4_En/P4-5-En.wav,Speaker4,گوینده۴,,,,,,,,,0,41,41,64,142.17776108399994,,,,,,,,,,,,,,,,,,,,,,,,,,,,,,,,,,,,,,,,,,,,,142.15249674999905,142.17776108399994,142.17776108399994,142.17776108399994,142.17776108399994,142.18501845833322,142.17776108399994,142.17776108399994,142.46794166700056,Incorrect! The correct answer is Speaker4. نادرست! پاسخ صحیح گوینده۴ است,1,0.27985370900023554,None,0,42,142.47193116699964,142.48250675000054,144.47692695899968,,,939355,001,2024-06-30_13h37.20.286,5-22,2024.1.4,None,2024-06-30 13h37.25.801008 +0900,
Images/Speaker1.jpg,Images/Speaker2.jpg,Images/Speaker3.jpg,Images/Speaker4.jpg,Audio/Speaker1_En/P1-8-En.wav,Speaker1,گوینده ۱,,,,,,,,,0,42,42,7,144.5033743749991,,,,,,,,,,,,,,,,,,,,,,,,,,,,,,,,,,,,,,,,,,,,,144.4775413339994,144.5033743749991,144.5033743749991,144.5033743749991,144.5033743749991,144.5100494173335,144.5033743749991,144.5033743749991,144.69466195899986,Correct! صحیح است,1,0.19029391700132692,None,0,43,144.69844558399927,144.7099795840004,146.7005196249993,,,939355,001,2024-06-30_13h37.20.286,5-22,2024.1.4,None,2024-06-30 13h37.25.801008 +0900,
Images/Speaker1.jpg,Images/Speaker2.jpg,Images/Speaker3.jpg,Images/Speaker4.jpg,Audio/Speaker4_En/P4-15-En.wav,Speaker4,گوینده۴,,,,,,,,,0,43,43,74,146.72705291700004,,,,,,,,,,,,,,,,,,,,,,,,,,,,,,,,,,,,,,,,,,,,,146.70121754200045,146.72705291700004,146.72705291700004,146.72705291700004,146.72705291700004,146.7336967083325,146.72705291700004,146.72705291700004,146.74359874999936,Incorrect! The correct answer is Speaker4. نادرست! پاسخ صحیح گوینده۴ است,1,0.014051666001250851,None,0,44,146.7478268750001,146.76047254200057,148.75034337500074,,,939355,001,2024-06-30_13h37.20.286,5-22,2024.1.4,None,2024-06-30 13h37.25.801008 +0900,
Images/Speaker1.jpg,Images/Speaker2.jpg,Images/Speaker3.jpg,Images/Speaker4.jpg,Audio/Speaker2_En/P2-20-En.wav,Speaker2,گوینده۲,,,,,,,,,0,44,44,39,148.7752393339997,,,,,,,,,,,,,,,,,,,,,,,,,,,,,,,,,,,,,,,,,,,,,148.75094608399922,148.7752393339997,148.7752393339997,148.7752393339997,148.7752393339997,148.78351483333296,148.7752393339997,148.7752393339997,148.82486229200003,Incorrect! The correct answer is Speaker2. نادرست! پاسخ صحیح گوینده۲ است,1,0.043358458000511746,None,0,45,148.82877075000033,148.84100941699944,150.8313751250007,,,939355,001,2024-06-30_13h37.20.286,5-22,2024.1.4,None,2024-06-30 13h37.25.801008 +0900,
Images/Speaker1.jpg,Images/Speaker2.jpg,Images/Speaker3.jpg,Images/Speaker4.jpg,Audio/Speaker2_En/P2-19-En.wav,Speaker2,گوینده۲,,,,,,,,,0,45,45,38,150.85464120899996,,,,,,,,,,,,,,,,,,,,,,,,,,,,,,,,,,,,,,,,,,,,,150.83152291700026,150.85464120899996,150.85464120899996,150.85464120899996,150.85464120899996,150.86467162533387,150.85464120899996,150.85464120899996,151.00979783399998,Incorrect! The correct answer is Speaker2. نادرست! پاسخ صحیح گوینده۲ است,1,0.14732933299819706,None,0,46,151.01378049999948,151.02431479199913,153.01777262500036,,,939355,001,2024-06-30_13h37.20.286,5-22,2024.1.4,None,2024-06-30 13h37.25.801008 +0900,
Images/Speaker1.jpg,Images/Speaker2.jpg,Images/Speaker3.jpg,Images/Speaker4.jpg,Audio/Speaker2_En/P2-14-En.wav,Speaker2,گوینده۲,,,,,,,,,0,46,46,33,153.04489466700034,,,,,,,,,,,,,,,,,,,,,,,,,,,,,,,,,,,,,,,,,,,,,153.0183684170006,153.04489466700034,153.04489466700034,153.04489466700034,153.04489466700034,153.05089358333367,153.04489466700034,153.04489466700034,153.2255153749993,Incorrect! The correct answer is Speaker2. نادرست! پاسخ صحیح گوینده۲ است,1,0.17472599999928207,None,0,47,153.2297181670001,153.24243420899984,155.2291365000001,155.25236333400062,,939355,001,2024-06-30_13h37.20.286,5-22,2024.1.4,None,2024-06-30 13h37.25.801008 +0900,
Images/Speaker1.jpg,Images/Speaker2.jpg,Images/Speaker3.jpg,Images/Speaker4.jpg,Audio/Speaker4_En/P4-8-En.wav,Speaker4,گوینده۴,,,,,,,,,0,47,47,67,155.25236333400062,,,,,,,,,,,,,,,,,,,,,,,,,,,,,,,,,,,,,,,,,,,,,155.22930279200045,155.25236333400062,155.25236333400062,155.25236333400062,155.25236333400062,155.2622343753324,155.25236333400062,155.25236333400062,155.2529895000007,Incorrect! The correct answer is Speaker4. نادرست! پاسخ صحیح گوینده۴ است,1,2.129302125000322,None,0,48,155.25344329200016,155.26354883400018,157.25758020899957,,,939355,001,2024-06-30_13h37.20.286,5-22,2024.1.4,None,2024-06-30 13h37.25.801008 +0900,
Images/Speaker1.jpg,Images/Speaker2.jpg,Images/Speaker3.jpg,Images/Speaker4.jpg,Audio/Speaker1_En/P1-18-En.wav,Speaker1,گوینده ۱,,,,,,,,,0,48,48,17,157.2805901669999,,,,,,,,,,,,,,,,,,,,,,,,,,,,,,,,,,,,,,,,,,,,,157.2577664170003,157.2805901669999,157.2805901669999,157.2805901669999,157.2805901669999,157.27420587566692,157.2805901669999,157.2805901669999,157.44144050000068,Correct! صحیح است,1,0.15661487499892246,None,0,49,157.44540145899919,157.4566596250006,159.44243295900014,159.4705586250002,,939355,001,2024-06-30_13h37.20.286,5-22,2024.1.4,None,2024-06-30 13h37.25.801008 +0900,
Images/Speaker1.jpg,Images/Speaker2.jpg,Images/Speaker3.jpg,Images/Speaker4.jpg,Audio/Speaker1_En/P1-2-En.wav,Speaker1,گوینده ۱,,,,,,,,,0,49,49,1,159.4705586250002,,,,,,,,,,,,,,,,,,,,,,,,,,,,,,,,,,,,,,,,,,,,,159.44306974999927,159.4705586250002,159.4705586250002,159.4705586250002,159.4705586250002,159.47474583333366,159.4705586250002,159.4705586250002,159.52963995900063,Correct! صحیح است,1,0.05433804200038139,None,0,50,159.53380541700062,159.54493320899928,161.5289198749997,161.552497708999,,939355,001,2024-06-30_13h37.20.286,5-22,2024.1.4,None,2024-06-30 13h37.25.801008 +0900,
Images/Speaker1.jpg,Images/Speaker2.jpg,Images/Speaker3.jpg,Images/Speaker4.jpg,Audio/Speaker4_En/P4-9-En.wav,Speaker4,گوینده۴,,,,,,,,,0,50,50,68,161.552497708999,,,,,,,,,,,,,,,,,,,,,,,,,,,,,,,,,,,,,,,,,,,,,161.52909437500057,161.552497708999,161.552497708999,161.552497708999,161.552497708999,161.56195620833256,161.552497708999,161.552497708999,161.69320479199996,Incorrect! The correct answer is Speaker4. نادرست! پاسخ صحیح گوینده۴ است,1,0.13774499999999534,None,0,51,161.69697404199906,161.70948337499976,163.69381183400037,163.7206523749992,,939355,001,2024-06-30_13h37.20.286,5-22,2024.1.4,None,2024-06-30 13h37.25.801008 +0900,
Images/Speaker1.jpg,Images/Speaker2.jpg,Images/Speaker3.jpg,Images/Speaker4.jpg,Audio/Speaker4_En/P4-2-En.wav,Speaker4,گوینده۴,,,,,,,,,0,51,51,61,163.7206523749992,,,,,,,,,,,,,,,,,,,,,,,,,,,,,,,,,,,,,,,,,,,,,163.69457154200063,163.7206523749992,163.7206523749992,163.7206523749992,163.7206523749992,163.72623954233364,163.7206523749992,163.7206523749992,163.75781683400055,Incorrect! The correct answer is Speaker4. نادرست! پاسخ صحیح گوینده۴ است,1,0.03228470900103275,None,0,52,163.76196570899992,163.774640833999,165.75824074999946,165.78047529200012,,939355,001,2024-06-30_13h37.20.286,5-22,2024.1.4,None,2024-06-30 13h37.25.801008 +0900,
Images/Speaker1.jpg,Images/Speaker2.jpg,Images/Speaker3.jpg,Images/Speaker4.jpg,Audio/Speaker1_En/P1-20-En.wav,Speaker1,گوینده ۱,,,,,,,,,0,52,52,19,165.78047529200012,,,,,,,,,,,,,,,,,,,,,,,,,,,,,,,,,,,,,,,,,,,,,165.75839208400066,165.78047529200012,165.78047529200012,165.78047529200012,165.78047529200012,165.77466237566685,165.78047529200012,165.78047529200012,165.91213787500055,Correct! صحیح است,1,0.12692695800069487,None,0,53,165.91603345899966,165.9269618340004,167.9105732499993,167.93406275000052,,939355,001,2024-06-30_13h37.20.286,5-22,2024.1.4,None,2024-06-30 13h37.25.801008 +0900,
Images/Speaker1.jpg,Images/Speaker2.jpg,Images/Speaker3.jpg,Images/Speaker4.jpg,Audio/Speaker1_En/P1-10-En.wav,Speaker1,گوینده ۱,,,,,,,,,0,53,53,9,167.93406275000052,,,,,,,,,,,,,,,,,,,,,,,,,,,,,,,,,,,,,,,,,,,,,167.9107402089994,167.93406275000052,167.93406275000052,167.93406275000052,167.93406275000052,167.94367287533402,167.93406275000052,167.93406275000052,167.9840439590007,Correct! صحیح است,1,0.046938665998823126,None,0,54,167.9882205419999,167.99910983399968,169.98365249999915,170.00752633400043,,939355,001,2024-06-30_13h37.20.286,5-22,2024.1.4,None,2024-06-30 13h37.25.801008 +0900,
Images/Speaker1.jpg,Images/Speaker2.jpg,Images/Speaker3.jpg,Images/Speaker4.jpg,Audio/Speaker3_En/P3-14-En.wav,Speaker3,گوینده۳,,,,,,,,,0,54,54,53,170.00752633400043,,,,,,,,,,,,,,,,,,,,,,,,,,,,,,,,,,,,,,,,,,,,,169.98380120900038,170.00752633400043,170.00752633400043,170.00752633400043,170.00752633400043,170.0167305833334,170.00752633400043,170.00752633400043,170.1924530840006,Incorrect! The correct answer is Speaker3. نادرست! پاسخ صحیح گوینده۳ است,1,0.18091920799997752,None,0,55,170.19667945900073,170.20913199999995,172.1930262499991,172.21686766699895,,939355,001,2024-06-30_13h37.20.286,5-22,2024.1.4,None,2024-06-30 13h37.25.801008 +0900,
Images/Speaker1.jpg,Images/Speaker2.jpg,Images/Speaker3.jpg,Images/Speaker4.jpg,Audio/Speaker1_En/P1-13-En.wav,Speaker1,گوینده ۱,,,,,,,,,0,55,55,12,172.21686766699895,,,,,,,,,,,,,,,,,,,,,,,,,,,,,,,,,,,,,,,,,,,,,172.19321720900007,172.21686766699895,172.21686766699895,172.21686766699895,172.21686766699895,172.22604604233362,172.21686766699895,172.21686766699895,172.2669692090003,Correct! صحیح است,1,0.0437363329983782,None,0,56,172.27107537499978,172.2823519169997,174.26613908400032,174.28901754199978,,939355,001,2024-06-30_13h37.20.286,5-22,2024.1.4,None,2024-06-30 13h37.25.801008 +0900,
Images/Speaker1.jpg,Images/Speaker2.jpg,Images/Speaker3.jpg,Images/Speaker4.jpg,Audio/Speaker2_En/P2-5-En.wav,Speaker2,گوینده۲,,,,,,,,,0,56,56,24,174.28901754199978,,,,,,,,,,,,,,,,,,,,,,,,,,,,,,,,,,,,,,,,,,,,,174.26630958399983,174.28901754199978,174.28901754199978,174.28901754199978,174.28901754199978,174.28257987566602,174.28901754199978,174.28901754199978,174.42929104199902,Incorrect! The correct answer is Speaker2. نادرست! پاسخ صحیح گوینده۲ است,1,0.13201441699857241,None,0,57,174.43327245900036,174.44355233399983,176.43545441700007,,,939355,001,2024-06-30_13h37.20.286,5-22,2024.1.4,None,2024-06-30 13h37.25.801008 +0900,
Images/Speaker1.jpg,Images/Speaker2.jpg,Images/Speaker3.jpg,Images/Speaker4.jpg,Audio/Speaker1_En/P1-5-En.wav,Speaker1,گوینده ۱,,,,,,,,,0,57,57,4,176.46235974999945,,,,,,,,,,,,,,,,,,,,,,,,,,,,,,,,,,,,,,,,,,,,,176.43604395900002,176.46235974999945,176.46235974999945,176.46235974999945,176.46235974999945,176.46860554233405,176.46235974999945,176.46235974999945,176.6294036670006,Correct! صحیح است,1,0.16509216600024956,None,0,58,176.63359933399988,176.64506616700055,178.63558137499967,,,939355,001,2024-06-30_13h37.20.286,5-22,2024.1.4,None,2024-06-30 13h37.25.801008 +0900,
Images/Speaker1.jpg,Images/Speaker2.jpg,Images/Speaker3.jpg,Images/Speaker4.jpg,Audio/Speaker2_En/P2-8-En.wav,Speaker2,گوینده۲,,,,,,,,,0,58,58,27,178.65794724999978,,,,,,,,,,,,,,,,,,,,,,,,,,,,,,,,,,,,,,,,,,,,,178.63573295899914,178.65794724999978,178.65794724999978,178.65794724999978,178.65794724999978,178.65220737566622,178.65794724999978,178.65794724999978,178.81470204200014,Incorrect! The correct answer is Speaker2. نادرست! پاسخ صحیح گوینده۲ است,1,0.1527408749989263,None,0,59,178.81898170900058,178.83173833399997,180.81711608399928,180.83908512500057,,939355,001,2024-06-30_13h37.20.286,5-22,2024.1.4,None,2024-06-30 13h37.25.801008 +0900,
Images/Speaker1.jpg,Images/Speaker2.jpg,Images/Speaker3.jpg,Images/Speaker4.jpg,Audio/Speaker2_En/P2-3-En.wav,Speaker2,گوینده۲,,,,,,,,,0,59,59,22,180.83908512500057,,,,,,,,,,,,,,,,,,,,,,,,,,,,,,,,,,,,,,,,,,,,,180.81731291699907,180.83908512500057,180.83908512500057,180.83908512500057,180.83908512500057,180.83354925066695,180.83908512500057,180.83908512500057,181.05850283399923,Incorrect! The correct answer is Speaker2. نادرست! پاسخ صحیح گوینده۲ است,1,0.21535299999959534,None,0,60,181.06238629200016,181.07543104199976,183.06249041699994,183.08583675000045,,939355,001,2024-06-30_13h37.20.286,5-22,2024.1.4,None,2024-06-30 13h37.25.801008 +0900,
Images/Speaker1.jpg,Images/Speaker2.jpg,Images/Speaker3.jpg,Images/Speaker4.jpg,Audio/Speaker2_En/P2-13-En.wav,Speaker2,گوینده۲,,,,,,,,,0,60,60,32,183.08583675000045,,,,,,,,,,,,,,,,,,,,,,,,,,,,,,,,,,,,,,,,,,,,,183.06265608399917,183.08583675000045,183.08583675000045,183.08583675000045,183.08583675000045,183.09554733333295,183.08583675000045,183.08583675000045,183.25837391700043,Incorrect! The correct answer is Speaker2. نادرست! پاسخ صحیح گوینده۲ است,1,0.1685940000006667,None,0,61,183.26231587499933,183.27540879200023,185.26555191700027,,,939355,001,2024-06-30_13h37.20.286,5-22,2024.1.4,None,2024-06-30 13h37.25.801008 +0900,
Images/Speaker1.jpg,Images/Speaker2.jpg,Images/Speaker3.jpg,Images/Speaker4.jpg,Audio/Speaker3_En/P3-20-En.wav,Speaker3,گوینده۳,,,,,,,,,0,61,61,59,185.28855062500043,,,,,,,,,,,,,,,,,,,,,,,,,,,,,,,,,,,,,,,,,,,,,185.26573120899957,185.28855062500043,185.28855062500043,185.28855062500043,185.28855062500043,185.28218050066633,185.28855062500043,185.28855062500043,185.46647037500043,Incorrect! The correct answer is Speaker3. نادرست! پاسخ صحیح گوینده۳ است,1,0.17691550000017742,None,0,62,185.47048441699917,185.48314554199897,187.47077779199935,,,939355,001,2024-06-30_13h37.20.286,5-22,2024.1.4,None,2024-06-30 13h37.25.801008 +0900,
Images/Speaker1.jpg,Images/Speaker2.jpg,Images/Speaker3.jpg,Images/Speaker4.jpg,Audio/Speaker4_En/P4-19-En.wav,Speaker4,گوینده۴,,,,,,,,,0,62,62,78,187.49793200000022,,,,,,,,,,,,,,,,,,,,,,,,,,,,,,,,,,,,,,,,,,,,,187.4714142920002,187.49793200000022,187.49793200000022,187.49793200000022,187.49793200000022,187.50393250033318,187.49793200000022,187.49793200000022,187.9247252919995,Incorrect! The correct answer is Speaker4. نادرست! پاسخ صحیح گوینده۴ است,1,0.41555220800000825,None,0,63,187.929004833999,187.94275241700052,189.92800233399976,189.955067375,,939355,001,2024-06-30_13h37.20.286,5-22,2024.1.4,None,2024-06-30 13h37.25.801008 +0900,
Images/Speaker1.jpg,Images/Speaker2.jpg,Images/Speaker3.jpg,Images/Speaker4.jpg,Audio/Speaker3_En/P3-6-En.wav,Speaker3,گوینده۳,,,,,,,,,0,63,63,45,189.955067375,,,,,,,,,,,,,,,,,,,,,,,,,,,,,,,,,,,,,,,,,,,,,189.9286806250002,189.955067375,189.955067375,189.955067375,189.955067375,189.96059483333244,189.955067375,189.955067375,190.17437837500074,Incorrect! The correct answer is Speaker3. نادرست! پاسخ صحیح گوینده۳ است,1,0.21195983399957186,None,0,64,190.17957412500073,190.19335449999926,192.17712508399927,192.19922012499956,,939355,001,2024-06-30_13h37.20.286,5-22,2024.1.4,None,2024-06-30 13h37.25.801008 +0900,
Images/Speaker1.jpg,Images/Speaker2.jpg,Images/Speaker3.jpg,Images/Speaker4.jpg,Audio/Speaker2_En/P2-18-En.wav,Speaker2,گوینده۲,,,,,,,,,0,64,64,37,192.19922012499956,,,,,,,,,,,,,,,,,,,,,,,,,,,,,,,,,,,,,,,,,,,,,192.1772920000003,192.19922012499956,192.19922012499956,192.19922012499956,192.19922012499956,192.19356050066588,192.19922012499956,192.19922012499956,192.37524099999973,Incorrect! The correct answer is Speaker2. نادرست! پاسخ صحیح گوینده۲ است,1,0.1728365830003895,None,0,65,192.3792962919997,192.39218854200044,194.3859171669992,,,939355,001,2024-06-30_13h37.20.286,5-22,2024.1.4,None,2024-06-30 13h37.25.801008 +0900,
Images/Speaker1.jpg,Images/Speaker2.jpg,Images/Speaker3.jpg,Images/Speaker4.jpg,Audio/Speaker2_En/P2-17-En.wav,Speaker2,گوینده۲,,,,,,,,,0,65,65,36,194.4140368749995,,,,,,,,,,,,,,,,,,,,,,,,,,,,,,,,,,,,,,,,,,,,,194.38646162499936,194.4140368749995,194.4140368749995,194.4140368749995,194.4140368749995,194.41906262533354,194.4140368749995,194.4140368749995,194.57490333399983,Incorrect! The correct answer is Speaker2. نادرست! پاسخ صحیح گوینده۲ است,1,0.1597767080002086,None,0,66,194.57864487500046,194.59077274999981,196.5742210419994,196.59673566700076,,939355,001,2024-06-30_13h37.20.286,5-22,2024.1.4,None,2024-06-30 13h37.25.801008 +0900,
Images/Speaker1.jpg,Images/Speaker2.jpg,Images/Speaker3.jpg,Images/Speaker4.jpg,Audio/Speaker3_En/P3-17-En.wav,Speaker3,گوینده۳,,,,,,,,,0,66,66,56,196.59673566700076,,,,,,,,,,,,,,,,,,,,,,,,,,,,,,,,,,,,,,,,,,,,,196.5743802500001,196.59673566700076,196.59673566700076,196.59673566700076,196.59673566700076,196.59061904166654,196.59673566700076,196.59673566700076,196.6851306669996,Incorrect! The correct answer is Speaker3. نادرست! پاسخ صحیح گوینده۳ است,1,0.08631337500082736,None,0,67,196.6890059590005,196.70188170899928,198.6908694169997,,,939355,001,2024-06-30_13h37.20.286,5-22,2024.1.4,None,2024-06-30 13h37.25.801008 +0900,
Images/Speaker1.jpg,Images/Speaker2.jpg,Images/Speaker3.jpg,Images/Speaker4.jpg,Audio/Speaker3_En/P3-19-En.wav,Speaker3,گوینده۳,,,,,,,,,0,67,67,58,198.71525066699905,,,,,,,,,,,,,,,,,,,,,,,,,,,,,,,,,,,,,,,,,,,,,198.69104512500053,198.71525066699905,198.71525066699905,198.71525066699905,198.71525066699905,198.7241627083336,198.71525066699905,198.71525066699905,198.7941730420007,Incorrect! The correct answer is Speaker3. نادرست! پاسخ صحیح گوینده۳ است,1,0.07677479200174275,None,0,68,198.7983581669996,198.81128129199897,200.7952865419993,200.81834695900034,,939355,001,2024-06-30_13h37.20.286,5-22,2024.1.4,None,2024-06-30 13h37.25.801008 +0900,
Images/Speaker1.jpg,Images/Speaker2.jpg,Images/Speaker3.jpg,Images/Speaker4.jpg,Audio/Speaker2_En/P2-15-En.wav,Speaker2,گوینده۲,,,,,,,,,0,68,68,34,200.81834695900034,,,,,,,,,,,,,,,,,,,,,,,,,,,,,,,,,,,,,,,,,,,,,200.79548658400017,200.81834695900034,200.81834695900034,200.81834695900034,200.81834695900034,200.8284111673334,200.81834695900034,200.81834695900034,200.94583512499958,Incorrect! The correct answer is Speaker2. نادرست! پاسخ صحیح گوینده۲ است,1,0.1261591659986152,None,0,69,200.94994991699969,200.9628154589991,202.95021983399965,202.97304649999933,,939355,001,2024-06-30_13h37.20.286,5-22,2024.1.4,None,2024-06-30 13h37.25.801008 +0900,
Images/Speaker1.jpg,Images/Speaker2.jpg,Images/Speaker3.jpg,Images/Speaker4.jpg,Audio/Speaker4_En/P4-3-En.wav,Speaker4,گوینده۴,,,,,,,,,0,69,69,62,202.97304649999933,,,,,,,,,,,,,,,,,,,,,,,,,,,,,,,,,,,,,,,,,,,,,202.95040812499974,202.97304649999933,202.97304649999933,202.97304649999933,202.97304649999933,202.96658133366716,202.97304649999933,202.97304649999933,202.9736535840002,Incorrect! The correct answer is Speaker4. نادرست! پاسخ صحیح گوینده۴ است,1,1.9998984159992688,None,0,70,202.97742149999976,202.98873629199988,204.97289308399922,204.99716112500028,,939355,001,2024-06-30_13h37.20.286,5-22,2024.1.4,None,2024-06-30 13h37.25.801008 +0900,
Images/Speaker1.jpg,Images/Speaker2.jpg,Images/Speaker3.jpg,Images/Speaker4.jpg,Audio/Speaker4_En/P4-6-En.wav,Speaker4,گوینده۴,,,,,,,,,0,70,70,65,204.99716112500028,,,,,,,,,,,,,,,,,,,,,,,,,,,,,,,,,,,,,,,,,,,,,204.9730598339993,204.99716112500028,204.99716112500028,204.99716112500028,204.99716112500028,205.00598875033262,204.99716112500028,204.99716112500028,204.99779570899955,Incorrect! The correct answer is Speaker4. نادرست! پاسخ صحیح گوینده۴ است,1,1.943960208000135,None,0,71,204.99805016699975,205.0076527500005,206.99984341699928,,,939355,001,2024-06-30_13h37.20.286,5-22,2024.1.4,None,2024-06-30 13h37.25.801008 +0900,
Images/Speaker1.jpg,Images/Speaker2.jpg,Images/Speaker3.jpg,Images/Speaker4.jpg,Audio/Speaker1_En/P1-9-En.wav,Speaker1,گوینده ۱,,,,,,,,,0,71,71,8,207.02240595900003,,,,,,,,,,,,,,,,,,,,,,,,,,,,,,,,,,,,,,,,,,,,,206.99999237500015,207.02240595900003,207.02240595900003,207.02240595900003,207.02240595900003,207.0164786666667,207.02240595900003,207.02240595900003,207.224247791999,Correct! صحیح است,1,0.200265749999744,None,0,72,207.22840729199925,207.23970083399945,209.22652420899976,209.25336741699903,,939355,001,2024-06-30_13h37.20.286,5-22,2024.1.4,None,2024-06-30 13h37.25.801008 +0900,
Images/Speaker1.jpg,Images/Speaker2.jpg,Images/Speaker3.jpg,Images/Speaker4.jpg,Audio/Speaker3_En/P3-10-En.wav,Speaker3,گوینده۳,,,,,,,,,0,72,72,49,209.25336741699903,,,,,,,,,,,,,,,,,,,,,,,,,,,,,,,,,,,,,,,,,,,,,209.2270517500001,209.25336741699903,209.25336741699903,209.25336741699903,209.25336741699903,209.25895870833352,209.25336741699903,209.25336741699903,209.41499858399948,Incorrect! The correct answer is Speaker3. نادرست! پاسخ صحیح گوینده۳ است,1,0.15117354199901456,None,0,73,209.41903599999932,209.4319654589999,211.4248156249996,,,939355,001,2024-06-30_13h37.20.286,5-22,2024.1.4,None,2024-06-30 13h37.25.801008 +0900,
Images/Speaker1.jpg,Images/Speaker2.jpg,Images/Speaker3.jpg,Images/Speaker4.jpg,Audio/Speaker3_En/P3-1-En.wav,Speaker3,گوینده۳,,,,,,,,,0,73,73,40,211.44787295899914,,,,,,,,,,,,,,,,,,,,,,,,,,,,,,,,,,,,,,,,,,,,,211.42497120900043,211.44787295899914,211.44787295899914,211.44787295899914,211.44787295899914,211.44142625066732,211.44787295899914,211.44787295899914,211.6258169169996,Incorrect! The correct answer is Speaker3. نادرست! پاسخ صحیح گوینده۳ است,1,0.1676510840006813,None,0,74,211.6296970000003,211.6417357499995,213.62705308399927,213.65174895900054,,939355,001,2024-06-30_13h37.20.286,5-22,2024.1.4,None,2024-06-30 13h37.25.801008 +0900,
Images/Speaker1.jpg,Images/Speaker2.jpg,Images/Speaker3.jpg,Images/Speaker4.jpg,Audio/Speaker1_En/P1-4-En.wav,Speaker1,گوینده ۱,,,,,,,,,0,74,74,13,213.65174895900054,,,,,,,,,,,,,,,,,,,,,,,,,,,,,,,,,,,,,,,,,,,,,213.62775499999952,213.65174895900054,213.65174895900054,213.65174895900054,213.65174895900054,213.6593110423333,213.65174895900054,213.65174895900054,213.8243542500004,Correct! صحیح است,1,0.1687848750007106,None,0,75,213.82842891700056,213.8397422500002,215.83523991699985,,,939355,001,2024-06-30_13h37.20.286,5-22,2024.1.4,None,2024-06-30 13h37.25.801008 +0900,
Images/Speaker1.jpg,Images/Speaker2.jpg,Images/Speaker3.jpg,Images/Speaker4.jpg,Audio/Speaker1_En/P1-16-En.wav,Speaker1,گوینده ۱,,,,,,,,,0,75,75,15,215.86359441700006,,,,,,,,,,,,,,,,,,,,,,,,,,,,,,,,,,,,,,,,,,,,,215.83588870899985,215.86359441700006,215.86359441700006,215.86359441700006,215.86359441700006,215.86839520833252,215.86359441700006,215.86359441700006,216.07539358400027,Correct! صحیح است,1,0.20249325000077079,None,0,76,216.07970224999917,216.0909400420005,218.07494641700032,218.09777454200048,,939355,001,2024-06-30_13h37.20.286,5-22,2024.1.4,None,2024-06-30 13h37.25.801008 +0900,
Images/Speaker1.jpg,Images/Speaker2.jpg,Images/Speaker3.jpg,Images/Speaker4.jpg,Audio/Speaker3_En/P3-16-En.wav,Speaker3,گوینده۳,,,,,,,,,0,76,76,55,218.09777454200048,,,,,,,,,,,,,,,,,,,,,,,,,,,,,,,,,,,,,,,,,,,,,218.07511966700076,218.09777454200048,218.09777454200048,218.09777454200048,218.09777454200048,218.09139541666653,218.09777454200048,218.09777454200048,218.33243087499977,Incorrect! The correct answer is Speaker3. نادرست! پاسخ صحیح گوینده۳ است,1,0.2336107089995494,None,0,77,218.33626725000067,218.34902966700065,220.33522466700015,220.36173041700022,,939355,001,2024-06-30_13h37.20.286,5-22,2024.1.4,None,2024-06-30 13h37.25.801008 +0900,
Images/Speaker1.jpg,Images/Speaker2.jpg,Images/Speaker3.jpg,Images/Speaker4.jpg,Audio/Speaker2_En/P2-10-En.wav,Speaker2,گوینده۲,,,,,,,,,0,77,77,29,220.36173041700022,,,,,,,,,,,,,,,,,,,,,,,,,,,,,,,,,,,,,,,,,,,,,220.33595887499905,220.36173041700022,220.36173041700022,220.36173041700022,220.36173041700022,220.36751387533383,220.36173041700022,220.36173041700022,220.62508437500037,Incorrect! The correct answer is Speaker2. نادرست! پاسخ صحیح گوینده۲ است,1,0.2597750419990916,None,0,78,220.62877229200058,220.64205129199945,222.62697995899907,222.65298599999915,,939355,001,2024-06-30_13h37.20.286,5-22,2024.1.4,None,2024-06-30 13h37.25.801008 +0900,
Images/Speaker1.jpg,Images/Speaker2.jpg,Images/Speaker3.jpg,Images/Speaker4.jpg,Audio/Speaker2_En/P2-1-En.wav,Speaker2,گوینده۲,,,,,,,,,0,78,78,20,222.65298599999915,,,,,,,,,,,,,,,,,,,,,,,,,,,,,,,,,,,,,,,,,,,,,222.6275177919997,222.65298599999915,222.65298599999915,222.65298599999915,222.65298599999915,222.6594343333332,222.65298599999915,222.65298599999915,223.92615183399903,Incorrect! The correct answer is Speaker2. نادرست! پاسخ صحیح گوینده۲ است,1,1.2721092920000956,None,0,79,223.9301201670005,223.94272249999995,225.93359420900015,,,939355,001,2024-06-30_13h37.20.286,5-22,2024.1.4,None,2024-06-30 13h37.25.801008 +0900,
Images/Speaker1.jpg,Images/Speaker2.jpg,Images/Speaker3.jpg,Images/Speaker4.jpg,Audio/Speaker3_En/P3-2-En.wav,Speaker3,گوینده۳,,,,,,,,,0,79,79,41,225.96028504199967,,,,,,,,,,,,,,,,,,,,,,,,,,,,,,,,,,,,,,,,,,,,,225.93421504199978,225.96028504199967,225.96028504199967,225.96028504199967,225.96028504199967,225.96676204233387,225.96028504199967,225.96028504199967,227.1687714590007,Incorrect! The correct answer is Speaker3. نادرست! پاسخ صحیح گوینده۳ است,1,1.203011207999225,None,0,80,227.17263087500032,227.18588579199968,229.1722906670002,,,939355,001,2024-06-30_13h37.20.286,5-22,2024.1.4,None,2024-06-30 13h37.25.801008 +0900,
,,,,,,,,,,,,,,,,,,,,,,,,,,,,,,,,,,,,,,,,,,,,,,,,,,,,,,,,,,,,,,,,,,,,,,,,,,,,,,,,,,,229.17233399999895,,,,,,,,
