SpeakerImage1,SpeakerImage2,SpeakerImage3,SpeakerImage4,TrainingSound,EnglishCorrectAnswer,PersianCorrectAnswer,SpeakerPhoto1,SpeakerPhoto2,SpeakerPhoto3,SpeakerPhoto4,TestingSound,EnglishCorrectResponse,PersianCorrectResponse,TrainingLoopGroup1.thisRepN,TrainingLoopGroup1.thisTrialN,TrainingLoopGroup1.thisN,TrainingLoopGroup1.thisIndex,TrainingLoopGroup2.thisRepN,TrainingLoopGroup2.thisTrialN,TrainingLoopGroup2.thisN,TrainingLoopGroup2.thisIndex,TrainingLoopGroup3.thisRepN,TrainingLoopGroup3.thisTrialN,TrainingLoopGroup3.thisN,TrainingLoopGroup3.thisIndex,testPhase1Loop.thisRepN,testPhase1Loop.thisTrialN,testPhase1Loop.thisN,testPhase1Loop.thisIndex,testPhase2Loop.thisRepN,testPhase2Loop.thisTrialN,testPhase2Loop.thisN,testPhase2Loop.thisIndex,testPhase3Loop.thisRepN,testPhase3Loop.thisTrialN,testPhase3Loop.thisN,testPhase3Loop.thisIndex,thisRow.t,notes,trial.started,trial.stopped,GroupSelection.started,GroupInstructions.started,key_resp.started,GroupSelection.stopped,key_resp.keys,key_resp.rt,key_resp.duration,Introduction.started,text_2.started,image.started,sound_7.started,text_4.started,text_2.stopped,sound_8.started,image.stopped,text_4.stopped,image_7.started,sound_9.started,text_5.started,sound_10.started,image_7.stopped,text_5.stopped,image_8.started,sound_11.started,text_6.started,sound_12.started,image_8.stopped,text_6.stopped,image_9.started,sound_13.started,text_7.started,sound_14.started,image_9.stopped,text_7.stopped,Introduction.stopped,Instructions.started,InstructionText.started,InstructionText.stopped,Instructions.stopped,InitializeExperiment.started,InitializeExperiment.stopped,TrainingGroup3.started,SpeakerPicture3.started,image_15.started,image_16.started,image_17.started,Sound3.started,Instruction3.started,Response3.started,TrainingGroup3.stopped,feedbackText,Response3.keys,Response3.rt,Response3.duration,correct_responses_group3,total_trials_group3,FeedbackRoutine3.started,FeedbackText3.started,FeedbackText3.stopped,FeedbackRoutine3.stopped,CheckAccuracy.started,accuracy_group1,accuracy_group2,accuracy_group3,proceed_to_test,CheckAccuracy.stopped,WelcomeTest.started,text_12.started,text_12.stopped,WelcomeTest.stopped,TestPhase1.started,TestPhase1.stopped,test1_response_keyboard.keys,test1_response,test1_image_file1,test1_image_file2,test1_image_file3,test1_image_file4,test1_sound_file,english_correct_answer,persian_correct_answer,TestPhase2.started,TestPhase2.stopped,test2_response_keyboard.keys,test2_response,test2_image_file1,test2_image_file2,test2_image_file3,test2_image_file4,test2_sound_file,TestPhase3.started,test3_image1.started,test3_image2.started,test3_image3.started,test3_image4.started,test3_sound.started,text_10.started,test3_response_keyboard.started,TestPhase3.stopped,test3_response_keyboard.keys,test3_response_keyboard.rt,test3_response_keyboard.duration,test3_response,test3_image_file1,test3_image_file2,test3_image_file3,test3_image_file4,test3_sound_file,participant,session,date,expName,psychopyVersion,frameRate,expStart,
,,,,,,,,,,,,,,,,,,,,,,,,,,,,,,,,,,,,,,,,0.009454208000533981,0.00976516700029606,,,,,,,,,,,,,,,,,,,,,,,,,,,,,,,,,,,,,,,,,,,,,,,,,,,,,,,,,,,,,,,,,,,,,,,,,,,,,,,,,,,,,,,,,,,,,,,,,,,,,,,,,,,,,966632,001,2024-06-30_17h43.24.255,5-24,2024.1.4,None,2024-06-30 17h43.29.556973 +0900,
,,,,,,,,,,,,,,,,,,,,,,,,,,,,,,,,,,,,,,,,,,0.009787417002371512,0.014111958000285085,0.014111958000285085,0.5025128750021395,3,0.45514216700030374,None,,,,,,,,,,,,,,,,,,,,,,,,,,,,,,,,,,,,,,,,,,,,,,,,,,,,,,,,,,,,,,,,,,,,,,,,,,,,,,,,,,,,,,,,,,,,,,,,,,,,,,966632,001,2024-06-30_17h43.24.255,5-24,2024.1.4,None,2024-06-30 17h43.29.556973 +0900,
,,,,,,,,,,,,,,,,,,,,,,,,,,,,,,,,,,,,,,,,,,,,,,,,,0.502544000002672,0.5531245420024788,5.493760125002154,5.503835708667126,5.493760125002154,5.542378750000353,10.50162745866716,15.49837833300262,15.49837833300262,15.49837833300262,15.506748916668828,15.49837833300262,20.505595333667102,25.49674516700179,25.49674516700179,25.500998999999865,25.513411833668457,25.500998999999865,30.50608345866955,35.496136542002205,35.496136542002205,35.496136542002205,35.50766387466889,35.496136542002205,40.502002249668536,45.48985829199955,45.48985829199955,45.479552000000695,,,,,,,,,,,,,,,,,,,,,,,,,,,,,,,,,,,,,,,,,,,,,,,,,,,,,,,,,,,,,,,,,,,,,,,,,,966632,001,2024-06-30_17h43.24.255,5-24,2024.1.4,None,2024-06-30 17h43.29.556973 +0900,
,,,,,,,,,,,,,,,,,,,,,,,,,,,,,,,,,,,,,,,,,,,,,,,,,,,,,,,,,,,,,,,,,,,,,,,,,,,,,45.47956691700165,45.49572108299981,46.56349220800257,46.48298862500087,,,,,,,,,,,,,,,,,,,,,,,,,,,,,,,,,,,,,,,,,,,,,,,,,,,,,,,,,,,,,,,,,,,,,,966632,001,2024-06-30_17h43.24.255,5-24,2024.1.4,None,2024-06-30 17h43.29.556973 +0900,
,,,,,,,,,,,,,,,,,,,,,,,,,,,,,,,,,,,,,,,,,,,,,,,,,,,,,,,,,,,,,,,,,,,,,,,,,,,,,,,,,46.48302233300274,46.48335733299973,,,,,,,,,,,,,,,,,,,,,,,,,,,,,,,,,,,,,,,,,,,,,,,,,,,,,,,,,,,,,,,,,,,,966632,001,2024-06-30_17h43.24.255,5-24,2024.1.4,None,2024-06-30 17h43.29.556973 +0900,
Images/Speaker1.jpg,Images/Speaker2.jpg,Images/Speaker3.jpg,Images/Speaker4.jpg,Audio/Speaker1_En/P1-11-En.wav,Speaker1,گوینده ۱,,,,,,,,,,,,,,,,0,0,0,10,,,,,,,,,,,,,46.56349220800257,,,,,,,,,,,,,,,,,,,,,,,,,,,,,,,,,,,,,,,,,,,,,46.53780604200074,46.56349220800257,46.56349220800257,46.56349220800257,46.56349220800257,46.56552783333367,46.56349220800257,46.56349220800257,47.781179083001916,Correct! صحیح است,1,1.2048963749984978,None,0,1,47.78575316700153,47.79589458299961,49.808850083001744,49.78270437500032,,,,,,,,,,,,,,,,,,,,,,,,,,,,,,,,,,,,,,,,,,,,,,,,,966632,001,2024-06-30_17h43.24.255,5-24,2024.1.4,None,2024-06-30 17h43.29.556973 +0900,
Images/Speaker1.jpg,Images/Speaker2.jpg,Images/Speaker3.jpg,Images/Speaker4.jpg,Audio/Speaker3_En/P3-5-En.wav,Speaker3,گوینده۳,,,,,,,,,,,,,,,,0,1,1,44,,,,,,,,,,,,,49.808850083001744,,,,,,,,,,,,,,,,,,,,,,,,,,,,,,,,,,,,,,,,,,,,,49.78329895800198,49.808850083001744,49.808850083001744,49.808850083001744,49.808850083001744,49.81506808333555,49.808850083001744,49.808850083001744,50.9643119579996,Incorrect! The correct answer is Speaker3. نادرست! پاسخ صحیح گوینده۳ است,1,1.149397457997111,None,0,2,50.96828504199948,50.987830042002315,,52.9744345830004,,,,,,,,,,,,,,,,,,,,,,,,,,,,,,,,,,,,,,,,,,,,,,,,,966632,001,2024-06-30_17h43.24.255,5-24,2024.1.4,None,2024-06-30 17h43.29.556973 +0900,
Images/Speaker1.jpg,Images/Speaker2.jpg,Images/Speaker3.jpg,Images/Speaker4.jpg,Audio/Speaker4_En/P4-15-En.wav,Speaker4,گوینده۴,,,,,,,,,,,,,,,,0,2,2,74,,,,,,,,,,,,,53.0014039580019,,,,,,,,,,,,,,,,,,,,,,,,,,,,,,,,,,,,,,,,,,,,,52.975019583001995,53.0014039580019,53.0014039580019,53.0014039580019,53.0014039580019,53.00760104133272,53.0014039580019,53.0014039580019,53.339664958002686,Incorrect! The correct answer is Speaker4. نادرست! پاسخ صحیح گوینده۴ است,1,0.3365543340005388,None,0,3,53.34473287500077,53.35828662499989,55.36346787500224,55.341723000001366,,,,,,,,,,,,,,,,,,,,,,,,,,,,,,,,,,,,,,,,,,,,,,,,,966632,001,2024-06-30_17h43.24.255,5-24,2024.1.4,None,2024-06-30 17h43.29.556973 +0900,
Images/Speaker1.jpg,Images/Speaker2.jpg,Images/Speaker3.jpg,Images/Speaker4.jpg,Audio/Speaker3_En/P3-3-En.wav,Speaker3,گوینده۳,,,,,,,,,,,,,,,,0,3,3,42,,,,,,,,,,,,,55.36346787500224,,,,,,,,,,,,,,,,,,,,,,,,,,,,,,,,,,,,,,,,,,,,,55.34189704200253,55.36346787500224,55.36346787500224,55.36346787500224,55.36346787500224,55.358214374668265,55.36346787500224,55.36346787500224,55.41208233300131,Incorrect! The correct answer is Speaker3. نادرست! پاسخ صحیح گوینده۳ است,1,0.04658454200034612,None,0,4,55.41617537500133,55.429246916999546,57.438851792001515,57.41568104200269,,,,,,,,,,,,,,,,,,,,,,,,,,,,,,,,,,,,,,,,,,,,,,,,,966632,001,2024-06-30_17h43.24.255,5-24,2024.1.4,None,2024-06-30 17h43.29.556973 +0900,
Images/Speaker1.jpg,Images/Speaker2.jpg,Images/Speaker3.jpg,Images/Speaker4.jpg,Audio/Speaker2_En/P2-4-En.wav,Speaker2,گوینده۲,,,,,,,,,,,,,,,,0,4,4,23,,,,,,,,,,,,,57.438851792001515,,,,,,,,,,,,,,,,,,,,,,,,,,,,,,,,,,,,,,,,,,,,,57.41616816700116,57.438851792001515,57.438851792001515,57.438851792001515,57.438851792001515,57.44826037533542,57.438851792001515,57.438851792001515,57.65741141699982,Incorrect! The correct answer is Speaker2. نادرست! پاسخ صحیح گوینده۲ است,1,0.2055907499998284,None,0,5,57.66274191699995,57.67611791700256,59.68201941699954,59.65961183300169,,,,,,,,,,,,,,,,,,,,,,,,,,,,,,,,,,,,,,,,,,,,,,,,,966632,001,2024-06-30_17h43.24.255,5-24,2024.1.4,None,2024-06-30 17h43.29.556973 +0900,
Images/Speaker1.jpg,Images/Speaker2.jpg,Images/Speaker3.jpg,Images/Speaker4.jpg,Audio/Speaker2_En/P2-17-En.wav,Speaker2,گوینده۲,,,,,,,,,,,,,,,,0,5,5,36,,,,,,,,,,,,,59.68201941699954,,,,,,,,,,,,,,,,,,,,,,,,,,,,,,,,,,,,,,,,,,,,,59.66041083299933,59.68201941699954,59.68201941699954,59.68201941699954,59.68201941699954,59.69211191633488,59.68201941699954,59.68201941699954,59.68255408299956,Incorrect! The correct answer is Speaker2. نادرست! پاسخ صحیح گوینده۲ است,1,2.1142212499980815,None,0,6,59.68298241700177,59.692880292001064,61.70110075000048,61.67933012499998,,,,,,,,,,,,,,,,,,,,,,,,,,,,,,,,,,,,,,,,,,,,,,,,,966632,001,2024-06-30_17h43.24.255,5-24,2024.1.4,None,2024-06-30 17h43.29.556973 +0900,
Images/Speaker1.jpg,Images/Speaker2.jpg,Images/Speaker3.jpg,Images/Speaker4.jpg,Audio/Speaker2_En/P2-13-En.wav,Speaker2,گوینده۲,,,,,,,,,,,,,,,,0,6,6,32,,,,,,,,,,,,,61.70110075000048,,,,,,,,,,,,,,,,,,,,,,,,,,,,,,,,,,,,,,,,,,,,,61.6794992920004,61.70110075000048,61.70110075000048,61.70110075000048,61.70110075000048,61.69570191666595,61.70110075000048,61.70110075000048,61.70167083300112,Incorrect! The correct answer is Speaker2. نادرست! پاسخ صحیح گوینده۲ است,1,1.8320430839994515,None,0,7,61.70545554199998,61.71534166700076,,63.70720204200188,,,,,,,,,,,,,,,,,,,,,,,,,,,,,,,,,,,,,,,,,,,,,,,,,966632,001,2024-06-30_17h43.24.255,5-24,2024.1.4,None,2024-06-30 17h43.29.556973 +0900,
Images/Speaker1.jpg,Images/Speaker2.jpg,Images/Speaker3.jpg,Images/Speaker4.jpg,Audio/Speaker1_En/P1-17-En.wav,Speaker1,گوینده ۱,,,,,,,,,,,,,,,,0,7,7,16,,,,,,,,,,,,,63.733381375001045,,,,,,,,,,,,,,,,,,,,,,,,,,,,,,,,,,,,,,,,,,,,,63.70788837500004,63.733381375001045,63.733381375001045,63.733381375001045,63.733381375001045,63.74033341633597,63.733381375001045,63.733381375001045,63.73391545800041,Correct! صحیح است,1,1.4075740839980426,None,0,8,63.73420820799947,63.74265516699961,65.75364908300253,65.73066270799973,,,,,,,,,,,,,,,,,,,,,,,,,,,,,,,,,,,,,,,,,,,,,,,,,966632,001,2024-06-30_17h43.24.255,5-24,2024.1.4,None,2024-06-30 17h43.29.556973 +0900,
Images/Speaker1.jpg,Images/Speaker2.jpg,Images/Speaker3.jpg,Images/Speaker4.jpg,Audio/Speaker3_En/P3-10-En.wav,Speaker3,گوینده۳,,,,,,,,,,,,,,,,0,8,8,49,,,,,,,,,,,,,65.75364908300253,,,,,,,,,,,,,,,,,,,,,,,,,,,,,,,,,,,,,,,,,,,,,65.7314057500007,65.75364908300253,65.75364908300253,65.75364908300253,65.75364908300253,65.76327412533331,65.75364908300253,65.75364908300253,65.75421383300272,Incorrect! The correct answer is Speaker3. نادرست! پاسخ صحیح گوینده۳ است,1,0.22528699999747914,None,0,9,65.75454141700175,65.76409191700077,,67.75863400000162,,,,,,,,,,,,,,,,,,,,,,,,,,,,,,,,,,,,,,,,,,,,,,,,,966632,001,2024-06-30_17h43.24.255,5-24,2024.1.4,None,2024-06-30 17h43.29.556973 +0900,
Images/Speaker1.jpg,Images/Speaker2.jpg,Images/Speaker3.jpg,Images/Speaker4.jpg,Audio/Speaker4_En/P4-17-En.wav,Speaker4,گوینده۴,,,,,,,,,,,,,,,,0,9,9,76,,,,,,,,,,,,,67.77982075000182,,,,,,,,,,,,,,,,,,,,,,,,,,,,,,,,,,,,,,,,,,,,,67.7587982920013,67.77982075000182,67.77982075000182,67.77982075000182,67.77982075000182,67.77526008366864,67.77982075000182,67.77982075000182,67.78034295800171,Incorrect! The correct answer is Speaker4. نادرست! پاسخ صحیح گوینده۴ است,1,0.20811749999847962,None,0,10,67.78445654200186,67.79472108300251,69.80435237500205,69.78156491700065,,,,,,,,,,,,,,,,,,,,,,,,,,,,,,,,,,,,,,,,,,,,,,,,,966632,001,2024-06-30_17h43.24.255,5-24,2024.1.4,None,2024-06-30 17h43.29.556973 +0900,
Images/Speaker1.jpg,Images/Speaker2.jpg,Images/Speaker3.jpg,Images/Speaker4.jpg,Audio/Speaker1_En/P1-13-En.wav,Speaker1,گوینده ۱,,,,,,,,,,,,,,,,0,10,10,12,,,,,,,,,,,,,69.80435237500205,,,,,,,,,,,,,,,,,,,,,,,,,,,,,,,,,,,,,,,,,,,,,69.78214658300203,69.80435237500205,69.80435237500205,69.80435237500205,69.80435237500205,69.81359412533541,69.80435237500205,69.80435237500205,71.0076375000026,Correct! صحیح است,1,1.1954931250002119,None,0,11,71.01181095799984,71.02172154200161,73.02723212500132,73.00650091699936,,,,,,,,,,,,,,,,,,,,,,,,,,,,,,,,,,,,,,,,,,,,,,,,,966632,001,2024-06-30_17h43.24.255,5-24,2024.1.4,None,2024-06-30 17h43.29.556973 +0900,
Images/Speaker1.jpg,Images/Speaker2.jpg,Images/Speaker3.jpg,Images/Speaker4.jpg,Audio/Speaker4_En/P4-1-En.wav,Speaker4,گوینده۴,,,,,,,,,,,,,,,,0,11,11,60,,,,,,,,,,,,,73.02723212500132,,,,,,,,,,,,,,,,,,,,,,,,,,,,,,,,,,,,,,,,,,,,,73.00668391699946,73.02723212500132,73.02723212500132,73.02723212500132,73.02723212500132,73.02291249966608,73.02723212500132,73.02723212500132,74.06657304200053,Incorrect! The correct answer is Speaker4. نادرست! پاسخ صحیح گوینده۴ است,1,1.0358474579988979,None,0,12,74.07074929200098,74.08398108300025,76.09080250000261,76.06863829199938,,,,,,,,,,,,,,,,,,,,,,,,,,,,,,,,,,,,,,,,,,,,,,,,,966632,001,2024-06-30_17h43.24.255,5-24,2024.1.4,None,2024-06-30 17h43.29.556973 +0900,
Images/Speaker1.jpg,Images/Speaker2.jpg,Images/Speaker3.jpg,Images/Speaker4.jpg,Audio/Speaker3_En/P3-15-En.wav,Speaker3,گوینده۳,,,,,,,,,,,,,,,,0,12,12,54,,,,,,,,,,,,,76.09080250000261,,,,,,,,,,,,,,,,,,,,,,,,,,,,,,,,,,,,,,,,,,,,,76.06884133300264,76.09080250000261,76.09080250000261,76.09080250000261,76.09080250000261,76.08503258366933,76.09080250000261,76.09080250000261,78.5635714170021,Correct! صحیح است,3,2.463925583000673,None,0,13,78.56873141700271,78.58114083300097,,80.57249312500062,,,,,,,,,,,,,,,,,,,,,,,,,,,,,,,,,,,,,,,,,,,,,,,,,966632,001,2024-06-30_17h43.24.255,5-24,2024.1.4,None,2024-06-30 17h43.29.556973 +0900,
Images/Speaker1.jpg,Images/Speaker2.jpg,Images/Speaker3.jpg,Images/Speaker4.jpg,Audio/Speaker1_En/P1-9-En.wav,Speaker1,گوینده ۱,,,,,,,,,,,,,,,,0,13,13,8,,,,,,,,,,,,,80.59666816699973,,,,,,,,,,,,,,,,,,,,,,,,,,,,,,,,,,,,,,,,,,,,,80.57313245800106,80.59666816699973,80.59666816699973,80.59666816699973,80.59666816699973,80.60565225033545,80.59666816699973,80.59666816699973,81.28058220800085,Correct! صحیح است,1,0.6748514999999315,None,0,14,81.2843825830023,81.29359225000007,83.30475962499986,83.2815186250009,,,,,,,,,,,,,,,,,,,,,,,,,,,,,,,,,,,,,,,,,,,,,,,,,966632,001,2024-06-30_17h43.24.255,5-24,2024.1.4,None,2024-06-30 17h43.29.556973 +0900,
Images/Speaker1.jpg,Images/Speaker2.jpg,Images/Speaker3.jpg,Images/Speaker4.jpg,Audio/Speaker2_En/P2-7-En.wav,Speaker2,گوینده۲,,,,,,,,,,,,,,,,0,14,14,26,,,,,,,,,,,,,83.30475962499986,,,,,,,,,,,,,,,,,,,,,,,,,,,,,,,,,,,,,,,,,,,,,83.28210670800036,83.30475962499986,83.30475962499986,83.30475962499986,83.30475962499986,83.31400741633527,83.30475962499986,83.30475962499986,84.10630979200141,Incorrect! The correct answer is Speaker2. نادرست! پاسخ صحیح گوینده۲ است,1,0.8005102499992063,None,0,15,84.11030008300077,84.12307483300174,,86.1118837920003,,,,,,,,,,,,,,,,,,,,,,,,,,,,,,,,,,,,,,,,,,,,,,,,,966632,001,2024-06-30_17h43.24.255,5-24,2024.1.4,None,2024-06-30 17h43.29.556973 +0900,
Images/Speaker1.jpg,Images/Speaker2.jpg,Images/Speaker3.jpg,Images/Speaker4.jpg,Audio/Speaker1_En/P1-8-En.wav,Speaker1,گوینده ۱,,,,,,,,,,,,,,,,0,15,15,7,,,,,,,,,,,,,86.13373325000066,,,,,,,,,,,,,,,,,,,,,,,,,,,,,,,,,,,,,,,,,,,,,86.11205112500102,86.13373325000066,86.13373325000066,86.13373325000066,86.13373325000066,86.12851487466857,86.13373325000066,86.13373325000066,86.18305650000184,Correct! صحیح است,1,0.04092095899977721,None,0,16,86.18683516700185,86.1980932080005,,88.19125670799986,,,,,,,,,,,,,,,,,,,,,,,,,,,,,,,,,,,,,,,,,,,,,,,,,966632,001,2024-06-30_17h43.24.255,5-24,2024.1.4,None,2024-06-30 17h43.29.556973 +0900,
Images/Speaker1.jpg,Images/Speaker2.jpg,Images/Speaker3.jpg,Images/Speaker4.jpg,Audio/Speaker4_En/P4-12-En.wav,Speaker4,گوینده۴,,,,,,,,,,,,,,,,0,16,16,71,,,,,,,,,,,,,88.2165778330018,,,,,,,,,,,,,,,,,,,,,,,,,,,,,,,,,,,,,,,,,,,,,88.19186520800213,88.2165778330018,88.2165778330018,88.2165778330018,88.2165778330018,88.22440491633509,88.2165778330018,88.2165778330018,88.59711304200027,Incorrect! The correct answer is Speaker4. نادرست! پاسخ صحیح گوینده۴ است,1,0.37459108300026855,None,0,17,88.601257833001,88.6143746250018,,90.60196862500015,,,,,,,,,,,,,,,,,,,,,,,,,,,,,,,,,,,,,,,,,,,,,,,,,966632,001,2024-06-30_17h43.24.255,5-24,2024.1.4,None,2024-06-30 17h43.29.556973 +0900,
Images/Speaker1.jpg,Images/Speaker2.jpg,Images/Speaker3.jpg,Images/Speaker4.jpg,Audio/Speaker1_En/P1-12-En.wav,Speaker1,گوینده ۱,,,,,,,,,,,,,,,,0,17,17,11,,,,,,,,,,,,,90.62707175000105,,,,,,,,,,,,,,,,,,,,,,,,,,,,,,,,,,,,,,,,,,,,,90.6025345420021,90.62707175000105,90.62707175000105,90.62707175000105,90.62707175000105,90.63514287533374,90.62707175000105,90.62707175000105,91.71986537500197,Correct! صحیح است,1,1.085684957997728,None,0,18,91.72406037499968,91.73332075000144,93.74116604200026,93.71918287500012,,,,,,,,,,,,,,,,,,,,,,,,,,,,,,,,,,,,,,,,,,,,,,,,,966632,001,2024-06-30_17h43.24.255,5-24,2024.1.4,None,2024-06-30 17h43.29.556973 +0900,
Images/Speaker1.jpg,Images/Speaker2.jpg,Images/Speaker3.jpg,Images/Speaker4.jpg,Audio/Speaker3_En/P3-7-En.wav,Speaker3,گوینده۳,,,,,,,,,,,,,,,,0,18,18,46,,,,,,,,,,,,,93.74116604200026,,,,,,,,,,,,,,,,,,,,,,,,,,,,,,,,,,,,,,,,,,,,,93.71934875000079,93.74116604200026,93.74116604200026,93.74116604200026,93.74116604200026,93.73558466666897,93.74116604200026,93.74116604200026,94.18946216699987,Incorrect! The correct answer is Speaker3. نادرست! پاسخ صحیح گوینده۳ است,1,0.4421937920014898,None,0,19,94.19345179200172,94.20626358300069,96.21743637500185,96.19121283300046,,,,,,,,,,,,,,,,,,,,,,,,,,,,,,,,,,,,,,,,,,,,,,,,,966632,001,2024-06-30_17h43.24.255,5-24,2024.1.4,None,2024-06-30 17h43.29.556973 +0900,
Images/Speaker1.jpg,Images/Speaker2.jpg,Images/Speaker3.jpg,Images/Speaker4.jpg,Audio/Speaker1_En/P1-4-En.wav,Speaker1,گوینده ۱,,,,,,,,,,,,,,,,0,19,19,13,,,,,,,,,,,,,96.21743637500185,,,,,,,,,,,,,,,,,,,,,,,,,,,,,,,,,,,,,,,,,,,,,96.19183962500028,96.21743637500185,96.21743637500185,96.21743637500185,96.21743637500185,96.22366537533574,96.21743637500185,96.21743637500185,97.21448249999958,Correct! صحیح است,1,0.9877585829999589,None,0,20,97.21879179200187,97.23051116699935,99.23959024999931,99.21754945800058,,,,,,,,,,,,,,,,,,,,,,,,,,,,,,,,,,,,,,,,,,,,,,,,,966632,001,2024-06-30_17h43.24.255,5-24,2024.1.4,None,2024-06-30 17h43.29.556973 +0900,
Images/Speaker1.jpg,Images/Speaker2.jpg,Images/Speaker3.jpg,Images/Speaker4.jpg,Audio/Speaker3_En/P3-4-En.wav,Speaker3,گوینده۳,,,,,,,,,,,,,,,,0,20,20,43,,,,,,,,,,,,,99.23959024999931,,,,,,,,,,,,,,,,,,,,,,,,,,,,,,,,,,,,,,,,,,,,,99.2177551670029,99.23959024999931,99.23959024999931,99.23959024999931,99.23959024999931,99.23392141666797,99.23959024999931,99.23959024999931,99.41297441700226,Incorrect! The correct answer is Speaker3. نادرست! پاسخ صحیح گوینده۳ است,1,0.17152900000291993,None,0,21,99.4169194999995,99.43025195800146,101.43503454200254,101.41292783300014,,,,,,,,,,,,,,,,,,,,,,,,,,,,,,,,,,,,,,,,,,,,,,,,,966632,001,2024-06-30_17h43.24.255,5-24,2024.1.4,None,2024-06-30 17h43.29.556973 +0900,
Images/Speaker1.jpg,Images/Speaker2.jpg,Images/Speaker3.jpg,Images/Speaker4.jpg,Audio/Speaker3_En/P3-13-En.wav,Speaker3,گوینده۳,,,,,,,,,,,,,,,,0,21,21,52,,,,,,,,,,,,,101.43503454200254,,,,,,,,,,,,,,,,,,,,,,,,,,,,,,,,,,,,,,,,,,,,,101.4130936670008,101.43503454200254,101.43503454200254,101.43503454200254,101.43503454200254,101.42937999966695,101.43503454200254,101.43503454200254,102.47126675000254,Incorrect! The correct answer is Speaker3. نادرست! پاسخ صحیح گوینده۳ است,1,1.0295635420006874,None,0,22,102.47536616700017,102.48842508300004,104.4949472920016,104.47376912500113,,,,,,,,,,,,,,,,,,,,,,,,,,,,,,,,,,,,,,,,,,,,,,,,,966632,001,2024-06-30_17h43.24.255,5-24,2024.1.4,None,2024-06-30 17h43.29.556973 +0900,
Images/Speaker1.jpg,Images/Speaker2.jpg,Images/Speaker3.jpg,Images/Speaker4.jpg,Audio/Speaker1_En/P1-19-En.wav,Speaker1,گوینده ۱,,,,,,,,,,,,,,,,0,22,22,18,,,,,,,,,,,,,104.4949472920016,,,,,,,,,,,,,,,,,,,,,,,,,,,,,,,,,,,,,,,,,,,,,104.47391412500292,104.4949472920016,104.4949472920016,104.4949472920016,104.4949472920016,104.49020341666643,104.4949472920016,104.4949472920016,105.10051899999962,Correct! صحیح است,1,0.5928336670003773,None,0,23,105.10442708300252,105.11552441700042,,107.1075535830023,,,,,,,,,,,,,,,,,,,,,,,,,,,,,,,,,,,,,,,,,,,,,,,,,966632,001,2024-06-30_17h43.24.255,5-24,2024.1.4,None,2024-06-30 17h43.29.556973 +0900,
Images/Speaker1.jpg,Images/Speaker2.jpg,Images/Speaker3.jpg,Images/Speaker4.jpg,Audio/Speaker2_En/P2-11-En.wav,Speaker2,گوینده۲,,,,,,,,,,,,,,,,0,23,23,30,,,,,,,,,,,,,107.12915208300183,,,,,,,,,,,,,,,,,,,,,,,,,,,,,,,,,,,,,,,,,,,,,107.10772079200251,107.12915208300183,107.12915208300183,107.12915208300183,107.12915208300183,107.12418108366934,107.12915208300183,107.12915208300183,107.47328070799995,Incorrect! The correct answer is Speaker2. نادرست! پاسخ صحیح گوینده۲ است,1,0.3399710000012419,None,0,24,107.47754345800058,107.49075645800258,,109.48043133300234,,,,,,,,,,,,,,,,,,,,,,,,,,,,,,,,,,,,,,,,,,,,,,,,,966632,001,2024-06-30_17h43.24.255,5-24,2024.1.4,None,2024-06-30 17h43.29.556973 +0900,
Images/Speaker1.jpg,Images/Speaker2.jpg,Images/Speaker3.jpg,Images/Speaker4.jpg,Audio/Speaker3_En/P3-9-En.wav,Speaker3,گوینده۳,,,,,,,,,,,,,,,,0,24,24,48,,,,,,,,,,,,,109.5046148750007,,,,,,,,,,,,,,,,,,,,,,,,,,,,,,,,,,,,,,,,,,,,,109.48060220800107,109.5046148750007,109.5046148750007,109.5046148750007,109.5046148750007,109.51372579133434,109.5046148750007,109.5046148750007,109.60002449999956,Incorrect! The correct answer is Speaker3. نادرست! پاسخ صحیح گوینده۳ است,1,0.09190604199829977,None,0,25,109.60382475000006,109.61588850000044,111.62564883300001,111.59973837500002,,,,,,,,,,,,,,,,,,,,,,,,,,,,,,,,,,,,,,,,,,,,,,,,,966632,001,2024-06-30_17h43.24.255,5-24,2024.1.4,None,2024-06-30 17h43.29.556973 +0900,
Images/Speaker1.jpg,Images/Speaker2.jpg,Images/Speaker3.jpg,Images/Speaker4.jpg,Audio/Speaker4_En/P4-18-En.wav,Speaker4,گوینده۴,,,,,,,,,,,,,,,,0,25,25,77,,,,,,,,,,,,,111.62564883300001,,,,,,,,,,,,,,,,,,,,,,,,,,,,,,,,,,,,,,,,,,,,,111.60044779199961,111.62564883300001,111.62564883300001,111.62564883300001,111.62564883300001,111.63219016633278,111.62564883300001,111.62564883300001,112.08891104199938,Incorrect! The correct answer is Speaker4. نادرست! پاسخ صحیح گوینده۴ است,1,0.4577127080010541,None,0,26,112.09324204199947,112.1062837080026,,114.09639191700262,,,,,,,,,,,,,,,,,,,,,,,,,,,,,,,,,,,,,,,,,,,,,,,,,966632,001,2024-06-30_17h43.24.255,5-24,2024.1.4,None,2024-06-30 17h43.29.556973 +0900,
Images/Speaker1.jpg,Images/Speaker2.jpg,Images/Speaker3.jpg,Images/Speaker4.jpg,Audio/Speaker4_En/P4-2-En.wav,Speaker4,گوینده۴,,,,,,,,,,,,,,,,0,26,26,61,,,,,,,,,,,,,114.11898704200212,,,,,,,,,,,,,,,,,,,,,,,,,,,,,,,,,,,,,,,,,,,,,114.09658087500065,114.11898704200212,114.11898704200212,114.11898704200212,114.11898704200212,114.11302245866706,114.11898704200212,114.11898704200212,114.76821129200107,Incorrect! The correct answer is Speaker4. نادرست! پاسخ صحیح گوینده۴ است,1,0.6434699589990487,None,0,27,114.77298941700064,114.78730308300146,116.79363854199983,116.77318291700067,,,,,,,,,,,,,,,,,,,,,,,,,,,,,,,,,,,,,,,,,,,,,,,,,966632,001,2024-06-30_17h43.24.255,5-24,2024.1.4,None,2024-06-30 17h43.29.556973 +0900,
Images/Speaker1.jpg,Images/Speaker2.jpg,Images/Speaker3.jpg,Images/Speaker4.jpg,Audio/Speaker4_En/P4-20-En.wav,Speaker4,گوینده۴,,,,,,,,,,,,,,,,0,27,27,79,,,,,,,,,,,,,116.79363854199983,,,,,,,,,,,,,,,,,,,,,,,,,,,,,,,,,,,,,,,,,,,,,116.77335958299955,116.79363854199983,116.79363854199983,116.79363854199983,116.79363854199983,116.78960766666957,116.79363854199983,116.79363854199983,117.18382729199948,Incorrect! The correct answer is Speaker4. نادرست! پاسخ صحیح گوینده۴ است,1,0.3809480000018084,None,0,28,117.1879597920015,117.2007537080026,119.20622037500289,119.18434300000081,,,,,,,,,,,,,,,,,,,,,,,,,,,,,,,,,,,,,,,,,,,,,,,,,966632,001,2024-06-30_17h43.24.255,5-24,2024.1.4,None,2024-06-30 17h43.29.556973 +0900,
Images/Speaker1.jpg,Images/Speaker2.jpg,Images/Speaker3.jpg,Images/Speaker4.jpg,Audio/Speaker2_En/P2-16-En.wav,Speaker2,گوینده۲,,,,,,,,,,,,,,,,0,28,28,35,,,,,,,,,,,,,119.20622037500289,,,,,,,,,,,,,,,,,,,,,,,,,,,,,,,,,,,,,,,,,,,,,119.18450941700212,119.20622037500289,119.20622037500289,119.20622037500289,119.20622037500289,119.20081420866724,119.20622037500289,119.20622037500289,119.61870275000183,Incorrect! The correct answer is Speaker2. نادرست! پاسخ صحیح گوینده۲ است,1,0.4076262919988949,None,0,29,119.62262408300012,119.63536308300172,121.64496087500083,121.61871950000204,,,,,,,,,,,,,,,,,,,,,,,,,,,,,,,,,,,,,,,,,,,,,,,,,966632,001,2024-06-30_17h43.24.255,5-24,2024.1.4,None,2024-06-30 17h43.29.556973 +0900,
Images/Speaker1.jpg,Images/Speaker2.jpg,Images/Speaker3.jpg,Images/Speaker4.jpg,Audio/Speaker1_En/P1-2-En.wav,Speaker1,گوینده ۱,,,,,,,,,,,,,,,,0,29,29,1,,,,,,,,,,,,,121.64496087500083,,,,,,,,,,,,,,,,,,,,,,,,,,,,,,,,,,,,,,,,,,,,,121.61974887500037,121.64496087500083,121.64496087500083,121.64496087500083,121.64496087500083,121.6511252083333,121.64496087500083,121.64496087500083,121.82953841700146,Correct! صحیح است,1,0.17865187500137836,None,0,30,121.83326149999994,121.84473104200151,123.85222270799932,123.83109375000276,,,,,,,,,,,,,,,,,,,,,,,,,,,,,,,,,,,,,,,,,,,,,,,,,966632,001,2024-06-30_17h43.24.255,5-24,2024.1.4,None,2024-06-30 17h43.29.556973 +0900,
Images/Speaker1.jpg,Images/Speaker2.jpg,Images/Speaker3.jpg,Images/Speaker4.jpg,Audio/Speaker2_En/P2-8-En.wav,Speaker2,گوینده۲,,,,,,,,,,,,,,,,0,30,30,27,,,,,,,,,,,,,123.85222270799932,,,,,,,,,,,,,,,,,,,,,,,,,,,,,,,,,,,,,,,,,,,,,123.83124887500162,123.85222270799932,123.85222270799932,123.85222270799932,123.85222270799932,123.847533999666,123.85222270799932,123.85222270799932,123.85278250000192,Incorrect! The correct answer is Speaker2. نادرست! پاسخ صحیح گوینده۲ است,1,2.058710917001008,None,0,31,123.85698754199984,123.8669748329994,,125.85830500000156,,,,,,,,,,,,,,,,,,,,,,,,,,,,,,,,,,,,,,,,,,,,,,,,,966632,001,2024-06-30_17h43.24.255,5-24,2024.1.4,None,2024-06-30 17h43.29.556973 +0900,
Images/Speaker1.jpg,Images/Speaker2.jpg,Images/Speaker3.jpg,Images/Speaker4.jpg,Audio/Speaker3_En/P3-19-En.wav,Speaker3,گوینده۳,,,,,,,,,,,,,,,,0,31,31,58,,,,,,,,,,,,,125.8820471250001,,,,,,,,,,,,,,,,,,,,,,,,,,,,,,,,,,,,,,,,,,,,,125.85888929200155,125.8820471250001,125.8820471250001,125.8820471250001,125.8820471250001,125.89144958333466,125.8820471250001,125.8820471250001,126.1100294170028,Incorrect! The correct answer is Speaker3. نادرست! پاسخ صحیح گوینده۳ است,1,0.21869641699959175,None,0,32,126.11421866700039,126.12664841700098,128.13457516700146,128.11303395800132,,,,,,,,,,,,,,,,,,,,,,,,,,,,,,,,,,,,,,,,,,,,,,,,,966632,001,2024-06-30_17h43.24.255,5-24,2024.1.4,None,2024-06-30 17h43.29.556973 +0900,
Images/Speaker1.jpg,Images/Speaker2.jpg,Images/Speaker3.jpg,Images/Speaker4.jpg,Audio/Speaker1_En/P1-6-En.wav,Speaker1,گوینده ۱,,,,,,,,,,,,,,,,0,32,32,5,,,,,,,,,,,,,128.13457516700146,,,,,,,,,,,,,,,,,,,,,,,,,,,,,,,,,,,,,,,,,,,,,128.11320095799965,128.13457516700146,128.13457516700146,128.13457516700146,128.13457516700146,128.12941599966896,128.13457516700146,128.13457516700146,128.76319175000026,Correct! صحیح است,1,0.6238904170022579,None,0,33,128.76782191700113,128.78104808300122,,130.77471425000113,,,,,,,,,,,,,,,,,,,,,,,,,,,,,,,,,,,,,,,,,,,,,,,,,966632,001,2024-06-30_17h43.24.255,5-24,2024.1.4,None,2024-06-30 17h43.29.556973 +0900,
Images/Speaker1.jpg,Images/Speaker2.jpg,Images/Speaker3.jpg,Images/Speaker4.jpg,Audio/Speaker1_En/P1-7-En.wav,Speaker1,گوینده ۱,,,,,,,,,,,,,,,,0,33,33,6,,,,,,,,,,,,,130.79770379200272,,,,,,,,,,,,,,,,,,,,,,,,,,,,,,,,,,,,,,,,,,,,,130.774873958002,130.79770379200272,130.79770379200272,130.79770379200272,130.79770379200272,130.79134499966702,130.79770379200272,130.79770379200272,130.99374250000255,Correct! صحیح است,1,0.18598883300001035,None,0,34,130.99769379200006,131.00606929200148,,132.9996850000025,,,,,,,,,,,,,,,,,,,,,,,,,,,,,,,,,,,,,,,,,,,,,,,,,966632,001,2024-06-30_17h43.24.255,5-24,2024.1.4,None,2024-06-30 17h43.29.556973 +0900,
Images/Speaker1.jpg,Images/Speaker2.jpg,Images/Speaker3.jpg,Images/Speaker4.jpg,Audio/Speaker3_En/P3-8-En.wav,Speaker3,گوینده۳,,,,,,,,,,,,,,,,0,34,34,47,,,,,,,,,,,,,133.02367075000075,,,,,,,,,,,,,,,,,,,,,,,,,,,,,,,,,,,,,,,,,,,,,133.0002667080007,133.02367075000075,133.02367075000075,133.02367075000075,133.02367075000075,133.03284366633358,133.02367075000075,133.02367075000075,133.47715929200058,Incorrect! The correct answer is Speaker3. نادرست! پاسخ صحیح گوینده۳ است,1,0.44889283399970736,None,0,35,133.48114354200152,133.49398341699998,135.50125820800167,135.47917141700236,,,,,,,,,,,,,,,,,,,,,,,,,,,,,,,,,,,,,,,,,,,,,,,,,966632,001,2024-06-30_17h43.24.255,5-24,2024.1.4,None,2024-06-30 17h43.29.556973 +0900,
Images/Speaker1.jpg,Images/Speaker2.jpg,Images/Speaker3.jpg,Images/Speaker4.jpg,Audio/Speaker2_En/P2-14-En.wav,Speaker2,گوینده۲,,,,,,,,,,,,,,,,0,35,35,33,,,,,,,,,,,,,135.50125820800167,,,,,,,,,,,,,,,,,,,,,,,,,,,,,,,,,,,,,,,,,,,,,135.4793333330017,135.50125820800167,135.50125820800167,135.50125820800167,135.50125820800167,135.49562637466832,135.50125820800167,135.50125820800167,136.53248712500135,Incorrect! The correct answer is Speaker2. نادرست! پاسخ صحیح گوینده۲ است,1,1.0302878330003296,None,0,36,136.5364952500022,136.5498860000007,,138.53864783300014,,,,,,,,,,,,,,,,,,,,,,,,,,,,,,,,,,,,,,,,,,,,,,,,,966632,001,2024-06-30_17h43.24.255,5-24,2024.1.4,None,2024-06-30 17h43.29.556973 +0900,
Images/Speaker1.jpg,Images/Speaker2.jpg,Images/Speaker3.jpg,Images/Speaker4.jpg,Audio/Speaker3_En/P3-1-En.wav,Speaker3,گوینده۳,,,,,,,,,,,,,,,,0,36,36,40,,,,,,,,,,,,,138.56115050000153,,,,,,,,,,,,,,,,,,,,,,,,,,,,,,,,,,,,,,,,,,,,,138.53881108300266,138.56115050000153,138.56115050000153,138.56115050000153,138.56115050000153,138.55528066666764,138.56115050000153,138.56115050000153,138.99790545799988,Incorrect! The correct answer is Speaker3. نادرست! پاسخ صحیح گوینده۳ است,1,0.42814541700136033,None,0,37,139.00257950000014,139.0169654170022,,141.0050888750011,,,,,,,,,,,,,,,,,,,,,,,,,,,,,,,,,,,,,,,,,,,,,,,,,966632,001,2024-06-30_17h43.24.255,5-24,2024.1.4,None,2024-06-30 17h43.29.556973 +0900,
Images/Speaker1.jpg,Images/Speaker2.jpg,Images/Speaker3.jpg,Images/Speaker4.jpg,Audio/Speaker4_En/P4-5-En.wav,Speaker4,گوینده۴,,,,,,,,,,,,,,,,0,37,37,64,,,,,,,,,,,,,141.02831820800202,,,,,,,,,,,,,,,,,,,,,,,,,,,,,,,,,,,,,,,,,,,,,141.00567791700087,141.02831820800202,141.02831820800202,141.02831820800202,141.02831820800202,141.02159958366636,141.02831820800202,141.02831820800202,141.88807866700154,Incorrect! The correct answer is Speaker4. نادرست! پاسخ صحیح گوینده۴ است,1,0.8511890420013515,None,0,38,141.8917940829997,141.90513362500133,,143.89753233300144,,,,,,,,,,,,,,,,,,,,,,,,,,,,,,,,,,,,,,,,,,,,,,,,,966632,001,2024-06-30_17h43.24.255,5-24,2024.1.4,None,2024-06-30 17h43.29.556973 +0900,
Images/Speaker1.jpg,Images/Speaker2.jpg,Images/Speaker3.jpg,Images/Speaker4.jpg,Audio/Speaker2_En/P2-19-En.wav,Speaker2,گوینده۲,,,,,,,,,,,,,,,,0,38,38,38,,,,,,,,,,,,,143.91918133299987,,,,,,,,,,,,,,,,,,,,,,,,,,,,,,,,,,,,,,,,,,,,,143.89770016700277,143.91918133299987,143.91918133299987,143.91918133299987,143.91918133299987,143.91417037466843,143.91918133299987,143.91918133299987,144.36277504200189,Incorrect! The correct answer is Speaker2. نادرست! پاسخ صحیح گوینده۲ است,1,0.4422378750023199,None,0,39,144.36656512500122,144.3795323330014,146.38908841699958,146.36600525000176,,,,,,,,,,,,,,,,,,,,,,,,,,,,,,,,,,,,,,,,,,,,,,,,,966632,001,2024-06-30_17h43.24.255,5-24,2024.1.4,None,2024-06-30 17h43.29.556973 +0900,
Images/Speaker1.jpg,Images/Speaker2.jpg,Images/Speaker3.jpg,Images/Speaker4.jpg,Audio/Speaker4_En/P4-14-En.wav,Speaker4,گوینده۴,,,,,,,,,,,,,,,,0,39,39,73,,,,,,,,,,,,,146.38908841699958,,,,,,,,,,,,,,,,,,,,,,,,,,,,,,,,,,,,,,,,,,,,,146.3661815830019,146.38908841699958,146.38908841699958,146.38908841699958,146.38908841699958,146.39899704133546,146.38908841699958,146.38908841699958,146.5973966670026,Incorrect! The correct answer is Speaker4. نادرست! پاسخ صحیح گوینده۴ است,1,0.20262124999862863,None,0,40,146.60122799999954,146.6141423750014,148.6257324170001,148.60100262500055,,,,,,,,,,,,,,,,,,,,,,,,,,,,,,,,,,,,,,,,,,,,,,,,,966632,001,2024-06-30_17h43.24.255,5-24,2024.1.4,None,2024-06-30 17h43.29.556973 +0900,
Images/Speaker1.jpg,Images/Speaker2.jpg,Images/Speaker3.jpg,Images/Speaker4.jpg,Audio/Speaker2_En/P2-1-En.wav,Speaker2,گوینده۲,,,,,,,,,,,,,,,,0,40,40,20,,,,,,,,,,,,,148.6257324170001,,,,,,,,,,,,,,,,,,,,,,,,,,,,,,,,,,,,,,,,,,,,,148.60196112500125,148.6257324170001,148.6257324170001,148.6257324170001,148.6257324170001,148.6333635003362,148.6257324170001,148.6257324170001,149.46844404200237,Incorrect! The correct answer is Speaker2. نادرست! پاسخ صحیح گوینده۲ است,1,0.8403380830022797,None,0,41,149.4724575830005,149.4859490000017,,151.48354158300208,,,,,,,,,,,,,,,,,,,,,,,,,,,,,,,,,,,,,,,,,,,,,,,,,966632,001,2024-06-30_17h43.24.255,5-24,2024.1.4,None,2024-06-30 17h43.29.556973 +0900,
Images/Speaker1.jpg,Images/Speaker2.jpg,Images/Speaker3.jpg,Images/Speaker4.jpg,Audio/Speaker2_En/P2-18-En.wav,Speaker2,گوینده۲,,,,,,,,,,,,,,,,0,41,41,37,,,,,,,,,,,,,151.50775112500196,,,,,,,,,,,,,,,,,,,,,,,,,,,,,,,,,,,,,,,,,,,,,151.48418220800158,151.50775112500196,151.50775112500196,151.50775112500196,151.50775112500196,151.51671687533286,151.50775112500196,151.50775112500196,151.88615391699932,Incorrect! The correct answer is Speaker2. نادرست! پاسخ صحیح گوینده۲ است,1,0.37302620799891884,None,0,42,151.88997350000136,151.90302104200236,153.90818404200036,153.88725570799943,,,,,,,,,,,,,,,,,,,,,,,,,,,,,,,,,,,,,,,,,,,,,,,,,966632,001,2024-06-30_17h43.24.255,5-24,2024.1.4,None,2024-06-30 17h43.29.556973 +0900,
Images/Speaker1.jpg,Images/Speaker2.jpg,Images/Speaker3.jpg,Images/Speaker4.jpg,Audio/Speaker1_En/P1-20-En.wav,Speaker1,گوینده ۱,,,,,,,,,,,,,,,,0,42,42,19,,,,,,,,,,,,,153.90818404200036,,,,,,,,,,,,,,,,,,,,,,,,,,,,,,,,,,,,,,,,,,,,,153.8874146670023,153.90818404200036,153.90818404200036,153.90818404200036,153.90818404200036,153.9037185416676,153.90818404200036,153.90818404200036,154.19517966700005,Correct! صحیح است,1,0.28101100000276347,None,0,43,154.19905091700275,154.2101444580003,156.22245983299945,156.19946424999944,,,,,,,,,,,,,,,,,,,,,,,,,,,,,,,,,,,,,,,,,,,,,,,,,966632,001,2024-06-30_17h43.24.255,5-24,2024.1.4,None,2024-06-30 17h43.29.556973 +0900,
Images/Speaker1.jpg,Images/Speaker2.jpg,Images/Speaker3.jpg,Images/Speaker4.jpg,Audio/Speaker2_En/P2-9-En.wav,Speaker2,گوینده۲,,,,,,,,,,,,,,,,0,43,43,28,,,,,,,,,,,,,156.22245983299945,,,,,,,,,,,,,,,,,,,,,,,,,,,,,,,,,,,,,,,,,,,,,156.20001795800272,156.22245983299945,156.22245983299945,156.22245983299945,156.22245983299945,156.23193020833475,156.22245983299945,156.22245983299945,157.72002108300148,Incorrect! The correct answer is Speaker2. نادرست! پاسخ صحیح گوینده۲ است,1,1.4902147909997439,None,0,44,157.72492912500093,157.73797616700176,159.74545704200136,159.72340541700032,,,,,,,,,,,,,,,,,,,,,,,,,,,,,,,,,,,,,,,,,,,,,,,,,966632,001,2024-06-30_17h43.24.255,5-24,2024.1.4,None,2024-06-30 17h43.29.556973 +0900,
Images/Speaker1.jpg,Images/Speaker2.jpg,Images/Speaker3.jpg,Images/Speaker4.jpg,Audio/Speaker3_En/P3-11-En.wav,Speaker3,گوینده۳,,,,,,,,,,,,,,,,0,44,44,50,,,,,,,,,,,,,159.74545704200136,,,,,,,,,,,,,,,,,,,,,,,,,,,,,,,,,,,,,,,,,,,,,159.7236068750026,159.74545704200136,159.74545704200136,159.74545704200136,159.74545704200136,159.7398048336693,159.74545704200136,159.74545704200136,159.7712484170006,Incorrect! The correct answer is Speaker3. نادرست! پاسخ صحیح گوینده۳ است,1,0.02475495899852831,None,0,45,159.77496579199942,159.78756483300094,161.79280033300165,161.7702628750012,,,,,,,,,,,,,,,,,,,,,,,,,,,,,,,,,,,,,,,,,,,,,,,,,966632,001,2024-06-30_17h43.24.255,5-24,2024.1.4,None,2024-06-30 17h43.29.556973 +0900,
Images/Speaker1.jpg,Images/Speaker2.jpg,Images/Speaker3.jpg,Images/Speaker4.jpg,Audio/Speaker2_En/P2-10-En.wav,Speaker2,گوینده۲,,,,,,,,,,,,,,,,0,45,45,29,,,,,,,,,,,,,161.79280033300165,,,,,,,,,,,,,,,,,,,,,,,,,,,,,,,,,,,,,,,,,,,,,161.7704381250005,161.79280033300165,161.79280033300165,161.79280033300165,161.79280033300165,161.78670874966727,161.79280033300165,161.79280033300165,162.80850595800075,Incorrect! The correct answer is Speaker2. نادرست! پاسخ صحیح گوینده۲ است,1,1.0058068329999514,None,0,46,162.81285895800102,162.8263364580016,,164.81290470800013,,,,,,,,,,,,,,,,,,,,,,,,,,,,,,,,,,,,,,,,,,,,,,,,,966632,001,2024-06-30_17h43.24.255,5-24,2024.1.4,None,2024-06-30 17h43.29.556973 +0900,
Images/Speaker1.jpg,Images/Speaker2.jpg,Images/Speaker3.jpg,Images/Speaker4.jpg,Audio/Speaker1_En/P1-1-En.wav,Speaker1,گوینده ۱,,,,,,,,,,,,,,,,0,46,46,0,,,,,,,,,,,,,164.83456954199937,,,,,,,,,,,,,,,,,,,,,,,,,,,,,,,,,,,,,,,,,,,,,164.81307754199952,164.83456954199937,164.83456954199937,164.83456954199937,164.83456954199937,164.8295367086687,164.83456954199937,164.83456954199937,165.24830758300232,Correct! صحیح است,1,0.4006910419993801,None,0,47,165.25225250000221,165.2611710830024,,167.25543737500266,,,,,,,,,,,,,,,,,,,,,,,,,,,,,,,,,,,,,,,,,,,,,,,,,966632,001,2024-06-30_17h43.24.255,5-24,2024.1.4,None,2024-06-30 17h43.29.556973 +0900,
Images/Speaker1.jpg,Images/Speaker2.jpg,Images/Speaker3.jpg,Images/Speaker4.jpg,Audio/Speaker3_En/P3-17-En.wav,Speaker3,گوینده۳,,,,,,,,,,,,,,,,0,47,47,56,,,,,,,,,,,,,167.27935787500246,,,,,,,,,,,,,,,,,,,,,,,,,,,,,,,,,,,,,,,,,,,,,167.25598537500264,167.27935787500246,167.27935787500246,167.27935787500246,167.27935787500246,167.288615625334,167.27935787500246,167.27935787500246,167.35456741700182,Incorrect! The correct answer is Speaker3. نادرست! پاسخ صحیح گوینده۳ است,1,0.07179600000017672,None,0,48,167.35844116700173,167.37112779200106,169.376328792001,169.35496050000074,,,,,,,,,,,,,,,,,,,,,,,,,,,,,,,,,,,,,,,,,,,,,,,,,966632,001,2024-06-30_17h43.24.255,5-24,2024.1.4,None,2024-06-30 17h43.29.556973 +0900,
Images/Speaker1.jpg,Images/Speaker2.jpg,Images/Speaker3.jpg,Images/Speaker4.jpg,Audio/Speaker3_En/P3-16-En.wav,Speaker3,گوینده۳,,,,,,,,,,,,,,,,0,48,48,55,,,,,,,,,,,,,169.376328792001,,,,,,,,,,,,,,,,,,,,,,,,,,,,,,,,,,,,,,,,,,,,,169.3551306670015,169.376328792001,169.376328792001,169.376328792001,169.376328792001,169.3713441666662,169.376328792001,169.376328792001,169.3769077500001,Incorrect! The correct answer is Speaker3. نادرست! پاسخ صحیح گوینده۳ است,1,1.93721366599857,None,0,49,169.38094758300213,169.3923915000014,171.39811770800225,171.37809245800236,,,,,,,,,,,,,,,,,,,,,,,,,,,,,,,,,,,,,,,,,,,,,,,,,966632,001,2024-06-30_17h43.24.255,5-24,2024.1.4,None,2024-06-30 17h43.29.556973 +0900,
Images/Speaker1.jpg,Images/Speaker2.jpg,Images/Speaker3.jpg,Images/Speaker4.jpg,Audio/Speaker3_En/P3-12-En.wav,Speaker3,گوینده۳,,,,,,,,,,,,,,,,0,49,49,51,,,,,,,,,,,,,171.39811770800225,,,,,,,,,,,,,,,,,,,,,,,,,,,,,,,,,,,,,,,,,,,,,171.37824804200136,171.39811770800225,171.39811770800225,171.39811770800225,171.39811770800225,171.394559458666,171.39811770800225,171.39811770800225,171.39869808300136,Incorrect! The correct answer is Speaker3. نادرست! پاسخ صحیح گوینده۳ است,1,1.3736945839991677,None,0,50,171.4025443749997,171.41207425000175,,173.40606133300025,,,,,,,,,,,,,,,,,,,,,,,,,,,,,,,,,,,,,,,,,,,,,,,,,966632,001,2024-06-30_17h43.24.255,5-24,2024.1.4,None,2024-06-30 17h43.29.556973 +0900,
Images/Speaker1.jpg,Images/Speaker2.jpg,Images/Speaker3.jpg,Images/Speaker4.jpg,Audio/Speaker4_En/P4-8-En.wav,Speaker4,گوینده۴,,,,,,,,,,,,,,,,0,50,50,67,,,,,,,,,,,,,173.4270309170024,,,,,,,,,,,,,,,,,,,,,,,,,,,,,,,,,,,,,,,,,,,,,173.40624212500188,173.4270309170024,173.4270309170024,173.4270309170024,173.4270309170024,173.42268949966845,173.4270309170024,173.4270309170024,174.75572079199992,Incorrect! The correct answer is Speaker4. نادرست! پاسخ صحیح گوینده۴ است,1,1.32418220800173,None,0,51,174.7594710830017,174.7741440000027,176.7839278749998,176.75758966700232,,,,,,,,,,,,,,,,,,,,,,,,,,,,,,,,,,,,,,,,,,,,,,,,,966632,001,2024-06-30_17h43.24.255,5-24,2024.1.4,None,2024-06-30 17h43.29.556973 +0900,
Images/Speaker1.jpg,Images/Speaker2.jpg,Images/Speaker3.jpg,Images/Speaker4.jpg,Audio/Speaker1_En/P1-18-En.wav,Speaker1,گوینده ۱,,,,,,,,,,,,,,,,0,51,51,17,,,,,,,,,,,,,176.7839278749998,,,,,,,,,,,,,,,,,,,,,,,,,,,,,,,,,,,,,,,,,,,,,176.7582013329993,176.7839278749998,176.7839278749998,176.7839278749998,176.7839278749998,176.78994800033303,176.7839278749998,176.7839278749998,177.24246129200037,Correct! صحیح است,1,0.449013166999066,None,0,52,177.24637079199965,177.25527262499963,179.26655191700047,179.24177229199995,,,,,,,,,,,,,,,,,,,,,,,,,,,,,,,,,,,,,,,,,,,,,,,,,966632,001,2024-06-30_17h43.24.255,5-24,2024.1.4,None,2024-06-30 17h43.29.556973 +0900,
Images/Speaker1.jpg,Images/Speaker2.jpg,Images/Speaker3.jpg,Images/Speaker4.jpg,Audio/Speaker4_En/P4-10-En.wav,Speaker4,گوینده۴,,,,,,,,,,,,,,,,0,52,52,69,,,,,,,,,,,,,179.26655191700047,,,,,,,,,,,,,,,,,,,,,,,,,,,,,,,,,,,,,,,,,,,,,179.24254533299973,179.26655191700047,179.26655191700047,179.26655191700047,179.26655191700047,179.27406758333433,179.26655191700047,179.26655191700047,179.65556762500273,Incorrect! The correct answer is Speaker4. نادرست! پاسخ صحیح گوینده۴ است,1,0.38158237500101677,None,0,53,179.65952400000242,179.67297325000254,181.68227495800238,181.65748750000057,,,,,,,,,,,,,,,,,,,,,,,,,,,,,,,,,,,,,,,,,,,,,,,,,966632,001,2024-06-30_17h43.24.255,5-24,2024.1.4,None,2024-06-30 17h43.29.556973 +0900,
Images/Speaker1.jpg,Images/Speaker2.jpg,Images/Speaker3.jpg,Images/Speaker4.jpg,Audio/Speaker4_En/P4-9-En.wav,Speaker4,گوینده۴,,,,,,,,,,,,,,,,0,53,53,68,,,,,,,,,,,,,181.68227495800238,,,,,,,,,,,,,,,,,,,,,,,,,,,,,,,,,,,,,,,,,,,,,181.65800933300125,181.68227495800238,181.68227495800238,181.68227495800238,181.68227495800238,181.68987412533585,181.68227495800238,181.68227495800238,182.31268004199956,Incorrect! The correct answer is Speaker4. نادرست! پاسخ صحیح گوینده۴ است,1,0.6255101669994474,None,0,54,182.317673542002,182.33293012500144,184.33906387500247,184.3164429999997,,,,,,,,,,,,,,,,,,,,,,,,,,,,,,,,,,,,,,,,,,,,,,,,,966632,001,2024-06-30_17h43.24.255,5-24,2024.1.4,None,2024-06-30 17h43.29.556973 +0900,
Images/Speaker1.jpg,Images/Speaker2.jpg,Images/Speaker3.jpg,Images/Speaker4.jpg,Audio/Speaker2_En/P2-3-En.wav,Speaker2,گوینده۲,,,,,,,,,,,,,,,,0,54,54,22,,,,,,,,,,,,,184.33906387500247,,,,,,,,,,,,,,,,,,,,,,,,,,,,,,,,,,,,,,,,,,,,,184.31712524999966,184.33906387500247,184.33906387500247,184.33906387500247,184.33906387500247,184.3489233753358,184.33906387500247,184.33906387500247,184.6556245000029,Incorrect! The correct answer is Speaker2. نادرست! پاسخ صحیح گوینده۲ است,1,0.30934495800102013,None,0,55,184.65960883300068,184.6726250419997,186.68303191700033,186.65824154200163,,,,,,,,,,,,,,,,,,,,,,,,,,,,,,,,,,,,,,,,,,,,,,,,,966632,001,2024-06-30_17h43.24.255,5-24,2024.1.4,None,2024-06-30 17h43.29.556973 +0900,
Images/Speaker1.jpg,Images/Speaker2.jpg,Images/Speaker3.jpg,Images/Speaker4.jpg,Audio/Speaker1_En/P1-15-En.wav,Speaker1,گوینده ۱,,,,,,,,,,,,,,,,0,55,55,14,,,,,,,,,,,,,186.68303191700033,,,,,,,,,,,,,,,,,,,,,,,,,,,,,,,,,,,,,,,,,,,,,186.65917679199993,186.68303191700033,186.68303191700033,186.68303191700033,186.68303191700033,186.690676208335,186.68303191700033,186.68303191700033,187.15039270800116,Correct! صحیح است,1,0.4616659159983101,None,0,56,187.15421716700075,187.1657172080013,189.17112566700234,189.15039154199985,,,,,,,,,,,,,,,,,,,,,,,,,,,,,,,,,,,,,,,,,,,,,,,,,966632,001,2024-06-30_17h43.24.255,5-24,2024.1.4,None,2024-06-30 17h43.29.556973 +0900,
Images/Speaker1.jpg,Images/Speaker2.jpg,Images/Speaker3.jpg,Images/Speaker4.jpg,Audio/Speaker2_En/P2-2-En.wav,Speaker2,گوینده۲,,,,,,,,,,,,,,,,0,56,56,21,,,,,,,,,,,,,189.17112566700234,,,,,,,,,,,,,,,,,,,,,,,,,,,,,,,,,,,,,,,,,,,,,189.1505537080011,189.17112566700234,189.17112566700234,189.17112566700234,189.17112566700234,189.16685187466672,189.17112566700234,189.17112566700234,189.41930291700191,Incorrect! The correct answer is Speaker2. نادرست! پاسخ صحیح گوینده۲ است,1,0.24513437499990687,None,0,57,189.42327062500044,189.43559341700166,,191.4297953330024,,,,,,,,,,,,,,,,,,,,,,,,,,,,,,,,,,,,,,,,,,,,,,,,,966632,001,2024-06-30_17h43.24.255,5-24,2024.1.4,None,2024-06-30 17h43.29.556973 +0900,
Images/Speaker1.jpg,Images/Speaker2.jpg,Images/Speaker3.jpg,Images/Speaker4.jpg,Audio/Speaker4_En/P4-4-En.wav,Speaker4,گوینده۴,,,,,,,,,,,,,,,,0,57,57,63,,,,,,,,,,,,,191.45260841700292,,,,,,,,,,,,,,,,,,,,,,,,,,,,,,,,,,,,,,,,,,,,,191.42996233300073,191.45260841700292,191.45260841700292,191.45260841700292,191.45260841700292,191.4464239586671,191.45260841700292,191.45260841700292,191.66732758299986,Incorrect! The correct answer is Speaker4. نادرست! پاسخ صحیح گوینده۴ است,1,0.21361199999955716,None,0,58,191.67109879200143,191.6847236249996,,193.67199720800272,,,,,,,,,,,,,,,,,,,,,,,,,,,,,,,,,,,,,,,,,,,,,,,,,966632,001,2024-06-30_17h43.24.255,5-24,2024.1.4,None,2024-06-30 17h43.29.556973 +0900,
Images/Speaker1.jpg,Images/Speaker2.jpg,Images/Speaker3.jpg,Images/Speaker4.jpg,Audio/Speaker4_En/P4-6-En.wav,Speaker4,گوینده۴,,,,,,,,,,,,,,,,0,58,58,65,,,,,,,,,,,,,193.6951501250005,,,,,,,,,,,,,,,,,,,,,,,,,,,,,,,,,,,,,,,,,,,,,193.67217708300086,193.6951501250005,193.6951501250005,193.6951501250005,193.6951501250005,193.68860645866906,193.6951501250005,193.6951501250005,193.9349065000024,Incorrect! The correct answer is Speaker4. نادرست! پاسخ صحیح گوینده۴ است,1,0.23771220900016488,None,0,59,193.9389024580014,193.95161991699933,,195.94136033299947,,,,,,,,,,,,,,,,,,,,,,,,,,,,,,,,,,,,,,,,,,,,,,,,,966632,001,2024-06-30_17h43.24.255,5-24,2024.1.4,None,2024-06-30 17h43.29.556973 +0900,
Images/Speaker1.jpg,Images/Speaker2.jpg,Images/Speaker3.jpg,Images/Speaker4.jpg,Audio/Speaker1_En/P1-10-En.wav,Speaker1,گوینده ۱,,,,,,,,,,,,,,,,0,59,59,9,,,,,,,,,,,,,195.96228770800008,,,,,,,,,,,,,,,,,,,,,,,,,,,,,,,,,,,,,,,,,,,,,195.9415270419995,195.96228770800008,195.96228770800008,195.96228770800008,195.96228770800008,195.9579879996675,195.96228770800008,195.96228770800008,196.23083908300032,Correct! صحیح است,1,0.26275462500052527,None,0,60,196.23455070800264,196.24534354199932,198.2542331250006,198.23242354200192,,,,,,,,,,,,,,,,,,,,,,,,,,,,,,,,,,,,,,,,,,,,,,,,,966632,001,2024-06-30_17h43.24.255,5-24,2024.1.4,None,2024-06-30 17h43.29.556973 +0900,
Images/Speaker1.jpg,Images/Speaker2.jpg,Images/Speaker3.jpg,Images/Speaker4.jpg,Audio/Speaker4_En/P4-13-En.wav,Speaker4,گوینده۴,,,,,,,,,,,,,,,,0,60,60,72,,,,,,,,,,,,,198.2542331250006,,,,,,,,,,,,,,,,,,,,,,,,,,,,,,,,,,,,,,,,,,,,,198.23260183300226,198.2542331250006,198.2542331250006,198.2542331250006,198.2542331250006,198.2487979996661,198.2542331250006,198.2542331250006,198.4859521670005,Incorrect! The correct answer is Speaker4. نادرست! پاسخ صحیح گوینده۴ است,1,0.22684216700145043,None,0,61,198.48987079200015,198.50273154200113,,200.49201704200095,,,,,,,,,,,,,,,,,,,,,,,,,,,,,,,,,,,,,,,,,,,,,,,,,966632,001,2024-06-30_17h43.24.255,5-24,2024.1.4,None,2024-06-30 17h43.29.556973 +0900,
Images/Speaker1.jpg,Images/Speaker2.jpg,Images/Speaker3.jpg,Images/Speaker4.jpg,Audio/Speaker3_En/P3-2-En.wav,Speaker3,گوینده۳,,,,,,,,,,,,,,,,0,61,61,41,,,,,,,,,,,,,200.5145943330026,,,,,,,,,,,,,,,,,,,,,,,,,,,,,,,,,,,,,,,,,,,,,200.49218708300032,200.5145943330026,200.5145943330026,200.5145943330026,200.5145943330026,200.50864095866953,200.5145943330026,200.5145943330026,200.73871245800183,Incorrect! The correct answer is Speaker3. نادرست! پاسخ صحیح گوینده۳ است,1,0.22179866599981324,None,0,62,200.74387854200177,200.75759095800095,,202.74685929200132,,,,,,,,,,,,,,,,,,,,,,,,,,,,,,,,,,,,,,,,,,,,,,,,,966632,001,2024-06-30_17h43.24.255,5-24,2024.1.4,None,2024-06-30 17h43.29.556973 +0900,
Images/Speaker1.jpg,Images/Speaker2.jpg,Images/Speaker3.jpg,Images/Speaker4.jpg,Audio/Speaker3_En/P3-18-En.wav,Speaker3,گوینده۳,,,,,,,,,,,,,,,,0,62,62,57,,,,,,,,,,,,,202.7679960000023,,,,,,,,,,,,,,,,,,,,,,,,,,,,,,,,,,,,,,,,,,,,,202.74702783300017,202.7679960000023,202.7679960000023,202.7679960000023,202.7679960000023,202.7634837916669,202.7679960000023,202.7679960000023,202.95542583300266,Incorrect! The correct answer is Speaker3. نادرست! پاسخ صحیح گوینده۳ است,1,0.1858685829975002,None,0,63,202.95927066700096,202.9724235419999,204.97601575000226,204.9551590830015,,,,,,,,,,,,,,,,,,,,,,,,,,,,,,,,,,,,,,,,,,,,,,,,,966632,001,2024-06-30_17h43.24.255,5-24,2024.1.4,None,2024-06-30 17h43.29.556973 +0900,
Images/Speaker1.jpg,Images/Speaker2.jpg,Images/Speaker3.jpg,Images/Speaker4.jpg,Audio/Speaker4_En/P4-16-En.wav,Speaker4,گوینده۴,,,,,,,,,,,,,,,,0,63,63,75,,,,,,,,,,,,,204.97601575000226,,,,,,,,,,,,,,,,,,,,,,,,,,,,,,,,,,,,,,,,,,,,,204.9553349170019,204.97601575000226,204.97601575000226,204.97601575000226,204.97601575000226,204.9714963336667,204.97601575000226,204.97601575000226,205.18925087500247,Incorrect! The correct answer is Speaker4. نادرست! پاسخ صحیح گوینده۴ است,1,0.21086291699975845,None,0,64,205.1930533750019,205.20566283300286,207.21242141699986,207.19068825000068,,,,,,,,,,,,,,,,,,,,,,,,,,,,,,,,,,,,,,,,,,,,,,,,,966632,001,2024-06-30_17h43.24.255,5-24,2024.1.4,None,2024-06-30 17h43.29.556973 +0900,
Images/Speaker1.jpg,Images/Speaker2.jpg,Images/Speaker3.jpg,Images/Speaker4.jpg,Audio/Speaker2_En/P2-6-En.wav,Speaker2,گوینده۲,,,,,,,,,,,,,,,,0,64,64,25,,,,,,,,,,,,,207.21242141699986,,,,,,,,,,,,,,,,,,,,,,,,,,,,,,,,,,,,,,,,,,,,,207.19084750000184,207.21242141699986,207.21242141699986,207.21242141699986,207.21242141699986,207.20703737466854,207.21242141699986,207.21242141699986,207.40726508300213,Incorrect! The correct answer is Speaker2. نادرست! پاسخ صحیح گوینده۲ است,1,0.18783095900289482,None,0,65,207.41117895800198,207.42429012499997,,209.41624687500007,,,,,,,,,,,,,,,,,,,,,,,,,,,,,,,,,,,,,,,,,,,,,,,,,966632,001,2024-06-30_17h43.24.255,5-24,2024.1.4,None,2024-06-30 17h43.29.556973 +0900,
Images/Speaker1.jpg,Images/Speaker2.jpg,Images/Speaker3.jpg,Images/Speaker4.jpg,Audio/Speaker4_En/P4-7-En.wav,Speaker4,گوینده۴,,,,,,,,,,,,,,,,0,65,65,66,,,,,,,,,,,,,209.44133758300086,,,,,,,,,,,,,,,,,,,,,,,,,,,,,,,,,,,,,,,,,,,,,209.41679458300132,209.44133758300086,209.44133758300086,209.44133758300086,209.44133758300086,209.44939087533618,209.44133758300086,209.44133758300086,209.6481032920019,Incorrect! The correct answer is Speaker4. نادرست! پاسخ صحیح گوینده۴ است,1,0.19476179200137267,None,0,66,209.65214333300173,209.66507937500137,211.6688395420024,211.64768050000202,,,,,,,,,,,,,,,,,,,,,,,,,,,,,,,,,,,,,,,,,,,,,,,,,966632,001,2024-06-30_17h43.24.255,5-24,2024.1.4,None,2024-06-30 17h43.29.556973 +0900,
Images/Speaker1.jpg,Images/Speaker2.jpg,Images/Speaker3.jpg,Images/Speaker4.jpg,Audio/Speaker2_En/P2-15-En.wav,Speaker2,گوینده۲,,,,,,,,,,,,,,,,0,66,66,34,,,,,,,,,,,,,211.6688395420024,,,,,,,,,,,,,,,,,,,,,,,,,,,,,,,,,,,,,,,,,,,,,211.64784320800027,211.6688395420024,211.6688395420024,211.6688395420024,211.6688395420024,211.66410849966658,211.6688395420024,211.6688395420024,212.02400625000155,Incorrect! The correct answer is Speaker2. نادرست! پاسخ صحیح گوینده۲ است,1,0.3488158750005823,None,0,67,212.02808970800106,212.04117537500133,,214.03333075000046,,,,,,,,,,,,,,,,,,,,,,,,,,,,,,,,,,,,,,,,,,,,,,,,,966632,001,2024-06-30_17h43.24.255,5-24,2024.1.4,None,2024-06-30 17h43.29.556973 +0900,
Images/Speaker1.jpg,Images/Speaker2.jpg,Images/Speaker3.jpg,Images/Speaker4.jpg,Audio/Speaker1_En/P1-4-En.wav,Speaker1,گوینده ۱,,,,,,,,,,,,,,,,0,67,67,3,,,,,,,,,,,,,214.0588975419996,,,,,,,,,,,,,,,,,,,,,,,,,,,,,,,,,,,,,,,,,,,,,214.03388212500067,214.0588975419996,214.0588975419996,214.0588975419996,214.0588975419996,214.06649741633424,214.0588975419996,214.0588975419996,214.9278382500015,Correct! صحیح است,1,0.8677194169977156,None,0,68,214.93184250000195,214.94338591700216,216.9485615420017,216.92598170800193,,,,,,,,,,,,,,,,,,,,,,,,,,,,,,,,,,,,,,,,,,,,,,,,,966632,001,2024-06-30_17h43.24.255,5-24,2024.1.4,None,2024-06-30 17h43.29.556973 +0900,
Images/Speaker1.jpg,Images/Speaker2.jpg,Images/Speaker3.jpg,Images/Speaker4.jpg,Audio/Speaker3_En/P3-14-En.wav,Speaker3,گوینده۳,,,,,,,,,,,,,,,,0,68,68,53,,,,,,,,,,,,,216.9485615420017,,,,,,,,,,,,,,,,,,,,,,,,,,,,,,,,,,,,,,,,,,,,,216.92612762499994,216.9485615420017,216.9485615420017,216.9485615420017,216.9485615420017,216.94243466666765,216.9485615420017,216.9485615420017,1910.6369978750008,Incorrect! The correct answer is Speaker3. نادرست! پاسخ صحیح گوینده۳ است,1,1693.6871162499992,None,0,69,1910.637217792002,1910.6503214170007,1912.6587358750003,1912.6362816250003,,,,,,,,,,,,,,,,,,,,,,,,,,,,,,,,,,,,,,,,,,,,,,,,,966632,001,2024-06-30_17h43.24.255,5-24,2024.1.4,None,2024-06-30 17h43.29.556973 +0900,
Images/Speaker1.jpg,Images/Speaker2.jpg,Images/Speaker3.jpg,Images/Speaker4.jpg,Audio/Speaker2_En/P2-20-En.wav,Speaker2,گوینده۲,,,,,,,,,,,,,,,,0,69,69,39,,,,,,,,,,,,,1912.6587358750003,,,,,,,,,,,,,,,,,,,,,,,,,,,,,,,,,,,,,,,,,,,,,1912.6372036249995,1912.6587358750003,1912.6587358750003,1912.6587358750003,1912.6587358750003,1912.668618666336,1912.6587358750003,1912.6587358750003,1914.7953991670001,Incorrect! The correct answer is Speaker2. نادرست! پاسخ صحیح گوینده۲ است,1,2.133482624998578,None,0,70,1914.7996012500007,1914.812986375,1916.8199883750021,1916.7977095000024,,,,,,,,,,,,,,,,,,,,,,,,,,,,,,,,,,,,,,,,,,,,,,,,,966632,001,2024-06-30_17h43.24.255,5-24,2024.1.4,None,2024-06-30 17h43.29.556973 +0900,
Images/Speaker1.jpg,Images/Speaker2.jpg,Images/Speaker3.jpg,Images/Speaker4.jpg,Audio/Speaker4_En/P4-3-En.wav,Speaker4,گوینده۴,,,,,,,,,,,,,,,,0,70,70,62,,,,,,,,,,,,,1916.8199883750021,,,,,,,,,,,,,,,,,,,,,,,,,,,,,,,,,,,,,,,,,,,,,1916.7978846250007,1916.8199883750021,1916.8199883750021,1916.8199883750021,1916.8199883750021,1916.814107041668,1916.8199883750021,1916.8199883750021,1917.843328875002,Incorrect! The correct answer is Speaker4. نادرست! پاسخ صحیح گوینده۴ است,1,1.0123333750016172,None,0,71,1917.8474545829995,1917.8610781669995,1919.868577917001,1919.8472607500007,,,,,,,,,,,,,,,,,,,,,,,,,,,,,,,,,,,,,,,,,,,,,,,,,966632,001,2024-06-30_17h43.24.255,5-24,2024.1.4,None,2024-06-30 17h43.29.556973 +0900,
Images/Speaker1.jpg,Images/Speaker2.jpg,Images/Speaker3.jpg,Images/Speaker4.jpg,Audio/Speaker1_En/P1-16-En.wav,Speaker1,گوینده ۱,,,,,,,,,,,,,,,,0,71,71,15,,,,,,,,,,,,,1919.868577917001,,,,,,,,,,,,,,,,,,,,,,,,,,,,,,,,,,,,,,,,,,,,,1919.8474299170011,1919.868577917001,1919.868577917001,1919.868577917001,1919.868577917001,1919.8636051246688,1919.868577917001,1919.868577917001,1921.7535716250022,Correct! صحیح است,1,1.8837450419996458,None,0,72,1921.7577590830006,1921.7690803330006,1923.7761584170003,1923.7549673329995,,,,,,,,,,,,,,,,,,,,,,,,,,,,,,,,,,,,,,,,,,,,,,,,,966632,001,2024-06-30_17h43.24.255,5-24,2024.1.4,None,2024-06-30 17h43.29.556973 +0900,
Images/Speaker1.jpg,Images/Speaker2.jpg,Images/Speaker3.jpg,Images/Speaker4.jpg,Audio/Speaker1_En/P1-5-En.wav,Speaker1,گوینده ۱,,,,,,,,,,,,,,,,0,72,72,4,,,,,,,,,,,,,1923.7761584170003,,,,,,,,,,,,,,,,,,,,,,,,,,,,,,,,,,,,,,,,,,,,,1923.7551500830014,1923.7761584170003,1923.7761584170003,1923.7761584170003,1923.7761584170003,1923.771417916669,1923.7761584170003,1923.7761584170003,1924.6755997920009,Correct! صحیح است,1,0.8955153340029938,None,0,73,1924.6805907080015,1924.6938270000028,,1926.6831518750005,,,,,,,,,,,,,,,,,,,,,,,,,,,,,,,,,,,,,,,,,,,,,,,,,966632,001,2024-06-30_17h43.24.255,5-24,2024.1.4,None,2024-06-30 17h43.29.556973 +0900,
Images/Speaker1.jpg,Images/Speaker2.jpg,Images/Speaker3.jpg,Images/Speaker4.jpg,Audio/Speaker1_En/P1-3-En.wav,Speaker1,گوینده ۱,,,,,,,,,,,,,,,,0,73,73,2,,,,,,,,,,,,,1926.7068189170022,,,,,,,,,,,,,,,,,,,,,,,,,,,,,,,,,,,,,,,,,,,,,1926.6837330000017,1926.7068189170022,1926.7068189170022,1926.7068189170022,1926.7068189170022,1926.716272041333,1926.7068189170022,1926.7068189170022,1928.1907354169998,Correct! صحیح است,1,1.4772825830004876,None,0,74,1928.1946945420023,1928.2062504580026,1930.2127814580017,1930.1913902920023,,,,,,,,,,,,,,,,,,,,,,,,,,,,,,,,,,,,,,,,,,,,,,,,,966632,001,2024-06-30_17h43.24.255,5-24,2024.1.4,None,2024-06-30 17h43.29.556973 +0900,
Images/Speaker1.jpg,Images/Speaker2.jpg,Images/Speaker3.jpg,Images/Speaker4.jpg,Audio/Speaker4_En/P4-19-En.wav,Speaker4,گوینده۴,,,,,,,,,,,,,,,,0,74,74,78,,,,,,,,,,,,,1930.2127814580017,,,,,,,,,,,,,,,,,,,,,,,,,,,,,,,,,,,,,,,,,,,,,1930.1915667499998,1930.2127814580017,1930.2127814580017,1930.2127814580017,1930.2127814580017,1930.207752999668,1930.2127814580017,1930.2127814580017,1930.8287759580016,Incorrect! The correct answer is Speaker4. نادرست! پاسخ صحیح گوینده۴ است,1,0.6045358329974988,None,0,75,1930.8331094170026,1930.8456006670021,,1932.8361941250005,,,,,,,,,,,,,,,,,,,,,,,,,,,,,,,,,,,,,,,,,,,,,,,,,966632,001,2024-06-30_17h43.24.255,5-24,2024.1.4,None,2024-06-30 17h43.29.556973 +0900,
Images/Speaker1.jpg,Images/Speaker2.jpg,Images/Speaker3.jpg,Images/Speaker4.jpg,Audio/Speaker3_En/P3-20-En.wav,Speaker3,گوینده۳,,,,,,,,,,,,,,,,0,75,75,59,,,,,,,,,,,,,1932.8606485420023,,,,,,,,,,,,,,,,,,,,,,,,,,,,,,,,,,,,,,,,,,,,,1932.836779792,1932.8606485420023,1932.8606485420023,1932.8606485420023,1932.8606485420023,1932.8693659163332,1932.8606485420023,1932.8606485420023,1933.790369667,Incorrect! The correct answer is Speaker3. نادرست! پاسخ صحیح گوینده۳ است,1,0.9275470419997873,None,0,76,1933.7955104169996,1933.8095202500008,1935.8149597500014,1935.7931678330024,,,,,,,,,,,,,,,,,,,,,,,,,,,,,,,,,,,,,,,,,,,,,,,,,966632,001,2024-06-30_17h43.24.255,5-24,2024.1.4,None,2024-06-30 17h43.29.556973 +0900,
Images/Speaker1.jpg,Images/Speaker2.jpg,Images/Speaker3.jpg,Images/Speaker4.jpg,Audio/Speaker4_En/P4-11-En.wav,Speaker4,گوینده۴,,,,,,,,,,,,,,,,0,76,76,70,,,,,,,,,,,,,1935.8149597500014,,,,,,,,,,,,,,,,,,,,,,,,,,,,,,,,,,,,,,,,,,,,,1935.7933269580026,1935.8149597500014,1935.8149597500014,1935.8149597500014,1935.8149597500014,1935.809640708667,1935.8149597500014,1935.8149597500014,1937.3465339169998,Incorrect! The correct answer is Speaker4. نادرست! پاسخ صحیح گوینده۴ است,1,1.522954749998462,None,0,77,1937.3503410000012,1937.363520750001,,1939.3511300000027,,,,,,,,,,,,,,,,,,,,,,,,,,,,,,,,,,,,,,,,,,,,,,,,,966632,001,2024-06-30_17h43.24.255,5-24,2024.1.4,None,2024-06-30 17h43.29.556973 +0900,
Images/Speaker1.jpg,Images/Speaker2.jpg,Images/Speaker3.jpg,Images/Speaker4.jpg,Audio/Speaker3_En/P3-6-En.wav,Speaker3,گوینده۳,,,,,,,,,,,,,,,,0,77,77,45,,,,,,,,,,,,,1939.3760447500026,,,,,,,,,,,,,,,,,,,,,,,,,,,,,,,,,,,,,,,,,,,,,1939.3517025830006,1939.3760447500026,1939.3760447500026,1939.3760447500026,1939.3760447500026,1939.3843125003336,1939.3760447500026,1939.3760447500026,1940.4228040830021,Incorrect! The correct answer is Speaker3. نادرست! پاسخ صحیح گوینده۳ است,1,1.0456567500004894,None,0,78,1940.4265585419998,1940.4403685420002,,1942.434256208002,,,,,,,,,,,,,,,,,,,,,,,,,,,,,,,,,,,,,,,,,,,,,,,,,966632,001,2024-06-30_17h43.24.255,5-24,2024.1.4,None,2024-06-30 17h43.29.556973 +0900,
Images/Speaker1.jpg,Images/Speaker2.jpg,Images/Speaker3.jpg,Images/Speaker4.jpg,Audio/Speaker2_En/P2-12-En.wav,Speaker2,گوینده۲,,,,,,,,,,,,,,,,0,78,78,31,,,,,,,,,,,,,1942.4575499170023,,,,,,,,,,,,,,,,,,,,,,,,,,,,,,,,,,,,,,,,,,,,,1942.4348252500022,1942.4575499170023,1942.4575499170023,1942.4575499170023,1942.4575499170023,1942.4674532913346,1942.4575499170023,1942.4575499170023,1942.897134625,Incorrect! The correct answer is Speaker2. نادرست! پاسخ صحیح گوینده۲ است,1,0.4385641669978213,None,0,79,1942.9009359170013,1942.9140145420024,,1944.9100800000015,,,,,,,,,,,,,,,,,,,,,,,,,,,,,,,,,,,,,,,,,,,,,,,,,966632,001,2024-06-30_17h43.24.255,5-24,2024.1.4,None,2024-06-30 17h43.29.556973 +0900,
Images/Speaker1.jpg,Images/Speaker2.jpg,Images/Speaker3.jpg,Images/Speaker4.jpg,Audio/Speaker2_En/P2-5-En.wav,Speaker2,گوینده۲,,,,,,,,,,,,,,,,0,79,79,24,,,,,,,,,,,,,1944.934507500002,,,,,,,,,,,,,,,,,,,,,,,,,,,,,,,,,,,,,,,,,,,,,1944.910652292001,1944.934507500002,1944.934507500002,1944.934507500002,1944.934507500002,1944.9432540003331,1944.934507500002,1944.934507500002,1945.4789302080026,Incorrect! The correct answer is Speaker2. نادرست! پاسخ صحیح گوینده۲ است,1,0.5425954999991518,None,0,80,1945.4841880420026,1945.4986766250004,,1947.4863304169994,,,,,,,,,,,,,,,,,,,,,,,,,,,,,,,,,,,,,,,,,,,,,,,,,966632,001,2024-06-30_17h43.24.255,5-24,2024.1.4,None,2024-06-30 17h43.29.556973 +0900,
,,,,,,,,,,,,,,,,,,,,,,,,,,,,,,,,,,,,,,,,,,,,,,,,,,,,,,,,,,,,,,,,,,,,,,,,,,,,,,,,,,,,,,,,,,,,,,,,,,,,,,1947.4863792079996,0,0,0.0,False,1947.4866399170023,,,,,,,,,,,,,,,,,,,,,,,,,,,,,,,,,,,,,,,,,,,966632,001,2024-06-30_17h43.24.255,5-24,2024.1.4,None,2024-06-30 17h43.29.556973 +0900,
,,,,,,,,,,,,,,,,,,,,,,,,,,,,,,,,,,,,,,,,,,,,,,,,,,,,,,,,,,,,,,,,,,,,,,,,,,,,,,,,,,,,,,,,,,,,,,,,,,,,,,,,,,,,1947.4866536670015,1947.4973822080028,1954.2747847499995,1952.4812870830028,,,,,,,,,,,,,,,,,,,,,,,,,,,,,,,,,,,,,,,966632,001,2024-06-30_17h43.24.255,5-24,2024.1.4,None,2024-06-30 17h43.29.556973 +0900,
,,,,,,,Images/Speaker1.jpg,Images/Speaker2.jpg,Images/Speaker3.jpg,Images/Speaker4.jpg,Audio/Speaker4_Per/P4-1-Per.wav,Speaker4,گوینده۴,,,,,,,,,,,,,0,0,0,60,,,,,,,,,1954.2747847499995,,,,,,,,,,,,,,,,,,,,,,,,,,,,,,,,,,,,,,,,,,,,,,,,,,,,,,,,,,,,,,,,,,,,,,,,,,1952.4997228329994,1952.5162417499996,None,No response,Images/Speaker1.jpg,Images/Speaker2.jpg,Images/Speaker3.jpg,Images/Speaker4.jpg,Audio/Speaker4_Per/P4-1-Per.wav,Speaker2,گوینده۲,,,,,,,,,,,,,,,,,,,,,,,,,,,,966632,001,2024-06-30_17h43.24.255,5-24,2024.1.4,None,2024-06-30 17h43.29.556973 +0900,
,,,,,,,Images/Speaker1.jpg,Images/Speaker2.jpg,Images/Speaker3.jpg,Images/Speaker4.jpg,Audio/Speaker2_Per/P2-15-Per.wav,Speaker2,گوینده۲,,,,,,,,,,,,,0,1,1,34,,,,,,,,,1954.2747847499995,,,,,,,,,,,,,,,,,,,,,,,,,,,,,,,,,,,,,,,,,,,,,,,,,,,,,,,,,,,,,,,,,,,,,,,,,,1952.5165506250014,1952.5300005829995,None,No response,Images/Speaker1.jpg,Images/Speaker2.jpg,Images/Speaker3.jpg,Images/Speaker4.jpg,Audio/Speaker2_Per/P2-15-Per.wav,Speaker2,گوینده۲,,,,,,,,,,,,,,,,,,,,,,,,,,,,966632,001,2024-06-30_17h43.24.255,5-24,2024.1.4,None,2024-06-30 17h43.29.556973 +0900,
,,,,,,,Images/Speaker1.jpg,Images/Speaker2.jpg,Images/Speaker3.jpg,Images/Speaker4.jpg,Audio/Speaker1_Per/P1-2-Per.wav,Speaker1,گوینده ۱,,,,,,,,,,,,,0,2,2,1,,,,,,,,,1954.2747847499995,,,,,,,,,,,,,,,,,,,,,,,,,,,,,,,,,,,,,,,,,,,,,,,,,,,,,,,,,,,,,,,,,,,,,,,,,,1952.5301880830011,1952.5431265420011,None,No response,Images/Speaker1.jpg,Images/Speaker2.jpg,Images/Speaker3.jpg,Images/Speaker4.jpg,Audio/Speaker1_Per/P1-2-Per.wav,Speaker2,گوینده۲,,,,,,,,,,,,,,,,,,,,,,,,,,,,966632,001,2024-06-30_17h43.24.255,5-24,2024.1.4,None,2024-06-30 17h43.29.556973 +0900,
,,,,,,,Images/Speaker1.jpg,Images/Speaker2.jpg,Images/Speaker3.jpg,Images/Speaker4.jpg,Audio/Speaker2_Per/P2-4-Per.wav,Speaker2,گوینده۲,,,,,,,,,,,,,0,3,3,23,,,,,,,,,1954.2747847499995,,,,,,,,,,,,,,,,,,,,,,,,,,,,,,,,,,,,,,,,,,,,,,,,,,,,,,,,,,,,,,,,,,,,,,,,,,1952.5433015420022,1952.5562515420024,None,No response,Images/Speaker1.jpg,Images/Speaker2.jpg,Images/Speaker3.jpg,Images/Speaker4.jpg,Audio/Speaker2_Per/P2-4-Per.wav,Speaker2,گوینده۲,,,,,,,,,,,,,,,,,,,,,,,,,,,,966632,001,2024-06-30_17h43.24.255,5-24,2024.1.4,None,2024-06-30 17h43.29.556973 +0900,
,,,,,,,Images/Speaker1.jpg,Images/Speaker2.jpg,Images/Speaker3.jpg,Images/Speaker4.jpg,Audio/Speaker2_Per/P2-17-Per.wav,Speaker2,گوینده۲,,,,,,,,,,,,,0,4,4,36,,,,,,,,,1954.2747847499995,,,,,,,,,,,,,,,,,,,,,,,,,,,,,,,,,,,,,,,,,,,,,,,,,,,,,,,,,,,,,,,,,,,,,,,,,,1952.5564263330016,1952.5677785830012,None,No response,Images/Speaker1.jpg,Images/Speaker2.jpg,Images/Speaker3.jpg,Images/Speaker4.jpg,Audio/Speaker2_Per/P2-17-Per.wav,Speaker2,گوینده۲,,,,,,,,,,,,,,,,,,,,,,,,,,,,966632,001,2024-06-30_17h43.24.255,5-24,2024.1.4,None,2024-06-30 17h43.29.556973 +0900,
,,,,,,,Images/Speaker1.jpg,Images/Speaker2.jpg,Images/Speaker3.jpg,Images/Speaker4.jpg,Audio/Speaker3_Per/P3-4-Per.wav,Speaker3,گوینده۳,,,,,,,,,,,,,0,5,5,43,,,,,,,,,1954.2747847499995,,,,,,,,,,,,,,,,,,,,,,,,,,,,,,,,,,,,,,,,,,,,,,,,,,,,,,,,,,,,,,,,,,,,,,,,,,1952.5679537920005,1952.5797780419998,None,No response,Images/Speaker1.jpg,Images/Speaker2.jpg,Images/Speaker3.jpg,Images/Speaker4.jpg,Audio/Speaker3_Per/P3-4-Per.wav,Speaker2,گوینده۲,,,,,,,,,,,,,,,,,,,,,,,,,,,,966632,001,2024-06-30_17h43.24.255,5-24,2024.1.4,None,2024-06-30 17h43.29.556973 +0900,
,,,,,,,Images/Speaker1.jpg,Images/Speaker2.jpg,Images/Speaker3.jpg,Images/Speaker4.jpg,Audio/Speaker1_Per/P1-16-Per.wav,Speaker1,گوینده ۱,,,,,,,,,,,,,0,6,6,15,,,,,,,,,1954.2747847499995,,,,,,,,,,,,,,,,,,,,,,,,,,,,,,,,,,,,,,,,,,,,,,,,,,,,,,,,,,,,,,,,,,,,,,,,,,1952.5799398330018,1952.591280208002,None,No response,Images/Speaker1.jpg,Images/Speaker2.jpg,Images/Speaker3.jpg,Images/Speaker4.jpg,Audio/Speaker1_Per/P1-16-Per.wav,Speaker2,گوینده۲,,,,,,,,,,,,,,,,,,,,,,,,,,,,966632,001,2024-06-30_17h43.24.255,5-24,2024.1.4,None,2024-06-30 17h43.29.556973 +0900,
,,,,,,,Images/Speaker1.jpg,Images/Speaker2.jpg,Images/Speaker3.jpg,Images/Speaker4.jpg,Audio/Speaker3_Per/P3-20-Per.wav,Speaker3,گوینده۳,,,,,,,,,,,,,0,7,7,59,,,,,,,,,1954.2747847499995,,,,,,,,,,,,,,,,,,,,,,,,,,,,,,,,,,,,,,,,,,,,,,,,,,,,,,,,,,,,,,,,,,,,,,,,,,1952.5914308329993,1952.6019547920005,None,No response,Images/Speaker1.jpg,Images/Speaker2.jpg,Images/Speaker3.jpg,Images/Speaker4.jpg,Audio/Speaker3_Per/P3-20-Per.wav,Speaker2,گوینده۲,,,,,,,,,,,,,,,,,,,,,,,,,,,,966632,001,2024-06-30_17h43.24.255,5-24,2024.1.4,None,2024-06-30 17h43.29.556973 +0900,
,,,,,,,Images/Speaker1.jpg,Images/Speaker2.jpg,Images/Speaker3.jpg,Images/Speaker4.jpg,Audio/Speaker2_Per/P2-3-Per.wav,Speaker2,گوینده۲,,,,,,,,,,,,,0,8,8,22,,,,,,,,,1954.2747847499995,,,,,,,,,,,,,,,,,,,,,,,,,,,,,,,,,,,,,,,,,,,,,,,,,,,,,,,,,,,,,,,,,,,,,,,,,,1952.6021050420022,1952.612299792003,None,No response,Images/Speaker1.jpg,Images/Speaker2.jpg,Images/Speaker3.jpg,Images/Speaker4.jpg,Audio/Speaker2_Per/P2-3-Per.wav,Speaker2,گوینده۲,,,,,,,,,,,,,,,,,,,,,,,,,,,,966632,001,2024-06-30_17h43.24.255,5-24,2024.1.4,None,2024-06-30 17h43.29.556973 +0900,
,,,,,,,Images/Speaker1.jpg,Images/Speaker2.jpg,Images/Speaker3.jpg,Images/Speaker4.jpg,Audio/Speaker2_Per/P2-5-Per.wav,Speaker2,گوینده۲,,,,,,,,,,,,,0,9,9,24,,,,,,,,,1954.2747847499995,,,,,,,,,,,,,,,,,,,,,,,,,,,,,,,,,,,,,,,,,,,,,,,,,,,,,,,,,,,,,,,,,,,,,,,,,,1952.612446375002,1952.6231974580005,None,No response,Images/Speaker1.jpg,Images/Speaker2.jpg,Images/Speaker3.jpg,Images/Speaker4.jpg,Audio/Speaker2_Per/P2-5-Per.wav,Speaker2,گوینده۲,,,,,,,,,,,,,,,,,,,,,,,,,,,,966632,001,2024-06-30_17h43.24.255,5-24,2024.1.4,None,2024-06-30 17h43.29.556973 +0900,
,,,,,,,Images/Speaker1.jpg,Images/Speaker2.jpg,Images/Speaker3.jpg,Images/Speaker4.jpg,Audio/Speaker4_Per/P4-18-Per.wav,Speaker4,گوینده۴,,,,,,,,,,,,,0,10,10,77,,,,,,,,,1954.2747847499995,,,,,,,,,,,,,,,,,,,,,,,,,,,,,,,,,,,,,,,,,,,,,,,,,,,,,,,,,,,,,,,,,,,,,,,,,,1952.6233436250004,1952.6335412500011,None,No response,Images/Speaker1.jpg,Images/Speaker2.jpg,Images/Speaker3.jpg,Images/Speaker4.jpg,Audio/Speaker4_Per/P4-18-Per.wav,Speaker2,گوینده۲,,,,,,,,,,,,,,,,,,,,,,,,,,,,966632,001,2024-06-30_17h43.24.255,5-24,2024.1.4,None,2024-06-30 17h43.29.556973 +0900,
,,,,,,,Images/Speaker1.jpg,Images/Speaker2.jpg,Images/Speaker3.jpg,Images/Speaker4.jpg,Audio/Speaker4_Per/P4-4-Per.wav,Speaker4,گوینده۴,,,,,,,,,,,,,0,11,11,63,,,,,,,,,1954.2747847499995,,,,,,,,,,,,,,,,,,,,,,,,,,,,,,,,,,,,,,,,,,,,,,,,,,,,,,,,,,,,,,,,,,,,,,,,,,1952.6336922080009,1952.644412042002,None,No response,Images/Speaker1.jpg,Images/Speaker2.jpg,Images/Speaker3.jpg,Images/Speaker4.jpg,Audio/Speaker4_Per/P4-4-Per.wav,Speaker2,گوینده۲,,,,,,,,,,,,,,,,,,,,,,,,,,,,966632,001,2024-06-30_17h43.24.255,5-24,2024.1.4,None,2024-06-30 17h43.29.556973 +0900,
,,,,,,,Images/Speaker1.jpg,Images/Speaker2.jpg,Images/Speaker3.jpg,Images/Speaker4.jpg,Audio/Speaker3_Per/P3-5-Per.wav,Speaker3,گوینده۳,,,,,,,,,,,,,0,12,12,44,,,,,,,,,1954.2747847499995,,,,,,,,,,,,,,,,,,,,,,,,,,,,,,,,,,,,,,,,,,,,,,,,,,,,,,,,,,,,,,,,,,,,,,,,,,1952.6445590830008,1952.6554113330021,None,No response,Images/Speaker1.jpg,Images/Speaker2.jpg,Images/Speaker3.jpg,Images/Speaker4.jpg,Audio/Speaker3_Per/P3-5-Per.wav,Speaker2,گوینده۲,,,,,,,,,,,,,,,,,,,,,,,,,,,,966632,001,2024-06-30_17h43.24.255,5-24,2024.1.4,None,2024-06-30 17h43.29.556973 +0900,
,,,,,,,Images/Speaker1.jpg,Images/Speaker2.jpg,Images/Speaker3.jpg,Images/Speaker4.jpg,Audio/Speaker1_Per/P1-9-Per.wav,Speaker1,گوینده ۱,,,,,,,,,,,,,0,13,13,8,,,,,,,,,1954.2747847499995,,,,,,,,,,,,,,,,,,,,,,,,,,,,,,,,,,,,,,,,,,,,,,,,,,,,,,,,,,,,,,,,,,,,,,,,,,1952.6555578330008,1952.666333958001,None,No response,Images/Speaker1.jpg,Images/Speaker2.jpg,Images/Speaker3.jpg,Images/Speaker4.jpg,Audio/Speaker1_Per/P1-9-Per.wav,Speaker2,گوینده۲,,,,,,,,,,,,,,,,,,,,,,,,,,,,966632,001,2024-06-30_17h43.24.255,5-24,2024.1.4,None,2024-06-30 17h43.29.556973 +0900,
,,,,,,,Images/Speaker1.jpg,Images/Speaker2.jpg,Images/Speaker3.jpg,Images/Speaker4.jpg,Audio/Speaker2_Per/P2-12-Per.wav,Speaker2,گوینده۲,,,,,,,,,,,,,0,14,14,31,,,,,,,,,1954.2747847499995,,,,,,,,,,,,,,,,,,,,,,,,,,,,,,,,,,,,,,,,,,,,,,,,,,,,,,,,,,,,,,,,,,,,,,,,,,1952.6664901250006,1952.6768747919996,None,No response,Images/Speaker1.jpg,Images/Speaker2.jpg,Images/Speaker3.jpg,Images/Speaker4.jpg,Audio/Speaker2_Per/P2-12-Per.wav,Speaker2,گوینده۲,,,,,,,,,,,,,,,,,,,,,,,,,,,,966632,001,2024-06-30_17h43.24.255,5-24,2024.1.4,None,2024-06-30 17h43.29.556973 +0900,
,,,,,,,Images/Speaker1.jpg,Images/Speaker2.jpg,Images/Speaker3.jpg,Images/Speaker4.jpg,Audio/Speaker4_Per/P4-2-Per.wav,Speaker4,گوینده۴,,,,,,,,,,,,,0,15,15,61,,,,,,,,,1954.2747847499995,,,,,,,,,,,,,,,,,,,,,,,,,,,,,,,,,,,,,,,,,,,,,,,,,,,,,,,,,,,,,,,,,,,,,,,,,,1952.6770186249996,1952.6880122080001,None,No response,Images/Speaker1.jpg,Images/Speaker2.jpg,Images/Speaker3.jpg,Images/Speaker4.jpg,Audio/Speaker4_Per/P4-2-Per.wav,Speaker2,گوینده۲,,,,,,,,,,,,,,,,,,,,,,,,,,,,966632,001,2024-06-30_17h43.24.255,5-24,2024.1.4,None,2024-06-30 17h43.29.556973 +0900,
,,,,,,,Images/Speaker1.jpg,Images/Speaker2.jpg,Images/Speaker3.jpg,Images/Speaker4.jpg,Audio/Speaker4_Per/P4-10-Per.wav,Speaker4,گوینده۴,,,,,,,,,,,,,0,16,16,69,,,,,,,,,1954.2747847499995,,,,,,,,,,,,,,,,,,,,,,,,,,,,,,,,,,,,,,,,,,,,,,,,,,,,,,,,,,,,,,,,,,,,,,,,,,1952.6881501669995,1952.6987434580005,None,No response,Images/Speaker1.jpg,Images/Speaker2.jpg,Images/Speaker3.jpg,Images/Speaker4.jpg,Audio/Speaker4_Per/P4-10-Per.wav,Speaker2,گوینده۲,,,,,,,,,,,,,,,,,,,,,,,,,,,,966632,001,2024-06-30_17h43.24.255,5-24,2024.1.4,None,2024-06-30 17h43.29.556973 +0900,
,,,,,,,Images/Speaker1.jpg,Images/Speaker2.jpg,Images/Speaker3.jpg,Images/Speaker4.jpg,Audio/Speaker3_Per/P3-3-Per.wav,Speaker3,گوینده۳,,,,,,,,,,,,,0,17,17,42,,,,,,,,,1954.2747847499995,,,,,,,,,,,,,,,,,,,,,,,,,,,,,,,,,,,,,,,,,,,,,,,,,,,,,,,,,,,,,,,,,,,,,,,,,,1952.6988805420006,1952.7090189170012,None,No response,Images/Speaker1.jpg,Images/Speaker2.jpg,Images/Speaker3.jpg,Images/Speaker4.jpg,Audio/Speaker3_Per/P3-3-Per.wav,Speaker2,گوینده۲,,,,,,,,,,,,,,,,,,,,,,,,,,,,966632,001,2024-06-30_17h43.24.255,5-24,2024.1.4,None,2024-06-30 17h43.29.556973 +0900,
,,,,,,,Images/Speaker1.jpg,Images/Speaker2.jpg,Images/Speaker3.jpg,Images/Speaker4.jpg,Audio/Speaker4_Per/P4-12-Per.wav,Speaker4,گوینده۴,,,,,,,,,,,,,0,18,18,71,,,,,,,,,1954.2747847499995,,,,,,,,,,,,,,,,,,,,,,,,,,,,,,,,,,,,,,,,,,,,,,,,,,,,,,,,,,,,,,,,,,,,,,,,,,1952.7091705420025,1952.7197059579994,None,No response,Images/Speaker1.jpg,Images/Speaker2.jpg,Images/Speaker3.jpg,Images/Speaker4.jpg,Audio/Speaker4_Per/P4-12-Per.wav,Speaker2,گوینده۲,,,,,,,,,,,,,,,,,,,,,,,,,,,,966632,001,2024-06-30_17h43.24.255,5-24,2024.1.4,None,2024-06-30 17h43.29.556973 +0900,
,,,,,,,Images/Speaker1.jpg,Images/Speaker2.jpg,Images/Speaker3.jpg,Images/Speaker4.jpg,Audio/Speaker2_Per/P2-20-Per.wav,Speaker2,گوینده۲,,,,,,,,,,,,,0,19,19,39,,,,,,,,,1954.2747847499995,,,,,,,,,,,,,,,,,,,,,,,,,,,,,,,,,,,,,,,,,,,,,,,,,,,,,,,,,,,,,,,,,,,,,,,,,,1952.719852000002,1952.7299860420026,None,No response,Images/Speaker1.jpg,Images/Speaker2.jpg,Images/Speaker3.jpg,Images/Speaker4.jpg,Audio/Speaker2_Per/P2-20-Per.wav,Speaker2,گوینده۲,,,,,,,,,,,,,,,,,,,,,,,,,,,,966632,001,2024-06-30_17h43.24.255,5-24,2024.1.4,None,2024-06-30 17h43.29.556973 +0900,
,,,,,,,Images/Speaker1.jpg,Images/Speaker2.jpg,Images/Speaker3.jpg,Images/Speaker4.jpg,Audio/Speaker1_Per/P1-17-Per.wav,Speaker1,گوینده ۱,,,,,,,,,,,,,0,20,20,16,,,,,,,,,1954.2747847499995,,,,,,,,,,,,,,,,,,,,,,,,,,,,,,,,,,,,,,,,,,,,,,,,,,,,,,,,,,,,,,,,,,,,,,,,,,1952.7301280000029,1952.7401051250017,None,No response,Images/Speaker1.jpg,Images/Speaker2.jpg,Images/Speaker3.jpg,Images/Speaker4.jpg,Audio/Speaker1_Per/P1-17-Per.wav,Speaker2,گوینده۲,,,,,,,,,,,,,,,,,,,,,,,,,,,,966632,001,2024-06-30_17h43.24.255,5-24,2024.1.4,None,2024-06-30 17h43.29.556973 +0900,
,,,,,,,Images/Speaker1.jpg,Images/Speaker2.jpg,Images/Speaker3.jpg,Images/Speaker4.jpg,Audio/Speaker4_Per/P4-13-Per.wav,Speaker4,گوینده۴,,,,,,,,,,,,,0,21,21,72,,,,,,,,,1954.2747847499995,,,,,,,,,,,,,,,,,,,,,,,,,,,,,,,,,,,,,,,,,,,,,,,,,,,,,,,,,,,,,,,,,,,,,,,,,,1952.7402434169999,1952.7509697080022,None,No response,Images/Speaker1.jpg,Images/Speaker2.jpg,Images/Speaker3.jpg,Images/Speaker4.jpg,Audio/Speaker4_Per/P4-13-Per.wav,Speaker2,گوینده۲,,,,,,,,,,,,,,,,,,,,,,,,,,,,966632,001,2024-06-30_17h43.24.255,5-24,2024.1.4,None,2024-06-30 17h43.29.556973 +0900,
,,,,,,,Images/Speaker1.jpg,Images/Speaker2.jpg,Images/Speaker3.jpg,Images/Speaker4.jpg,Audio/Speaker3_Per/P3-19-Per.wav,Speaker3,گوینده۳,,,,,,,,,,,,,0,22,22,58,,,,,,,,,1954.2747847499995,,,,,,,,,,,,,,,,,,,,,,,,,,,,,,,,,,,,,,,,,,,,,,,,,,,,,,,,,,,,,,,,,,,,,,,,,,1952.7511162920018,1952.761838208,None,No response,Images/Speaker1.jpg,Images/Speaker2.jpg,Images/Speaker3.jpg,Images/Speaker4.jpg,Audio/Speaker3_Per/P3-19-Per.wav,Speaker2,گوینده۲,,,,,,,,,,,,,,,,,,,,,,,,,,,,966632,001,2024-06-30_17h43.24.255,5-24,2024.1.4,None,2024-06-30 17h43.29.556973 +0900,
,,,,,,,Images/Speaker1.jpg,Images/Speaker2.jpg,Images/Speaker3.jpg,Images/Speaker4.jpg,Audio/Speaker4_Per/P4-5-Per.wav,Speaker4,گوینده۴,,,,,,,,,,,,,0,23,23,64,,,,,,,,,1954.2747847499995,,,,,,,,,,,,,,,,,,,,,,,,,,,,,,,,,,,,,,,,,,,,,,,,,,,,,,,,,,,,,,,,,,,,,,,,,,1952.7619767079996,1952.772281417001,None,No response,Images/Speaker1.jpg,Images/Speaker2.jpg,Images/Speaker3.jpg,Images/Speaker4.jpg,Audio/Speaker4_Per/P4-5-Per.wav,Speaker2,گوینده۲,,,,,,,,,,,,,,,,,,,,,,,,,,,,966632,001,2024-06-30_17h43.24.255,5-24,2024.1.4,None,2024-06-30 17h43.29.556973 +0900,
,,,,,,,Images/Speaker1.jpg,Images/Speaker2.jpg,Images/Speaker3.jpg,Images/Speaker4.jpg,Audio/Speaker4_Per/P4-20-Per.wav,Speaker4,گوینده۴,,,,,,,,,,,,,0,24,24,79,,,,,,,,,1954.2747847499995,,,,,,,,,,,,,,,,,,,,,,,,,,,,,,,,,,,,,,,,,,,,,,,,,,,,,,,,,,,,,,,,,,,,,,,,,,1952.7724283330026,1952.7831352079993,None,No response,Images/Speaker1.jpg,Images/Speaker2.jpg,Images/Speaker3.jpg,Images/Speaker4.jpg,Audio/Speaker4_Per/P4-20-Per.wav,Speaker2,گوینده۲,,,,,,,,,,,,,,,,,,,,,,,,,,,,966632,001,2024-06-30_17h43.24.255,5-24,2024.1.4,None,2024-06-30 17h43.29.556973 +0900,
,,,,,,,Images/Speaker1.jpg,Images/Speaker2.jpg,Images/Speaker3.jpg,Images/Speaker4.jpg,Audio/Speaker1_Per/P1-13-Per.wav,Speaker1,گوینده ۱,,,,,,,,,,,,,0,25,25,12,,,,,,,,,1954.2747847499995,,,,,,,,,,,,,,,,,,,,,,,,,,,,,,,,,,,,,,,,,,,,,,,,,,,,,,,,,,,,,,,,,,,,,,,,,,1952.7832807080013,1952.7937099170013,None,No response,Images/Speaker1.jpg,Images/Speaker2.jpg,Images/Speaker3.jpg,Images/Speaker4.jpg,Audio/Speaker1_Per/P1-13-Per.wav,Speaker2,گوینده۲,,,,,,,,,,,,,,,,,,,,,,,,,,,,966632,001,2024-06-30_17h43.24.255,5-24,2024.1.4,None,2024-06-30 17h43.29.556973 +0900,
,,,,,,,Images/Speaker1.jpg,Images/Speaker2.jpg,Images/Speaker3.jpg,Images/Speaker4.jpg,Audio/Speaker3_Per/P3-9-Per.wav,Speaker3,گوینده۳,,,,,,,,,,,,,0,26,26,48,,,,,,,,,1954.2747847499995,,,,,,,,,,,,,,,,,,,,,,,,,,,,,,,,,,,,,,,,,,,,,,,,,,,,,,,,,,,,,,,,,,,,,,,,,,1952.7938450420006,1952.804221208,None,No response,Images/Speaker1.jpg,Images/Speaker2.jpg,Images/Speaker3.jpg,Images/Speaker4.jpg,Audio/Speaker3_Per/P3-9-Per.wav,Speaker2,گوینده۲,,,,,,,,,,,,,,,,,,,,,,,,,,,,966632,001,2024-06-30_17h43.24.255,5-24,2024.1.4,None,2024-06-30 17h43.29.556973 +0900,
,,,,,,,Images/Speaker1.jpg,Images/Speaker2.jpg,Images/Speaker3.jpg,Images/Speaker4.jpg,Audio/Speaker3_Per/P3-16-Per.wav,Speaker3,گوینده۳,,,,,,,,,,,,,0,27,27,55,,,,,,,,,1954.2747847499995,,,,,,,,,,,,,,,,,,,,,,,,,,,,,,,,,,,,,,,,,,,,,,,,,,,,,,,,,,,,,,,,,,,,,,,,,,1952.8043549169997,1952.814582875002,None,No response,Images/Speaker1.jpg,Images/Speaker2.jpg,Images/Speaker3.jpg,Images/Speaker4.jpg,Audio/Speaker3_Per/P3-16-Per.wav,Speaker2,گوینده۲,,,,,,,,,,,,,,,,,,,,,,,,,,,,966632,001,2024-06-30_17h43.24.255,5-24,2024.1.4,None,2024-06-30 17h43.29.556973 +0900,
,,,,,,,Images/Speaker1.jpg,Images/Speaker2.jpg,Images/Speaker3.jpg,Images/Speaker4.jpg,Audio/Speaker3_Per/P3-11-Per.wav,Speaker3,گوینده۳,,,,,,,,,,,,,0,28,28,50,,,,,,,,,1954.2747847499995,,,,,,,,,,,,,,,,,,,,,,,,,,,,,,,,,,,,,,,,,,,,,,,,,,,,,,,,,,,,,,,,,,,,,,,,,,1952.8147157500025,1952.826281208003,None,No response,Images/Speaker1.jpg,Images/Speaker2.jpg,Images/Speaker3.jpg,Images/Speaker4.jpg,Audio/Speaker3_Per/P3-11-Per.wav,Speaker2,گوینده۲,,,,,,,,,,,,,,,,,,,,,,,,,,,,966632,001,2024-06-30_17h43.24.255,5-24,2024.1.4,None,2024-06-30 17h43.29.556973 +0900,
,,,,,,,Images/Speaker1.jpg,Images/Speaker2.jpg,Images/Speaker3.jpg,Images/Speaker4.jpg,Audio/Speaker3_Per/P3-13-Per.wav,Speaker3,گوینده۳,,,,,,,,,,,,,0,29,29,52,,,,,,,,,1954.2747847499995,,,,,,,,,,,,,,,,,,,,,,,,,,,,,,,,,,,,,,,,,,,,,,,,,,,,,,,,,,,,,,,,,,,,,,,,,,1952.8264226669999,1952.8373625830027,None,No response,Images/Speaker1.jpg,Images/Speaker2.jpg,Images/Speaker3.jpg,Images/Speaker4.jpg,Audio/Speaker3_Per/P3-13-Per.wav,Speaker2,گوینده۲,,,,,,,,,,,,,,,,,,,,,,,,,,,,966632,001,2024-06-30_17h43.24.255,5-24,2024.1.4,None,2024-06-30 17h43.29.556973 +0900,
,,,,,,,Images/Speaker1.jpg,Images/Speaker2.jpg,Images/Speaker3.jpg,Images/Speaker4.jpg,Audio/Speaker2_Per/P2-11-Per.wav,Speaker2,گوینده۲,,,,,,,,,,,,,0,30,30,30,,,,,,,,,1954.2747847499995,,,,,,,,,,,,,,,,,,,,,,,,,,,,,,,,,,,,,,,,,,,,,,,,,,,,,,,,,,,,,,,,,,,,,,,,,,1952.8375158750023,1952.8481769579994,None,No response,Images/Speaker1.jpg,Images/Speaker2.jpg,Images/Speaker3.jpg,Images/Speaker4.jpg,Audio/Speaker2_Per/P2-11-Per.wav,Speaker2,گوینده۲,,,,,,,,,,,,,,,,,,,,,,,,,,,,966632,001,2024-06-30_17h43.24.255,5-24,2024.1.4,None,2024-06-30 17h43.29.556973 +0900,
,,,,,,,Images/Speaker1.jpg,Images/Speaker2.jpg,Images/Speaker3.jpg,Images/Speaker4.jpg,Audio/Speaker1_Per/P1-5-Per.wav,Speaker1,گوینده ۱,,,,,,,,,,,,,0,31,31,4,,,,,,,,,1954.2747847499995,,,,,,,,,,,,,,,,,,,,,,,,,,,,,,,,,,,,,,,,,,,,,,,,,,,,,,,,,,,,,,,,,,,,,,,,,,1952.8483245419993,1952.8589018330022,None,No response,Images/Speaker1.jpg,Images/Speaker2.jpg,Images/Speaker3.jpg,Images/Speaker4.jpg,Audio/Speaker1_Per/P1-5-Per.wav,Speaker2,گوینده۲,,,,,,,,,,,,,,,,,,,,,,,,,,,,966632,001,2024-06-30_17h43.24.255,5-24,2024.1.4,None,2024-06-30 17h43.29.556973 +0900,
,,,,,,,Images/Speaker1.jpg,Images/Speaker2.jpg,Images/Speaker3.jpg,Images/Speaker4.jpg,Audio/Speaker3_Per/P3-2-Per.wav,Speaker3,گوینده۳,,,,,,,,,,,,,0,32,32,41,,,,,,,,,1954.2747847499995,,,,,,,,,,,,,,,,,,,,,,,,,,,,,,,,,,,,,,,,,,,,,,,,,,,,,,,,,,,,,,,,,,,,,,,,,,1952.8590393330014,1952.8702532080024,None,No response,Images/Speaker1.jpg,Images/Speaker2.jpg,Images/Speaker3.jpg,Images/Speaker4.jpg,Audio/Speaker3_Per/P3-2-Per.wav,Speaker2,گوینده۲,,,,,,,,,,,,,,,,,,,,,,,,,,,,966632,001,2024-06-30_17h43.24.255,5-24,2024.1.4,None,2024-06-30 17h43.29.556973 +0900,
,,,,,,,Images/Speaker1.jpg,Images/Speaker2.jpg,Images/Speaker3.jpg,Images/Speaker4.jpg,Audio/Speaker2_Per/P2-8-Per.wav,Speaker2,گوینده۲,,,,,,,,,,,,,0,33,33,27,,,,,,,,,1954.2747847499995,,,,,,,,,,,,,,,,,,,,,,,,,,,,,,,,,,,,,,,,,,,,,,,,,,,,,,,,,,,,,,,,,,,,,,,,,,1952.8703962920008,1952.8807778750015,None,No response,Images/Speaker1.jpg,Images/Speaker2.jpg,Images/Speaker3.jpg,Images/Speaker4.jpg,Audio/Speaker2_Per/P2-8-Per.wav,Speaker2,گوینده۲,,,,,,,,,,,,,,,,,,,,,,,,,,,,966632,001,2024-06-30_17h43.24.255,5-24,2024.1.4,None,2024-06-30 17h43.29.556973 +0900,
,,,,,,,Images/Speaker1.jpg,Images/Speaker2.jpg,Images/Speaker3.jpg,Images/Speaker4.jpg,Audio/Speaker3_Per/P3-17-Per.wav,Speaker3,گوینده۳,,,,,,,,,,,,,0,34,34,56,,,,,,,,,1954.2747847499995,,,,,,,,,,,,,,,,,,,,,,,,,,,,,,,,,,,,,,,,,,,,,,,,,,,,,,,,,,,,,,,,,,,,,,,,,,1952.8809180000026,1952.8909307920003,None,No response,Images/Speaker1.jpg,Images/Speaker2.jpg,Images/Speaker3.jpg,Images/Speaker4.jpg,Audio/Speaker3_Per/P3-17-Per.wav,Speaker2,گوینده۲,,,,,,,,,,,,,,,,,,,,,,,,,,,,966632,001,2024-06-30_17h43.24.255,5-24,2024.1.4,None,2024-06-30 17h43.29.556973 +0900,
,,,,,,,Images/Speaker1.jpg,Images/Speaker2.jpg,Images/Speaker3.jpg,Images/Speaker4.jpg,Audio/Speaker4_Per/P4-3-Per.wav,Speaker4,گوینده۴,,,,,,,,,,,,,0,35,35,62,,,,,,,,,1954.2747847499995,,,,,,,,,,,,,,,,,,,,,,,,,,,,,,,,,,,,,,,,,,,,,,,,,,,,,,,,,,,,,,,,,,,,,,,,,,1952.891072792001,1952.9014052500024,None,No response,Images/Speaker1.jpg,Images/Speaker2.jpg,Images/Speaker3.jpg,Images/Speaker4.jpg,Audio/Speaker4_Per/P4-3-Per.wav,Speaker2,گوینده۲,,,,,,,,,,,,,,,,,,,,,,,,,,,,966632,001,2024-06-30_17h43.24.255,5-24,2024.1.4,None,2024-06-30 17h43.29.556973 +0900,
,,,,,,,Images/Speaker1.jpg,Images/Speaker2.jpg,Images/Speaker3.jpg,Images/Speaker4.jpg,Audio/Speaker1_Per/P1-3-Per.wav,Speaker1,گوینده ۱,,,,,,,,,,,,,0,36,36,2,,,,,,,,,1954.2747847499995,,,,,,,,,,,,,,,,,,,,,,,,,,,,,,,,,,,,,,,,,,,,,,,,,,,,,,,,,,,,,,,,,,,,,,,,,,1952.9015414580026,1952.9118849580009,None,No response,Images/Speaker1.jpg,Images/Speaker2.jpg,Images/Speaker3.jpg,Images/Speaker4.jpg,Audio/Speaker1_Per/P1-3-Per.wav,Speaker2,گوینده۲,,,,,,,,,,,,,,,,,,,,,,,,,,,,966632,001,2024-06-30_17h43.24.255,5-24,2024.1.4,None,2024-06-30 17h43.29.556973 +0900,
,,,,,,,Images/Speaker1.jpg,Images/Speaker2.jpg,Images/Speaker3.jpg,Images/Speaker4.jpg,Audio/Speaker1_Per/P1-8-Per.wav,Speaker1,گوینده ۱,,,,,,,,,,,,,0,37,37,7,,,,,,,,,1954.2747847499995,,,,,,,,,,,,,,,,,,,,,,,,,,,,,,,,,,,,,,,,,,,,,,,,,,,,,,,,,,,,,,,,,,,,,,,,,,1952.912024833,1952.922754583,None,No response,Images/Speaker1.jpg,Images/Speaker2.jpg,Images/Speaker3.jpg,Images/Speaker4.jpg,Audio/Speaker1_Per/P1-8-Per.wav,Speaker2,گوینده۲,,,,,,,,,,,,,,,,,,,,,,,,,,,,966632,001,2024-06-30_17h43.24.255,5-24,2024.1.4,None,2024-06-30 17h43.29.556973 +0900,
,,,,,,,Images/Speaker1.jpg,Images/Speaker2.jpg,Images/Speaker3.jpg,Images/Speaker4.jpg,Audio/Speaker3_Per/P3-15-Per.wav,Speaker3,گوینده۳,,,,,,,,,,,,,0,38,38,54,,,,,,,,,1954.2747847499995,,,,,,,,,,,,,,,,,,,,,,,,,,,,,,,,,,,,,,,,,,,,,,,,,,,,,,,,,,,,,,,,,,,,,,,,,,1952.9228994170007,1952.933999375,None,No response,Images/Speaker1.jpg,Images/Speaker2.jpg,Images/Speaker3.jpg,Images/Speaker4.jpg,Audio/Speaker3_Per/P3-15-Per.wav,Speaker2,گوینده۲,,,,,,,,,,,,,,,,,,,,,,,,,,,,966632,001,2024-06-30_17h43.24.255,5-24,2024.1.4,None,2024-06-30 17h43.29.556973 +0900,
,,,,,,,Images/Speaker1.jpg,Images/Speaker2.jpg,Images/Speaker3.jpg,Images/Speaker4.jpg,Audio/Speaker2_Per/P2-19-Per.wav,Speaker2,گوینده۲,,,,,,,,,,,,,0,39,39,38,,,,,,,,,1954.2747847499995,,,,,,,,,,,,,,,,,,,,,,,,,,,,,,,,,,,,,,,,,,,,,,,,,,,,,,,,,,,,,,,,,,,,,,,,,,1952.934139500001,1952.9448318329996,None,No response,Images/Speaker1.jpg,Images/Speaker2.jpg,Images/Speaker3.jpg,Images/Speaker4.jpg,Audio/Speaker2_Per/P2-19-Per.wav,Speaker2,گوینده۲,,,,,,,,,,,,,,,,,,,,,,,,,,,,966632,001,2024-06-30_17h43.24.255,5-24,2024.1.4,None,2024-06-30 17h43.29.556973 +0900,
,,,,,,,Images/Speaker1.jpg,Images/Speaker2.jpg,Images/Speaker3.jpg,Images/Speaker4.jpg,Audio/Speaker1_Per/P1-20-Per.wav,Speaker1,گوینده ۱,,,,,,,,,,,,,0,40,40,19,,,,,,,,,1954.2747847499995,,,,,,,,,,,,,,,,,,,,,,,,,,,,,,,,,,,,,,,,,,,,,,,,,,,,,,,,,,,,,,,,,,,,,,,,,,1952.9449705000006,1952.9551862920016,None,No response,Images/Speaker1.jpg,Images/Speaker2.jpg,Images/Speaker3.jpg,Images/Speaker4.jpg,Audio/Speaker1_Per/P1-20-Per.wav,Speaker2,گوینده۲,,,,,,,,,,,,,,,,,,,,,,,,,,,,966632,001,2024-06-30_17h43.24.255,5-24,2024.1.4,None,2024-06-30 17h43.29.556973 +0900,
,,,,,,,Images/Speaker1.jpg,Images/Speaker2.jpg,Images/Speaker3.jpg,Images/Speaker4.jpg,Audio/Speaker4_Per/P4-11-Per.wav,Speaker4,گوینده۴,,,,,,,,,,,,,0,41,41,70,,,,,,,,,1954.2747847499995,,,,,,,,,,,,,,,,,,,,,,,,,,,,,,,,,,,,,,,,,,,,,,,,,,,,,,,,,,,,,,,,,,,,,,,,,,1952.9553363330015,1952.9661489169994,None,No response,Images/Speaker1.jpg,Images/Speaker2.jpg,Images/Speaker3.jpg,Images/Speaker4.jpg,Audio/Speaker4_Per/P4-11-Per.wav,Speaker2,گوینده۲,,,,,,,,,,,,,,,,,,,,,,,,,,,,966632,001,2024-06-30_17h43.24.255,5-24,2024.1.4,None,2024-06-30 17h43.29.556973 +0900,
,,,,,,,Images/Speaker1.jpg,Images/Speaker2.jpg,Images/Speaker3.jpg,Images/Speaker4.jpg,Audio/Speaker3_Per/P3-1-Per.wav,Speaker3,گوینده۳,,,,,,,,,,,,,0,42,42,40,,,,,,,,,1954.2747847499995,,,,,,,,,,,,,,,,,,,,,,,,,,,,,,,,,,,,,,,,,,,,,,,,,,,,,,,,,,,,,,,,,,,,,,,,,,1952.9662834580013,1952.9769502500021,None,No response,Images/Speaker1.jpg,Images/Speaker2.jpg,Images/Speaker3.jpg,Images/Speaker4.jpg,Audio/Speaker3_Per/P3-1-Per.wav,Speaker2,گوینده۲,,,,,,,,,,,,,,,,,,,,,,,,,,,,966632,001,2024-06-30_17h43.24.255,5-24,2024.1.4,None,2024-06-30 17h43.29.556973 +0900,
,,,,,,,Images/Speaker1.jpg,Images/Speaker2.jpg,Images/Speaker3.jpg,Images/Speaker4.jpg,Audio/Speaker4_Per/P4-17-Per.wav,Speaker4,گوینده۴,,,,,,,,,,,,,0,43,43,76,,,,,,,,,1954.2747847499995,,,,,,,,,,,,,,,,,,,,,,,,,,,,,,,,,,,,,,,,,,,,,,,,,,,,,,,,,,,,,,,,,,,,,,,,,,1952.9770892080014,1952.9872932079998,None,No response,Images/Speaker1.jpg,Images/Speaker2.jpg,Images/Speaker3.jpg,Images/Speaker4.jpg,Audio/Speaker4_Per/P4-17-Per.wav,Speaker2,گوینده۲,,,,,,,,,,,,,,,,,,,,,,,,,,,,966632,001,2024-06-30_17h43.24.255,5-24,2024.1.4,None,2024-06-30 17h43.29.556973 +0900,
,,,,,,,Images/Speaker1.jpg,Images/Speaker2.jpg,Images/Speaker3.jpg,Images/Speaker4.jpg,Audio/Speaker2_Per/P2-10-Per.wav,Speaker2,گوینده۲,,,,,,,,,,,,,0,44,44,29,,,,,,,,,1954.2747847499995,,,,,,,,,,,,,,,,,,,,,,,,,,,,,,,,,,,,,,,,,,,,,,,,,,,,,,,,,,,,,,,,,,,,,,,,,,1952.987429875,1952.9977806250026,None,No response,Images/Speaker1.jpg,Images/Speaker2.jpg,Images/Speaker3.jpg,Images/Speaker4.jpg,Audio/Speaker2_Per/P2-10-Per.wav,Speaker2,گوینده۲,,,,,,,,,,,,,,,,,,,,,,,,,,,,966632,001,2024-06-30_17h43.24.255,5-24,2024.1.4,None,2024-06-30 17h43.29.556973 +0900,
,,,,,,,Images/Speaker1.jpg,Images/Speaker2.jpg,Images/Speaker3.jpg,Images/Speaker4.jpg,Audio/Speaker3_Per/P3-12-Per.wav,Speaker3,گوینده۳,,,,,,,,,,,,,0,45,45,51,,,,,,,,,1954.2747847499995,,,,,,,,,,,,,,,,,,,,,,,,,,,,,,,,,,,,,,,,,,,,,,,,,,,,,,,,,,,,,,,,,,,,,,,,,,1952.9979137080009,1953.0079172920014,None,No response,Images/Speaker1.jpg,Images/Speaker2.jpg,Images/Speaker3.jpg,Images/Speaker4.jpg,Audio/Speaker3_Per/P3-12-Per.wav,Speaker2,گوینده۲,,,,,,,,,,,,,,,,,,,,,,,,,,,,966632,001,2024-06-30_17h43.24.255,5-24,2024.1.4,None,2024-06-30 17h43.29.556973 +0900,
,,,,,,,Images/Speaker1.jpg,Images/Speaker2.jpg,Images/Speaker3.jpg,Images/Speaker4.jpg,Audio/Speaker1_Per/P1-18-Per.wav,Speaker1,گوینده ۱,,,,,,,,,,,,,0,46,46,17,,,,,,,,,1954.2747847499995,,,,,,,,,,,,,,,,,,,,,,,,,,,,,,,,,,,,,,,,,,,,,,,,,,,,,,,,,,,,,,,,,,,,,,,,,,1953.0080558750014,1953.0182702500024,None,No response,Images/Speaker1.jpg,Images/Speaker2.jpg,Images/Speaker3.jpg,Images/Speaker4.jpg,Audio/Speaker1_Per/P1-18-Per.wav,Speaker2,گوینده۲,,,,,,,,,,,,,,,,,,,,,,,,,,,,966632,001,2024-06-30_17h43.24.255,5-24,2024.1.4,None,2024-06-30 17h43.29.556973 +0900,
,,,,,,,Images/Speaker1.jpg,Images/Speaker2.jpg,Images/Speaker3.jpg,Images/Speaker4.jpg,Audio/Speaker1_Per/P1-6-Per.wav,Speaker1,گوینده ۱,,,,,,,,,,,,,0,47,47,5,,,,,,,,,1954.2747847499995,,,,,,,,,,,,,,,,,,,,,,,,,,,,,,,,,,,,,,,,,,,,,,,,,,,,,,,,,,,,,,,,,,,,,,,,,,1953.018407792002,1953.028849958002,None,No response,Images/Speaker1.jpg,Images/Speaker2.jpg,Images/Speaker3.jpg,Images/Speaker4.jpg,Audio/Speaker1_Per/P1-6-Per.wav,Speaker2,گوینده۲,,,,,,,,,,,,,,,,,,,,,,,,,,,,966632,001,2024-06-30_17h43.24.255,5-24,2024.1.4,None,2024-06-30 17h43.29.556973 +0900,
,,,,,,,Images/Speaker1.jpg,Images/Speaker2.jpg,Images/Speaker3.jpg,Images/Speaker4.jpg,Audio/Speaker2_Per/P2-13-Per.wav,Speaker2,گوینده۲,,,,,,,,,,,,,0,48,48,32,,,,,,,,,1954.2747847499995,,,,,,,,,,,,,,,,,,,,,,,,,,,,,,,,,,,,,,,,,,,,,,,,,,,,,,,,,,,,,,,,,,,,,,,,,,1953.0289886669998,1953.0395153749996,None,No response,Images/Speaker1.jpg,Images/Speaker2.jpg,Images/Speaker3.jpg,Images/Speaker4.jpg,Audio/Speaker2_Per/P2-13-Per.wav,Speaker2,گوینده۲,,,,,,,,,,,,,,,,,,,,,,,,,,,,966632,001,2024-06-30_17h43.24.255,5-24,2024.1.4,None,2024-06-30 17h43.29.556973 +0900,
,,,,,,,Images/Speaker1.jpg,Images/Speaker2.jpg,Images/Speaker3.jpg,Images/Speaker4.jpg,Audio/Speaker1_Per/P1-1-Per.wav,Speaker1,گوینده ۱,,,,,,,,,,,,,0,49,49,0,,,,,,,,,1954.2747847499995,,,,,,,,,,,,,,,,,,,,,,,,,,,,,,,,,,,,,,,,,,,,,,,,,,,,,,,,,,,,,,,,,,,,,,,,,,1953.0396519580027,1953.049979833002,None,No response,Images/Speaker1.jpg,Images/Speaker2.jpg,Images/Speaker3.jpg,Images/Speaker4.jpg,Audio/Speaker1_Per/P1-1-Per.wav,Speaker2,گوینده۲,,,,,,,,,,,,,,,,,,,,,,,,,,,,966632,001,2024-06-30_17h43.24.255,5-24,2024.1.4,None,2024-06-30 17h43.29.556973 +0900,
,,,,,,,Images/Speaker1.jpg,Images/Speaker2.jpg,Images/Speaker3.jpg,Images/Speaker4.jpg,Audio/Speaker2_Per/P2-1-Per.wav,Speaker2,گوینده۲,,,,,,,,,,,,,0,50,50,20,,,,,,,,,1954.2747847499995,,,,,,,,,,,,,,,,,,,,,,,,,,,,,,,,,,,,,,,,,,,,,,,,,,,,,,,,,,,,,,,,,,,,,,,,,,1953.050111042001,1953.0604697920026,None,No response,Images/Speaker1.jpg,Images/Speaker2.jpg,Images/Speaker3.jpg,Images/Speaker4.jpg,Audio/Speaker2_Per/P2-1-Per.wav,Speaker2,گوینده۲,,,,,,,,,,,,,,,,,,,,,,,,,,,,966632,001,2024-06-30_17h43.24.255,5-24,2024.1.4,None,2024-06-30 17h43.29.556973 +0900,
,,,,,,,Images/Speaker1.jpg,Images/Speaker2.jpg,Images/Speaker3.jpg,Images/Speaker4.jpg,Audio/Speaker3_Per/P3-7-Per.wav,Speaker3,گوینده۳,,,,,,,,,,,,,0,51,51,46,,,,,,,,,1954.2747847499995,,,,,,,,,,,,,,,,,,,,,,,,,,,,,,,,,,,,,,,,,,,,,,,,,,,,,,,,,,,,,,,,,,,,,,,,,,1953.0606104170001,1953.0709925830015,None,No response,Images/Speaker1.jpg,Images/Speaker2.jpg,Images/Speaker3.jpg,Images/Speaker4.jpg,Audio/Speaker3_Per/P3-7-Per.wav,Speaker2,گوینده۲,,,,,,,,,,,,,,,,,,,,,,,,,,,,966632,001,2024-06-30_17h43.24.255,5-24,2024.1.4,None,2024-06-30 17h43.29.556973 +0900,
,,,,,,,Images/Speaker1.jpg,Images/Speaker2.jpg,Images/Speaker3.jpg,Images/Speaker4.jpg,Audio/Speaker3_Per/P3-18-Per.wav,Speaker3,گوینده۳,,,,,,,,,,,,,0,52,52,57,,,,,,,,,1954.2747847499995,,,,,,,,,,,,,,,,,,,,,,,,,,,,,,,,,,,,,,,,,,,,,,,,,,,,,,,,,,,,,,,,,,,,,,,,,,1953.0711302080017,1953.0811764169994,None,No response,Images/Speaker1.jpg,Images/Speaker2.jpg,Images/Speaker3.jpg,Images/Speaker4.jpg,Audio/Speaker3_Per/P3-18-Per.wav,Speaker2,گوینده۲,,,,,,,,,,,,,,,,,,,,,,,,,,,,966632,001,2024-06-30_17h43.24.255,5-24,2024.1.4,None,2024-06-30 17h43.29.556973 +0900,
,,,,,,,Images/Speaker1.jpg,Images/Speaker2.jpg,Images/Speaker3.jpg,Images/Speaker4.jpg,Audio/Speaker3_Per/P3-6-Per.wav,Speaker3,گوینده۳,,,,,,,,,,,,,0,53,53,45,,,,,,,,,1954.2747847499995,,,,,,,,,,,,,,,,,,,,,,,,,,,,,,,,,,,,,,,,,,,,,,,,,,,,,,,,,,,,,,,,,,,,,,,,,,1953.081314250001,1953.0918527920003,None,No response,Images/Speaker1.jpg,Images/Speaker2.jpg,Images/Speaker3.jpg,Images/Speaker4.jpg,Audio/Speaker3_Per/P3-6-Per.wav,Speaker2,گوینده۲,,,,,,,,,,,,,,,,,,,,,,,,,,,,966632,001,2024-06-30_17h43.24.255,5-24,2024.1.4,None,2024-06-30 17h43.29.556973 +0900,
,,,,,,,Images/Speaker1.jpg,Images/Speaker2.jpg,Images/Speaker3.jpg,Images/Speaker4.jpg,Audio/Speaker3_Per/P3-8-Per.wav,Speaker3,گوینده۳,,,,,,,,,,,,,0,54,54,47,,,,,,,,,1954.2747847499995,,,,,,,,,,,,,,,,,,,,,,,,,,,,,,,,,,,,,,,,,,,,,,,,,,,,,,,,,,,,,,,,,,,,,,,,,,1953.091986083,1953.1026749580014,None,No response,Images/Speaker1.jpg,Images/Speaker2.jpg,Images/Speaker3.jpg,Images/Speaker4.jpg,Audio/Speaker3_Per/P3-8-Per.wav,Speaker2,گوینده۲,,,,,,,,,,,,,,,,,,,,,,,,,,,,966632,001,2024-06-30_17h43.24.255,5-24,2024.1.4,None,2024-06-30 17h43.29.556973 +0900,
,,,,,,,Images/Speaker1.jpg,Images/Speaker2.jpg,Images/Speaker3.jpg,Images/Speaker4.jpg,Audio/Speaker1_Per/P1-4-Per.wav,Speaker1,گوینده ۱,,,,,,,,,,,,,0,55,55,3,,,,,,,,,1954.2747847499995,,,,,,,,,,,,,,,,,,,,,,,,,,,,,,,,,,,,,,,,,,,,,,,,,,,,,,,,,,,,,,,,,,,,,,,,,,1953.1028181250003,1953.1132040000011,None,No response,Images/Speaker1.jpg,Images/Speaker2.jpg,Images/Speaker3.jpg,Images/Speaker4.jpg,Audio/Speaker1_Per/P1-4-Per.wav,Speaker2,گوینده۲,,,,,,,,,,,,,,,,,,,,,,,,,,,,966632,001,2024-06-30_17h43.24.255,5-24,2024.1.4,None,2024-06-30 17h43.29.556973 +0900,
,,,,,,,Images/Speaker1.jpg,Images/Speaker2.jpg,Images/Speaker3.jpg,Images/Speaker4.jpg,Audio/Speaker4_Per/P4-7-Per.wav,Speaker4,گوینده۴,,,,,,,,,,,,,0,56,56,66,,,,,,,,,1954.2747847499995,,,,,,,,,,,,,,,,,,,,,,,,,,,,,,,,,,,,,,,,,,,,,,,,,,,,,,,,,,,,,,,,,,,,,,,,,,1953.113344292,1953.1236409580015,None,No response,Images/Speaker1.jpg,Images/Speaker2.jpg,Images/Speaker3.jpg,Images/Speaker4.jpg,Audio/Speaker4_Per/P4-7-Per.wav,Speaker2,گوینده۲,,,,,,,,,,,,,,,,,,,,,,,,,,,,966632,001,2024-06-30_17h43.24.255,5-24,2024.1.4,None,2024-06-30 17h43.29.556973 +0900,
,,,,,,,Images/Speaker1.jpg,Images/Speaker2.jpg,Images/Speaker3.jpg,Images/Speaker4.jpg,Audio/Speaker2_Per/P2-2-Per.wav,Speaker2,گوینده۲,,,,,,,,,,,,,0,57,57,21,,,,,,,,,1954.2747847499995,,,,,,,,,,,,,,,,,,,,,,,,,,,,,,,,,,,,,,,,,,,,,,,,,,,,,,,,,,,,,,,,,,,,,,,,,,1953.1237805000019,1953.134323708,None,No response,Images/Speaker1.jpg,Images/Speaker2.jpg,Images/Speaker3.jpg,Images/Speaker4.jpg,Audio/Speaker2_Per/P2-2-Per.wav,Speaker2,گوینده۲,,,,,,,,,,,,,,,,,,,,,,,,,,,,966632,001,2024-06-30_17h43.24.255,5-24,2024.1.4,None,2024-06-30 17h43.29.556973 +0900,
,,,,,,,Images/Speaker1.jpg,Images/Speaker2.jpg,Images/Speaker3.jpg,Images/Speaker4.jpg,Audio/Speaker1_Per/P1-19-Per.wav,Speaker1,گوینده ۱,,,,,,,,,,,,,0,58,58,18,,,,,,,,,1954.2747847499995,,,,,,,,,,,,,,,,,,,,,,,,,,,,,,,,,,,,,,,,,,,,,,,,,,,,,,,,,,,,,,,,,,,,,,,,,,1953.1344584170001,1953.1452105829994,None,No response,Images/Speaker1.jpg,Images/Speaker2.jpg,Images/Speaker3.jpg,Images/Speaker4.jpg,Audio/Speaker1_Per/P1-19-Per.wav,Speaker2,گوینده۲,,,,,,,,,,,,,,,,,,,,,,,,,,,,966632,001,2024-06-30_17h43.24.255,5-24,2024.1.4,None,2024-06-30 17h43.29.556973 +0900,
,,,,,,,Images/Speaker1.jpg,Images/Speaker2.jpg,Images/Speaker3.jpg,Images/Speaker4.jpg,Audio/Speaker2_Per/P2-7-Per.wav,Speaker2,گوینده۲,,,,,,,,,,,,,0,59,59,26,,,,,,,,,1954.2747847499995,,,,,,,,,,,,,,,,,,,,,,,,,,,,,,,,,,,,,,,,,,,,,,,,,,,,,,,,,,,,,,,,,,,,,,,,,,1953.1453532920023,1953.1558121250018,None,No response,Images/Speaker1.jpg,Images/Speaker2.jpg,Images/Speaker3.jpg,Images/Speaker4.jpg,Audio/Speaker2_Per/P2-7-Per.wav,Speaker2,گوینده۲,,,,,,,,,,,,,,,,,,,,,,,,,,,,966632,001,2024-06-30_17h43.24.255,5-24,2024.1.4,None,2024-06-30 17h43.29.556973 +0900,
,,,,,,,Images/Speaker1.jpg,Images/Speaker2.jpg,Images/Speaker3.jpg,Images/Speaker4.jpg,Audio/Speaker4_Per/P4-19-Per.wav,Speaker4,گوینده۴,,,,,,,,,,,,,0,60,60,78,,,,,,,,,1954.2747847499995,,,,,,,,,,,,,,,,,,,,,,,,,,,,,,,,,,,,,,,,,,,,,,,,,,,,,,,,,,,,,,,,,,,,,,,,,,1953.1559515420013,1953.1665042919994,None,No response,Images/Speaker1.jpg,Images/Speaker2.jpg,Images/Speaker3.jpg,Images/Speaker4.jpg,Audio/Speaker4_Per/P4-19-Per.wav,Speaker2,گوینده۲,,,,,,,,,,,,,,,,,,,,,,,,,,,,966632,001,2024-06-30_17h43.24.255,5-24,2024.1.4,None,2024-06-30 17h43.29.556973 +0900,
,,,,,,,Images/Speaker1.jpg,Images/Speaker2.jpg,Images/Speaker3.jpg,Images/Speaker4.jpg,Audio/Speaker1_Per/P1-7-Per.wav,Speaker1,گوینده ۱,,,,,,,,,,,,,0,61,61,6,,,,,,,,,1954.2747847499995,,,,,,,,,,,,,,,,,,,,,,,,,,,,,,,,,,,,,,,,,,,,,,,,,,,,,,,,,,,,,,,,,,,,,,,,,,1953.1666419169997,1953.176880375002,None,No response,Images/Speaker1.jpg,Images/Speaker2.jpg,Images/Speaker3.jpg,Images/Speaker4.jpg,Audio/Speaker1_Per/P1-7-Per.wav,Speaker2,گوینده۲,,,,,,,,,,,,,,,,,,,,,,,,,,,,966632,001,2024-06-30_17h43.24.255,5-24,2024.1.4,None,2024-06-30 17h43.29.556973 +0900,
,,,,,,,Images/Speaker1.jpg,Images/Speaker2.jpg,Images/Speaker3.jpg,Images/Speaker4.jpg,Audio/Speaker2_Per/P2-14-Per.wav,Speaker2,گوینده۲,,,,,,,,,,,,,0,62,62,33,,,,,,,,,1954.2747847499995,,,,,,,,,,,,,,,,,,,,,,,,,,,,,,,,,,,,,,,,,,,,,,,,,,,,,,,,,,,,,,,,,,,,,,,,,,1953.1770230420007,1953.1878424170027,None,No response,Images/Speaker1.jpg,Images/Speaker2.jpg,Images/Speaker3.jpg,Images/Speaker4.jpg,Audio/Speaker2_Per/P2-14-Per.wav,Speaker2,گوینده۲,,,,,,,,,,,,,,,,,,,,,,,,,,,,966632,001,2024-06-30_17h43.24.255,5-24,2024.1.4,None,2024-06-30 17h43.29.556973 +0900,
,,,,,,,Images/Speaker1.jpg,Images/Speaker2.jpg,Images/Speaker3.jpg,Images/Speaker4.jpg,Audio/Speaker3_Per/P3-10-Per.wav,Speaker3,گوینده۳,,,,,,,,,,,,,0,63,63,49,,,,,,,,,1954.2747847499995,,,,,,,,,,,,,,,,,,,,,,,,,,,,,,,,,,,,,,,,,,,,,,,,,,,,,,,,,,,,,,,,,,,,,,,,,,1953.1879805419994,1953.1987671669995,None,No response,Images/Speaker1.jpg,Images/Speaker2.jpg,Images/Speaker3.jpg,Images/Speaker4.jpg,Audio/Speaker3_Per/P3-10-Per.wav,Speaker2,گوینده۲,,,,,,,,,,,,,,,,,,,,,,,,,,,,966632,001,2024-06-30_17h43.24.255,5-24,2024.1.4,None,2024-06-30 17h43.29.556973 +0900,
,,,,,,,Images/Speaker1.jpg,Images/Speaker2.jpg,Images/Speaker3.jpg,Images/Speaker4.jpg,Audio/Speaker1_Per/P1-4-Per.wav,Speaker1,گوینده ۱,,,,,,,,,,,,,0,64,64,13,,,,,,,,,1954.2747847499995,,,,,,,,,,,,,,,,,,,,,,,,,,,,,,,,,,,,,,,,,,,,,,,,,,,,,,,,,,,,,,,,,,,,,,,,,,1953.1989038329993,1953.2095733330025,None,No response,Images/Speaker1.jpg,Images/Speaker2.jpg,Images/Speaker3.jpg,Images/Speaker4.jpg,Audio/Speaker1_Per/P1-4-Per.wav,Speaker2,گوینده۲,,,,,,,,,,,,,,,,,,,,,,,,,,,,966632,001,2024-06-30_17h43.24.255,5-24,2024.1.4,None,2024-06-30 17h43.29.556973 +0900,
,,,,,,,Images/Speaker1.jpg,Images/Speaker2.jpg,Images/Speaker3.jpg,Images/Speaker4.jpg,Audio/Speaker2_Per/P2-6-Per.wav,Speaker2,گوینده۲,,,,,,,,,,,,,0,65,65,25,,,,,,,,,1954.2747847499995,,,,,,,,,,,,,,,,,,,,,,,,,,,,,,,,,,,,,,,,,,,,,,,,,,,,,,,,,,,,,,,,,,,,,,,,,,1953.2097100419996,1953.220045375001,None,No response,Images/Speaker1.jpg,Images/Speaker2.jpg,Images/Speaker3.jpg,Images/Speaker4.jpg,Audio/Speaker2_Per/P2-6-Per.wav,Speaker2,گوینده۲,,,,,,,,,,,,,,,,,,,,,,,,,,,,966632,001,2024-06-30_17h43.24.255,5-24,2024.1.4,None,2024-06-30 17h43.29.556973 +0900,
,,,,,,,Images/Speaker1.jpg,Images/Speaker2.jpg,Images/Speaker3.jpg,Images/Speaker4.jpg,Audio/Speaker2_Per/P2-16-Per.wav,Speaker2,گوینده۲,,,,,,,,,,,,,0,66,66,35,,,,,,,,,1954.2747847499995,,,,,,,,,,,,,,,,,,,,,,,,,,,,,,,,,,,,,,,,,,,,,,,,,,,,,,,,,,,,,,,,,,,,,,,,,,1953.2201827080025,1953.2302456670004,None,No response,Images/Speaker1.jpg,Images/Speaker2.jpg,Images/Speaker3.jpg,Images/Speaker4.jpg,Audio/Speaker2_Per/P2-16-Per.wav,Speaker2,گوینده۲,,,,,,,,,,,,,,,,,,,,,,,,,,,,966632,001,2024-06-30_17h43.24.255,5-24,2024.1.4,None,2024-06-30 17h43.29.556973 +0900,
,,,,,,,Images/Speaker1.jpg,Images/Speaker2.jpg,Images/Speaker3.jpg,Images/Speaker4.jpg,Audio/Speaker4_Per/P4-6-Per.wav,Speaker4,گوینده۴,,,,,,,,,,,,,0,67,67,65,,,,,,,,,1954.2747847499995,,,,,,,,,,,,,,,,,,,,,,,,,,,,,,,,,,,,,,,,,,,,,,,,,,,,,,,,,,,,,,,,,,,,,,,,,,1953.2303832079997,1953.2408993330027,None,No response,Images/Speaker1.jpg,Images/Speaker2.jpg,Images/Speaker3.jpg,Images/Speaker4.jpg,Audio/Speaker4_Per/P4-6-Per.wav,Speaker2,گوینده۲,,,,,,,,,,,,,,,,,,,,,,,,,,,,966632,001,2024-06-30_17h43.24.255,5-24,2024.1.4,None,2024-06-30 17h43.29.556973 +0900,
,,,,,,,Images/Speaker1.jpg,Images/Speaker2.jpg,Images/Speaker3.jpg,Images/Speaker4.jpg,Audio/Speaker4_Per/P4-8-Per.wav,Speaker4,گوینده۴,,,,,,,,,,,,,0,68,68,67,,,,,,,,,1954.2747847499995,,,,,,,,,,,,,,,,,,,,,,,,,,,,,,,,,,,,,,,,,,,,,,,,,,,,,,,,,,,,,,,,,,,,,,,,,,1953.2410354170024,1953.2513699580013,None,No response,Images/Speaker1.jpg,Images/Speaker2.jpg,Images/Speaker3.jpg,Images/Speaker4.jpg,Audio/Speaker4_Per/P4-8-Per.wav,Speaker2,گوینده۲,,,,,,,,,,,,,,,,,,,,,,,,,,,,966632,001,2024-06-30_17h43.24.255,5-24,2024.1.4,None,2024-06-30 17h43.29.556973 +0900,
,,,,,,,Images/Speaker1.jpg,Images/Speaker2.jpg,Images/Speaker3.jpg,Images/Speaker4.jpg,Audio/Speaker4_Per/P4-9-Per.wav,Speaker4,گوینده۴,,,,,,,,,,,,,0,69,69,68,,,,,,,,,1954.2747847499995,,,,,,,,,,,,,,,,,,,,,,,,,,,,,,,,,,,,,,,,,,,,,,,,,,,,,,,,,,,,,,,,,,,,,,,,,,1953.2515219170018,1953.2617940830023,None,No response,Images/Speaker1.jpg,Images/Speaker2.jpg,Images/Speaker3.jpg,Images/Speaker4.jpg,Audio/Speaker4_Per/P4-9-Per.wav,Speaker2,گوینده۲,,,,,,,,,,,,,,,,,,,,,,,,,,,,966632,001,2024-06-30_17h43.24.255,5-24,2024.1.4,None,2024-06-30 17h43.29.556973 +0900,
