SpeakerImage1,SpeakerImage2,SpeakerImage3,SpeakerImage4,TrainingSound,EnglishCorrectAnswer,PersianCorrectAnswer,TrainingLoopGroup1.thisRepN,TrainingLoopGroup1.thisTrialN,TrainingLoopGroup1.thisN,TrainingLoopGroup1.thisIndex,TrainingLoopGroup2.thisRepN,TrainingLoopGroup2.thisTrialN,TrainingLoopGroup2.thisN,TrainingLoopGroup2.thisIndex,TrainingLoopGroup3.thisRepN,TrainingLoopGroup3.thisTrialN,TrainingLoopGroup3.thisN,TrainingLoopGroup3.thisIndex,thisRow.t,notes,trial.started,trial.stopped,GroupSelection.started,GroupInstructions.started,key_resp.started,GroupSelection.stopped,key_resp.keys,key_resp.rt,key_resp.duration,Introduction.started,text_2.started,image.started,sound_7.started,text_4.started,text_2.stopped,sound_8.started,image.stopped,text_4.stopped,image_7.started,sound_9.started,text_5.started,sound_10.started,image_7.stopped,text_5.stopped,image_8.started,sound_11.started,text_6.started,sound_12.started,image_8.stopped,text_6.stopped,image_9.started,sound_13.started,text_7.started,sound_14.started,image_9.stopped,text_7.stopped,Introduction.stopped,Instructions.started,InstructionText.started,InstructionText.stopped,Instructions.stopped,InitializeExperiment.started,InitializeExperiment.stopped,TrainingGroup3.started,SpeakerPicture3.started,image_15.started,image_16.started,image_17.started,Sound3.started,Instruction3.started,Response3.started,TrainingGroup3.stopped,feedbackText,Response3.keys,Response3.rt,Response3.duration,correct_responses_group3,total_trials_group3,FeedbackRoutine3.started,FeedbackText3.started,FeedbackText3.stopped,FeedbackRoutine3.stopped,CheckAccuracy.started,accuracy_group1,accuracy_group2,accuracy_group3,proceed_to_test,CheckAccuracy.stopped,participant,session,date,expName,psychopyVersion,frameRate,expStart,
,,,,,,,,,,,,,,,,,,,,,0.009514375000435393,0.009801125001104083,,,,,,,,,,,,,,,,,,,,,,,,,,,,,,,,,,,,,,,,,,,,,,,,,,,,,,,,,,,,,,,,,,,978158,001,2024-06-30_22h16.54.344,5-24,2024.1.4,None,2024-06-30 22h17.04.221223 +0900,
,,,,,,,,,,,,,,,,,,,,,,,0.0098177090039826,0.013968042003398295,0.013968042003398295,0.34766987500188407,3,0.293689958001778,None,,,,,,,,,,,,,,,,,,,,,,,,,,,,,,,,,,,,,,,,,,,,,,,,,,,,,,,,,,,,978158,001,2024-06-30_22h16.54.344,5-24,2024.1.4,None,2024-06-30 22h17.04.221223 +0900,
,,,,,,,,,,,,,,,,,,,,,,,,,,,,,,0.3476952920027543,0.3969367500030785,5.346050459003891,5.34878808366581,5.346050459003891,5.391484042003867,10.348680333667533,15.33503283400205,15.33503283400205,15.33503283400205,15.346756916664406,15.33503283400205,20.353190083664472,25.333650959000806,25.333650959000806,25.345467584003927,25.350317625667472,25.345467584003927,30.34706595867125,35.338502874998085,35.338502874998085,35.338502874998085,35.34800837566969,35.338502874998085,40.35437841666523,45.33904066700052,45.33904066700052,45.3316141250034,,,,,,,,,,,,,,,,,,,,,,,,,,,,,,,,978158,001,2024-06-30_22h16.54.344,5-24,2024.1.4,None,2024-06-30 22h17.04.221223 +0900,
,,,,,,,,,,,,,,,,,,,,,,,,,,,,,,,,,,,,,,,,,,,,,,,,,,,,,,,,,,45.33166829199763,45.33904066700052,46.40854741699877,46.322932374998345,,,,,,,,,,,,,,,,,,,,,,,,,,,,978158,001,2024-06-30_22h16.54.344,5-24,2024.1.4,None,2024-06-30 22h17.04.221223 +0900,
,,,,,,,,,,,,,,,,,,,,,,,,,,,,,,,,,,,,,,,,,,,,,,,,,,,,,,,,,,,,,,46.322981584002264,46.32331754200277,,,,,,,,,,,,,,,,,,,,,,,,,,978158,001,2024-06-30_22h16.54.344,5-24,2024.1.4,None,2024-06-30 22h17.04.221223 +0900,
Images/Speaker1.jpg,Images/Speaker2.jpg,Images/Speaker3.jpg,Images/Speaker4.jpg,Audio/Speaker4_En/P4-18-En.wav,Speaker4,گوینده۴,,,,,,,,,0,0,0,77,46.40854741699877,,,,,,,,,,,,,,,,,,,,,,,,,,,,,,,,,,,,,,,,,,,,,46.380935792003584,46.40854741699877,46.40854741699877,46.40854741699877,46.40854741699877,46.405391917336,46.40854741699877,46.40854741699877,49.20107733400073,Incorrect! The correct answer is Speaker4. نادرست! پاسخ صحیح گوینده۴ است,1,2.7914696250009,None,0,1,49.20190137500322,49.21555579199776,51.2252003340036,51.20178825000039,51.20179770899995,0,0,0.0,False,51.20206337499985,978158,001,2024-06-30_22h16.54.344,5-24,2024.1.4,None,2024-06-30 22h17.04.221223 +0900,
Images/Speaker1.jpg,Images/Speaker2.jpg,Images/Speaker3.jpg,Images/Speaker4.jpg,Audio/Speaker3_En/P3-12-En.wav,Speaker3,گوینده۳,,,,,,,,,0,1,1,51,51.2252003340036,,,,,,,,,,,,,,,,,,,,,,,,,,,,,,,,,,,,,,,,,,,,,51.2022538750025,51.2252003340036,51.2252003340036,51.2252003340036,51.2252003340036,51.23484258333386,51.2252003340036,51.2252003340036,51.546192834000976,Incorrect! The correct answer is Speaker3. نادرست! پاسخ صحیح گوینده۳ است,1,0.319812166999327,None,0,2,51.55039783399843,51.568882917003066,,53.55375595900114,53.553763875002915,0,0,0.0,False,53.55392245900293,978158,001,2024-06-30_22h16.54.344,5-24,2024.1.4,None,2024-06-30 22h17.04.221223 +0900,
Images/Speaker1.jpg,Images/Speaker2.jpg,Images/Speaker3.jpg,Images/Speaker4.jpg,Audio/Speaker4_En/P4-2-En.wav,Speaker4,گوینده۴,,,,,,,,,0,2,2,61,53.5776580419988,,,,,,,,,,,,,,,,,,,,,,,,,,,,,,,,,,,,,,,,,,,,,53.55409079200035,53.5776580419988,53.5776580419988,53.5776580419988,53.5776580419988,53.587055417331186,53.5776580419988,53.5776580419988,53.7425782499995,Incorrect! The correct answer is Speaker4. نادرست! پاسخ صحیح گوینده۴ است,1,0.16228770800080383,None,0,3,53.746874249998655,53.75951300000452,,55.749136209000426,55.74916704199859,0,0,0.0,False,55.74988850000227,978158,001,2024-06-30_22h16.54.344,5-24,2024.1.4,None,2024-06-30 22h17.04.221223 +0900,
Images/Speaker1.jpg,Images/Speaker2.jpg,Images/Speaker3.jpg,Images/Speaker4.jpg,Audio/Speaker2_En/P2-12-En.wav,Speaker2,گوینده۲,,,,,,,,,0,3,3,31,55.77453300000343,,,,,,,,,,,,,,,,,,,,,,,,,,,,,,,,,,,,,,,,,,,,,55.750959666998824,55.77453300000343,55.77453300000343,55.77453300000343,55.77453300000343,55.78229566733401,55.77453300000343,55.77453300000343,55.86746441700234,Incorrect! The correct answer is Speaker2. نادرست! پاسخ صحیح گوینده۲ است,1,0.09096295799827203,None,0,4,55.87128645899793,55.88393879200157,57.89096341699769,57.868015084000945,57.86802424999769,0,0,0.0,False,57.86816974999965,978158,001,2024-06-30_22h16.54.344,5-24,2024.1.4,None,2024-06-30 22h17.04.221223 +0900,
Images/Speaker1.jpg,Images/Speaker2.jpg,Images/Speaker3.jpg,Images/Speaker4.jpg,Audio/Speaker2_En/P2-16-En.wav,Speaker2,گوینده۲,,,,,,,,,0,4,4,35,57.89096341699769,,,,,,,,,,,,,,,,,,,,,,,,,,,,,,,,,,,,,,,,,,,,,57.86837091699999,57.89096341699769,57.89096341699769,57.89096341699769,57.89096341699769,57.90107300033608,57.89096341699769,57.89096341699769,58.029547124999226,Incorrect! The correct answer is Speaker2. نادرست! پاسخ صحیح گوینده۲ است,1,0.12737420899793506,None,0,5,58.033811708999565,58.04640345900407,60.05419345900009,60.03125433400419,60.031262584001524,0,0,0.0,False,60.0314237920029,978158,001,2024-06-30_22h16.54.344,5-24,2024.1.4,None,2024-06-30 22h17.04.221223 +0900,
Images/Speaker1.jpg,Images/Speaker2.jpg,Images/Speaker3.jpg,Images/Speaker4.jpg,Audio/Speaker3_En/P3-17-En.wav,Speaker3,گوینده۳,,,,,,,,,0,5,5,56,60.05419345900009,,,,,,,,,,,,,,,,,,,,,,,,,,,,,,,,,,,,,,,,,,,,,60.0316203340044,60.05419345900009,60.05419345900009,60.05419345900009,60.05419345900009,60.04767179166471,60.05419345900009,60.05419345900009,60.08281945899944,Incorrect! The correct answer is Speaker3. نادرست! پاسخ صحیح گوینده۳ است,1,0.027289249999739695,None,0,6,60.086606500000926,60.099485209000704,62.10987191700406,62.08651537499827,62.08652545900259,0,0,0.0,False,62.08667358400271,978158,001,2024-06-30_22h16.54.344,5-24,2024.1.4,None,2024-06-30 22h17.04.221223 +0900,
Images/Speaker1.jpg,Images/Speaker2.jpg,Images/Speaker3.jpg,Images/Speaker4.jpg,Audio/Speaker1_En/P1-17-En.wav,Speaker1,گوینده ۱,,,,,,,,,0,6,6,16,62.10987191700406,,,,,,,,,,,,,,,,,,,,,,,,,,,,,,,,,,,,,,,,,,,,,62.08685133400286,62.10987191700406,62.10987191700406,62.10987191700406,62.10987191700406,62.11962545833424,62.10987191700406,62.10987191700406,62.19622925000294,Correct! صحیح است,1,0.08339745899866102,None,0,7,62.200063292002596,62.21151391699823,64.21794424999825,64.1957847090016,64.19579204200272,0,0,0.0,False,64.1959220839999,978158,001,2024-06-30_22h16.54.344,5-24,2024.1.4,None,2024-06-30 22h17.04.221223 +0900,
Images/Speaker1.jpg,Images/Speaker2.jpg,Images/Speaker3.jpg,Images/Speaker4.jpg,Audio/Speaker2_En/P2-10-En.wav,Speaker2,گوینده۲,,,,,,,,,0,7,7,29,64.21794424999825,,,,,,,,,,,,,,,,,,,,,,,,,,,,,,,,,,,,,,,,,,,,,64.19610658400052,64.21794424999825,64.21794424999825,64.21794424999825,64.21794424999825,64.2122483336682,64.21794424999825,64.21794424999825,64.32326012499834,Incorrect! The correct answer is Speaker2. نادرست! پاسخ صحیح گوینده۲ است,1,0.09384370900079375,None,0,8,64.32726754200121,64.33940679200168,,66.33016758399754,66.33018666700082,0,0,0.0,False,66.33041154200328,978158,001,2024-06-30_22h16.54.344,5-24,2024.1.4,None,2024-06-30 22h17.04.221223 +0900,
Images/Speaker1.jpg,Images/Speaker2.jpg,Images/Speaker3.jpg,Images/Speaker4.jpg,Audio/Speaker2_En/P2-8-En.wav,Speaker2,گوینده۲,,,,,,,,,0,8,8,27,66.35447450000356,,,,,,,,,,,,,,,,,,,,,,,,,,,,,,,,,,,,,,,,,,,,,66.33064970900159,66.35447450000356,66.35447450000356,66.35447450000356,66.35447450000356,66.36344537533344,66.35447450000356,66.35447450000356,66.35511679200135,Incorrect! The correct answer is Speaker2. نادرست! پاسخ صحیح گوینده۲ است,1,2.094757709004625,None,0,9,66.35533333400235,66.36526525000227,68.37788904199988,68.35407391699846,68.35408470900438,0,0,0.0,False,68.35424116699869,978158,001,2024-06-30_22h16.54.344,5-24,2024.1.4,None,2024-06-30 22h17.04.221223 +0900,
Images/Speaker1.jpg,Images/Speaker2.jpg,Images/Speaker3.jpg,Images/Speaker4.jpg,Audio/Speaker1_En/P1-13-En.wav,Speaker1,گوینده ۱,,,,,,,,,0,9,9,12,68.37788904199988,,,,,,,,,,,,,,,,,,,,,,,,,,,,,,,,,,,,,,,,,,,,,68.35441575000004,68.37788904199988,68.37788904199988,68.37788904199988,68.37788904199988,68.3872267083357,68.37788904199988,68.37788904199988,68.5216156250026,Correct! صحیح است,1,0.1415706250045332,None,0,10,68.52571637499932,68.53691654199793,,70.53007062499819,70.53009837499849,0,0,0.0,False,70.53080079200299,978158,001,2024-06-30_22h16.54.344,5-24,2024.1.4,None,2024-06-30 22h17.04.221223 +0900,
Images/Speaker1.jpg,Images/Speaker2.jpg,Images/Speaker3.jpg,Images/Speaker4.jpg,Audio/Speaker1_En/P1-10-En.wav,Speaker1,گوینده ۱,,,,,,,,,0,10,10,9,70.55675591700128,,,,,,,,,,,,,,,,,,,,,,,,,,,,,,,,,,,,,,,,,,,,,70.53142108400061,70.55675591700128,70.55675591700128,70.55675591700128,70.55675591700128,70.56322566733482,70.55675591700128,70.55675591700128,70.60571575000358,Correct! صحیح است,1,0.04159899999649497,None,0,11,70.60975954199967,70.62017583400302,,72.61312891700072,72.6131368339993,0,0,0.0,False,72.61330295899825,978158,001,2024-06-30_22h16.54.344,5-24,2024.1.4,None,2024-06-30 22h17.04.221223 +0900,
Images/Speaker1.jpg,Images/Speaker2.jpg,Images/Speaker3.jpg,Images/Speaker4.jpg,Audio/Speaker2_En/P2-4-En.wav,Speaker2,گوینده۲,,,,,,,,,0,11,11,23,72.6366077920029,,,,,,,,,,,,,,,,,,,,,,,,,,,,,,,,,,,,,,,,,,,,,72.61350908400345,72.6366077920029,72.6366077920029,72.6366077920029,72.6366077920029,72.64642537533703,72.6366077920029,72.6366077920029,72.98176891700132,Incorrect! The correct answer is Speaker2. نادرست! پاسخ صحیح گوینده۲ است,1,0.33709266599908005,None,0,12,72.98605704199872,72.99589658399782,75.00679954200314,74.98251275000075,74.98254345900204,0,0,0.0,False,74.98293308400025,978158,001,2024-06-30_22h16.54.344,5-24,2024.1.4,None,2024-06-30 22h17.04.221223 +0900,
Images/Speaker1.jpg,Images/Speaker2.jpg,Images/Speaker3.jpg,Images/Speaker4.jpg,Audio/Speaker1_En/P1-3-En.wav,Speaker1,گوینده ۱,,,,,,,,,0,12,12,2,75.00679954200314,,,,,,,,,,,,,,,,,,,,,,,,,,,,,,,,,,,,,,,,,,,,,74.98388158399757,75.00679954200314,75.00679954200314,75.00679954200314,75.00679954200314,75.01507229233587,75.00679954200314,75.00679954200314,75.23962462499912,Correct! صحیح است,1,0.22883537499728845,None,0,13,75.24383462499827,75.25501337499736,,77.24709729199822,77.24710991699976,0,0,0.0,False,77.24732824999955,978158,001,2024-06-30_22h16.54.344,5-24,2024.1.4,None,2024-06-30 22h17.04.221223 +0900,
Images/Speaker1.jpg,Images/Speaker2.jpg,Images/Speaker3.jpg,Images/Speaker4.jpg,Audio/Speaker4_En/P4-20-En.wav,Speaker4,گوینده۴,,,,,,,,,0,13,13,79,77.26986150000448,,,,,,,,,,,,,,,,,,,,,,,,,,,,,,,,,,,,,,,,,,,,,77.24753775000136,77.26986150000448,77.26986150000448,77.26986150000448,77.26986150000448,77.26370675066961,77.26986150000448,77.26986150000448,77.49016966699855,Incorrect! The correct answer is Speaker4. نادرست! پاسخ صحیح گوینده۴ است,1,0.21472633299708832,None,0,14,77.49453558400273,77.50769045900233,,79.49514516699855,79.49515287500253,0,0,0.0,False,79.49535237500095,978158,001,2024-06-30_22h16.54.344,5-24,2024.1.4,None,2024-06-30 22h17.04.221223 +0900,
Images/Speaker1.jpg,Images/Speaker2.jpg,Images/Speaker3.jpg,Images/Speaker4.jpg,Audio/Speaker3_En/P3-4-En.wav,Speaker3,گوینده۳,,,,,,,,,0,14,14,43,79.51830841699848,,,,,,,,,,,,,,,,,,,,,,,,,,,,,,,,,,,,,,,,,,,,,79.49555033400247,79.51830841699848,79.51830841699848,79.51830841699848,79.51830841699848,79.51175229166644,79.51830841699848,79.51830841699848,79.7090544169987,Incorrect! The correct answer is Speaker3. نادرست! پاسخ صحیح گوینده۳ است,1,0.18978016699838918,None,0,15,79.71290987500106,79.72541895900213,,81.71552333400177,81.71555129199987,0,0,0.0,False,81.71625333400152,978158,001,2024-06-30_22h16.54.344,5-24,2024.1.4,None,2024-06-30 22h17.04.221223 +0900,
Images/Speaker1.jpg,Images/Speaker2.jpg,Images/Speaker3.jpg,Images/Speaker4.jpg,Audio/Speaker4_En/P4-9-En.wav,Speaker4,گوینده۴,,,,,,,,,0,15,15,68,81.74270049999905,,,,,,,,,,,,,,,,,,,,,,,,,,,,,,,,,,,,,,,,,,,,,81.71731449999788,81.74270049999905,81.74270049999905,81.74270049999905,81.74270049999905,81.74868695833769,81.74270049999905,81.74270049999905,81.9426934170042,Incorrect! The correct answer is Speaker4. نادرست! پاسخ صحیح گوینده۴ است,1,0.19884333300433354,None,0,16,81.94641866700113,81.95956724999996,83.9674826249975,83.94429625000339,83.94434745900071,0,0,0.0,False,83.944498208999,978158,001,2024-06-30_22h16.54.344,5-24,2024.1.4,None,2024-06-30 22h17.04.221223 +0900,
Images/Speaker1.jpg,Images/Speaker2.jpg,Images/Speaker3.jpg,Images/Speaker4.jpg,Audio/Speaker1_En/P1-4-En.wav,Speaker1,گوینده ۱,,,,,,,,,0,16,16,13,83.9674826249975,,,,,,,,,,,,,,,,,,,,,,,,,,,,,,,,,,,,,,,,,,,,,83.94470749999891,83.9674826249975,83.9674826249975,83.9674826249975,83.9674826249975,83.97736691733783,83.9674826249975,83.9674826249975,84.20245679200161,Correct! صحیح است,1,0.22887570899911225,None,0,17,84.20637758399971,84.2179932920044,86.22642295900005,86.20382620899909,86.2038348749993,0,0,0.0,False,86.2039888750005,978158,001,2024-06-30_22h16.54.344,5-24,2024.1.4,None,2024-06-30 22h17.04.221223 +0900,
Images/Speaker1.jpg,Images/Speaker2.jpg,Images/Speaker3.jpg,Images/Speaker4.jpg,Audio/Speaker4_En/P4-3-En.wav,Speaker4,گوینده۴,,,,,,,,,0,17,17,62,86.22642295900005,,,,,,,,,,,,,,,,,,,,,,,,,,,,,,,,,,,,,,,,,,,,,86.2041903749996,86.22642295900005,86.22642295900005,86.22642295900005,86.22642295900005,86.22029504166518,86.22642295900005,86.22642295900005,86.33943725000427,Incorrect! The correct answer is Speaker4. نادرست! پاسخ صحیح گوینده۴ است,1,None,None,0,18,86.34352691700042,86.35380950000399,,88.34649741699832,88.34652579200338,0,0,0.0,False,88.34733791700273,978158,001,2024-06-30_22h16.54.344,5-24,2024.1.4,None,2024-06-30 22h17.04.221223 +0900,
Images/Speaker1.jpg,Images/Speaker2.jpg,Images/Speaker3.jpg,Images/Speaker4.jpg,Audio/Speaker2_En/P2-1-En.wav,Speaker2,گوینده۲,,,,,,,,,0,18,18,20,88.37160766700254,,,,,,,,,,,,,,,,,,,,,,,,,,,,,,,,,,,,,,,,,,,,,88.34793162500137,88.37160766700254,88.37160766700254,88.37160766700254,88.37160766700254,88.37964725033137,88.37160766700254,88.37160766700254,88.54747491700255,Incorrect! The correct answer is Speaker2. نادرست! پاسخ صحیح گوینده۲ است,1,0.16788508299941896,None,0,19,88.55175987500115,88.56158595900342,90.56916549999733,90.54683258399746,90.54684283400275,0,0,0.0,False,90.54700474999845,978158,001,2024-06-30_22h16.54.344,5-24,2024.1.4,None,2024-06-30 22h17.04.221223 +0900,
Images/Speaker1.jpg,Images/Speaker2.jpg,Images/Speaker3.jpg,Images/Speaker4.jpg,Audio/Speaker4_En/P4-16-En.wav,Speaker4,گوینده۴,,,,,,,,,0,19,19,75,90.56916549999733,,,,,,,,,,,,,,,,,,,,,,,,,,,,,,,,,,,,,,,,,,,,,90.54721695899934,90.56916549999733,90.56916549999733,90.56916549999733,90.56916549999733,90.56324412566416,90.56916549999733,90.56916549999733,90.73460529200383,Incorrect! The correct answer is Speaker4. نادرست! پاسخ صحیح گوینده۴ است,1,0.16234329100552713,None,0,20,90.7383181250043,90.75070670900459,92.76045812499797,92.7362931250027,92.7363006250016,0,0,0.0,False,92.7364607089985,978158,001,2024-06-30_22h16.54.344,5-24,2024.1.4,None,2024-06-30 22h17.04.221223 +0900,
Images/Speaker1.jpg,Images/Speaker2.jpg,Images/Speaker3.jpg,Images/Speaker4.jpg,Audio/Speaker3_En/P3-1-En.wav,Speaker3,گوینده۳,,,,,,,,,0,20,20,40,92.76045812499797,,,,,,,,,,,,,,,,,,,,,,,,,,,,,,,,,,,,,,,,,,,,,92.73664437499974,92.76045812499797,92.76045812499797,92.76045812499797,92.76045812499797,92.7693959583344,92.76045812499797,92.76045812499797,92.77704758400068,Incorrect! The correct answer is Speaker3. نادرست! پاسخ صحیح گوینده۳ است,1,0.015549417003057897,None,0,21,92.78079412499937,92.79328237500158,,94.78143254200404,94.78144258400425,0,0,0.0,False,94.78165283400449,978158,001,2024-06-30_22h16.54.344,5-24,2024.1.4,None,2024-06-30 22h17.04.221223 +0900,
Images/Speaker1.jpg,Images/Speaker2.jpg,Images/Speaker3.jpg,Images/Speaker4.jpg,Audio/Speaker3_En/P3-5-En.wav,Speaker3,گوینده۳,,,,,,,,,0,21,21,44,94.80552179200458,,,,,,,,,,,,,,,,,,,,,,,,,,,,,,,,,,,,,,,,,,,,,94.78183945899946,94.80552179200458,94.80552179200458,94.80552179200458,94.80552179200458,94.81472437533424,94.80552179200458,94.80552179200458,94.80612604199996,Incorrect! The correct answer is Speaker3. نادرست! پاسخ صحیح گوینده۳ است,1,1.9882265420019394,None,0,22,94.80642395900213,94.81625037499907,96.83210329199937,96.80612004199793,96.80615324999962,0,0,0.0,False,96.80648441700032,978158,001,2024-06-30_22h16.54.344,5-24,2024.1.4,None,2024-06-30 22h17.04.221223 +0900,
Images/Speaker1.jpg,Images/Speaker2.jpg,Images/Speaker3.jpg,Images/Speaker4.jpg,Audio/Speaker2_En/P2-3-En.wav,Speaker2,گوینده۲,,,,,,,,,0,22,22,22,96.83210329199937,,,,,,,,,,,,,,,,,,,,,,,,,,,,,,,,,,,,,,,,,,,,,96.80737720899924,96.83210329199937,96.83210329199937,96.83210329199937,96.83210329199937,96.83856487533242,96.83210329199937,96.83210329199937,97.0049584590015,Incorrect! The correct answer is Speaker2. نادرست! پاسخ صحیح گوینده۲ است,1,0.16844466700422345,None,0,23,97.00896233400272,97.02141816700168,,99.01496204199793,99.0149872500042,0,0,0.0,False,99.01559804200224,978158,001,2024-06-30_22h16.54.344,5-24,2024.1.4,None,2024-06-30 22h17.04.221223 +0900,
Images/Speaker1.jpg,Images/Speaker2.jpg,Images/Speaker3.jpg,Images/Speaker4.jpg,Audio/Speaker2_En/P2-13-En.wav,Speaker2,گوینده۲,,,,,,,,,0,23,23,32,99.04217462499946,,,,,,,,,,,,,,,,,,,,,,,,,,,,,,,,,,,,,,,,,,,,,99.01655016699806,99.04217462499946,99.04217462499946,99.04217462499946,99.04217462499946,99.04811404233672,99.04217462499946,99.04217462499946,99.23467595900001,Incorrect! The correct answer is Speaker2. نادرست! پاسخ صحیح گوینده۲ است,1,0.18252579199906904,None,0,24,99.23942066699965,99.25312700000359,101.2585144170007,101.23575079200236,101.23575970900129,0,0,0.0,False,101.23591695899813,978158,001,2024-06-30_22h16.54.344,5-24,2024.1.4,None,2024-06-30 22h17.04.221223 +0900,
Images/Speaker1.jpg,Images/Speaker2.jpg,Images/Speaker3.jpg,Images/Speaker4.jpg,Audio/Speaker1_En/P1-12-En.wav,Speaker1,گوینده ۱,,,,,,,,,0,24,24,11,101.2585144170007,,,,,,,,,,,,,,,,,,,,,,,,,,,,,,,,,,,,,,,,,,,,,101.23609733400372,101.2585144170007,101.2585144170007,101.2585144170007,101.2585144170007,101.25216883366762,101.2585144170007,101.2585144170007,101.44642537499749,Correct! صحیح است,1,0.18691354100155877,None,0,25,101.45017220899899,101.46121691699955,,103.45707233400026,103.45710612500261,0,0,0.0,False,103.45773245899909,978158,001,2024-06-30_22h16.54.344,5-24,2024.1.4,None,2024-06-30 22h17.04.221223 +0900,
Images/Speaker1.jpg,Images/Speaker2.jpg,Images/Speaker3.jpg,Images/Speaker4.jpg,Audio/Speaker3_En/P3-2-En.wav,Speaker3,گوینده۳,,,,,,,,,0,25,25,41,103.48360350000439,,,,,,,,,,,,,,,,,,,,,,,,,,,,,,,,,,,,,,,,,,,,,103.45870529200329,103.48360350000439,103.48360350000439,103.48360350000439,103.48360350000439,103.49022687533628,103.48360350000439,103.48360350000439,103.6759070420012,Incorrect! The correct answer is Speaker3. نادرست! پاسخ صحیح گوینده۳ است,1,0.19115304200386163,None,0,26,103.67960620899976,103.69244429199898,,105.68165891699755,105.68168275000062,0,0,0.0,False,105.68231704200298,978158,001,2024-06-30_22h16.54.344,5-24,2024.1.4,None,2024-06-30 22h17.04.221223 +0900,
Images/Speaker1.jpg,Images/Speaker2.jpg,Images/Speaker3.jpg,Images/Speaker4.jpg,Audio/Speaker3_En/P3-8-En.wav,Speaker3,گوینده۳,,,,,,,,,0,26,26,47,105.70975779199944,,,,,,,,,,,,,,,,,,,,,,,,,,,,,,,,,,,,,,,,,,,,,105.68314066700259,105.70975779199944,105.70975779199944,105.70975779199944,105.70975779199944,105.71485995833112,105.70975779199944,105.70975779199944,105.89056150000397,Incorrect! The correct answer is Speaker3. نادرست! پاسخ صحیح گوینده۳ است,1,0.17090812500100583,None,0,27,105.89464262500405,105.90772283400293,107.91589216700231,107.89339208399906,107.89340170899959,0,0,0.0,False,107.89356408399908,978158,001,2024-06-30_22h16.54.344,5-24,2024.1.4,None,2024-06-30 22h17.04.221223 +0900,
Images/Speaker1.jpg,Images/Speaker2.jpg,Images/Speaker3.jpg,Images/Speaker4.jpg,Audio/Speaker3_En/P3-20-En.wav,Speaker3,گوینده۳,,,,,,,,,0,27,27,59,107.91589216700231,,,,,,,,,,,,,,,,,,,,,,,,,,,,,,,,,,,,,,,,,,,,,107.89376033400185,107.91589216700231,107.91589216700231,107.91589216700231,107.91589216700231,107.90975712566821,107.91589216700231,107.91589216700231,108.09400491700217,Incorrect! The correct answer is Speaker3. نادرست! پاسخ صحیح گوینده۳ است,1,0.17531012499966891,None,0,28,108.09802170900366,108.11052395900333,110.12429800000245,110.09707850000268,110.09711004199926,0,0,0.0,False,110.09744474999752,978158,001,2024-06-30_22h16.54.344,5-24,2024.1.4,None,2024-06-30 22h17.04.221223 +0900,
Images/Speaker1.jpg,Images/Speaker2.jpg,Images/Speaker3.jpg,Images/Speaker4.jpg,Audio/Speaker2_En/P2-2-En.wav,Speaker2,گوینده۲,,,,,,,,,0,28,28,21,110.12429800000245,,,,,,,,,,,,,,,,,,,,,,,,,,,,,,,,,,,,,,,,,,,,,110.09800145900226,110.12429800000245,110.12429800000245,110.12429800000245,110.12429800000245,110.12940604233202,110.12429800000245,110.12429800000245,110.29790920900268,Incorrect! The correct answer is Speaker2. نادرست! پاسخ صحیح گوینده۲ است,1,0.16352312499657273,None,0,29,110.30217941699811,110.31449450000218,,112.3059253340034,112.30596466700081,0,0,0.0,False,112.30830508399958,978158,001,2024-06-30_22h16.54.344,5-24,2024.1.4,None,2024-06-30 22h17.04.221223 +0900,
Images/Speaker1.jpg,Images/Speaker2.jpg,Images/Speaker3.jpg,Images/Speaker4.jpg,Audio/Speaker3_En/P3-6-En.wav,Speaker3,گوینده۳,,,,,,,,,0,29,29,45,112.33416099999886,,,,,,,,,,,,,,,,,,,,,,,,,,,,,,,,,,,,,,,,,,,,,112.30930616700061,112.33416099999886,112.33416099999886,112.33416099999886,112.33416099999886,112.33904016733189,112.33416099999886,112.33416099999886,112.33474937500432,Incorrect! The correct answer is Speaker3. نادرست! پاسخ صحیح گوینده۳ است,1,2.174045207997551,None,0,30,112.33530450000399,112.34502104199782,114.35204987500038,114.32835100000375,114.32836208400113,0,0,0.0,False,114.32853970900032,978158,001,2024-06-30_22h16.54.344,5-24,2024.1.4,None,2024-06-30 22h17.04.221223 +0900,
Images/Speaker1.jpg,Images/Speaker2.jpg,Images/Speaker3.jpg,Images/Speaker4.jpg,Audio/Speaker1_En/P1-2-En.wav,Speaker1,گوینده ۱,,,,,,,,,0,30,30,1,114.35204987500038,,,,,,,,,,,,,,,,,,,,,,,,,,,,,,,,,,,,,,,,,,,,,114.32872816699819,114.35204987500038,114.35204987500038,114.35204987500038,114.35204987500038,114.3614644173363,114.35204987500038,114.35204987500038,114.54210075000447,Correct! صحیح است,1,0.18829591599933337,None,0,31,114.54593766700418,114.55751558399788,116.57323933400039,116.5453328750009,116.54536191700026,0,0,0.0,False,116.54574741700344,978158,001,2024-06-30_22h16.54.344,5-24,2024.1.4,None,2024-06-30 22h17.04.221223 +0900,
Images/Speaker1.jpg,Images/Speaker2.jpg,Images/Speaker3.jpg,Images/Speaker4.jpg,Audio/Speaker3_En/P3-11-En.wav,Speaker3,گوینده۳,,,,,,,,,0,31,31,50,116.57323933400039,,,,,,,,,,,,,,,,,,,,,,,,,,,,,,,,,,,,,,,,,,,,,116.54675862500153,116.57323933400039,116.57323933400039,116.57323933400039,116.57323933400039,116.57767416733307,116.57323933400039,116.57323933400039,116.73396095899807,Incorrect! The correct answer is Speaker3. نادرست! پاسخ صحیح گوینده۳ است,1,0.1566322919970844,None,0,32,116.73781241699908,116.75011583400192,,118.7439609590001,118.74399079199793,0,0,0.0,False,118.74464954200084,978158,001,2024-06-30_22h16.54.344,5-24,2024.1.4,None,2024-06-30 22h17.04.221223 +0900,
Images/Speaker1.jpg,Images/Speaker2.jpg,Images/Speaker3.jpg,Images/Speaker4.jpg,Audio/Speaker2_En/P2-11-En.wav,Speaker2,گوینده۲,,,,,,,,,0,32,32,30,118.77121033400181,,,,,,,,,,,,,,,,,,,,,,,,,,,,,,,,,,,,,,,,,,,,,118.74559254199994,118.77121033400181,118.77121033400181,118.77121033400181,118.77121033400181,118.77713487533086,118.77121033400181,118.77121033400181,118.85898858399742,Incorrect! The correct answer is Speaker2. نادرست! پاسخ صحیح گوینده۲ است,1,0.0861464999979944,None,0,33,118.86306395899737,118.87565933400037,120.88359029200365,120.86194183400221,120.86195033400145,0,0,0.0,False,120.86211404200003,978158,001,2024-06-30_22h16.54.344,5-24,2024.1.4,None,2024-06-30 22h17.04.221223 +0900,
Images/Speaker1.jpg,Images/Speaker2.jpg,Images/Speaker3.jpg,Images/Speaker4.jpg,Audio/Speaker4_En/P4-8-En.wav,Speaker4,گوینده۴,,,,,,,,,0,33,33,67,120.88359029200365,,,,,,,,,,,,,,,,,,,,,,,,,,,,,,,,,,,,,,,,,,,,,120.86231716700422,120.88359029200365,120.88359029200365,120.88359029200365,120.88359029200365,120.87841475067059,120.88359029200365,120.88359029200365,121.05140100000426,Incorrect! The correct answer is Speaker4. نادرست! پاسخ صحیح گوینده۴ است,1,0.16370629200537223,None,0,34,121.05562579200341,121.06805149999855,,123.05713687500247,123.05717300000106,0,0,0.0,False,123.0580205419974,978158,001,2024-06-30_22h16.54.344,5-24,2024.1.4,None,2024-06-30 22h17.04.221223 +0900,
Images/Speaker1.jpg,Images/Speaker2.jpg,Images/Speaker3.jpg,Images/Speaker4.jpg,Audio/Speaker2_En/P2-9-En.wav,Speaker2,گوینده۲,,,,,,,,,0,34,34,28,123.08223558399914,,,,,,,,,,,,,,,,,,,,,,,,,,,,,,,,,,,,,,,,,,,,,123.05894058400008,123.08223558399914,123.08223558399914,123.08223558399914,123.08223558399914,123.09031454233676,123.08223558399914,123.08223558399914,123.27134875000047,Incorrect! The correct answer is Speaker2. نادرست! پاسخ صحیح گوینده۲ است,1,0.18553416700160597,None,0,35,123.27564383400022,123.28933895900263,125.30006391699862,125.27524304200051,125.27526941699762,0,0,0.0,False,125.275585125004,978158,001,2024-06-30_22h16.54.344,5-24,2024.1.4,None,2024-06-30 22h17.04.221223 +0900,
Images/Speaker1.jpg,Images/Speaker2.jpg,Images/Speaker3.jpg,Images/Speaker4.jpg,Audio/Speaker3_En/P3-18-En.wav,Speaker3,گوینده۳,,,,,,,,,0,35,35,57,125.30006391699862,,,,,,,,,,,,,,,,,,,,,,,,,,,,,,,,,,,,,,,,,,,,,125.27649862500402,125.30006391699862,125.30006391699862,125.30006391699862,125.30006391699862,125.30784533333693,125.30006391699862,125.30006391699862,125.48455074999947,Incorrect! The correct answer is Speaker3. نادرست! پاسخ صحیح گوینده۳ است,1,0.1819346249976661,None,0,36,125.48847899999964,125.50147212500451,,127.49288591700315,127.49292183400394,0,0,0.0,False,127.49359874999936,978158,001,2024-06-30_22h16.54.344,5-24,2024.1.4,None,2024-06-30 22h17.04.221223 +0900,
Images/Speaker1.jpg,Images/Speaker2.jpg,Images/Speaker3.jpg,Images/Speaker4.jpg,Audio/Speaker3_En/P3-10-En.wav,Speaker3,گوینده۳,,,,,,,,,0,36,36,49,127.52027133400406,,,,,,,,,,,,,,,,,,,,,,,,,,,,,,,,,,,,,,,,,,,,,127.49422475000028,127.52027133400406,127.52027133400406,127.52027133400406,127.52027133400406,127.52600041733288,127.52027133400406,127.52027133400406,127.66346829199756,Incorrect! The correct answer is Speaker3. نادرست! پاسخ صحیح گوینده۳ است,1,0.13995250000152737,None,0,37,127.66754720899917,127.67977070900088,,129.6710434589986,129.67107129200303,0,0,0.0,False,129.67173987500428,978158,001,2024-06-30_22h16.54.344,5-24,2024.1.4,None,2024-06-30 22h17.04.221223 +0900,
Images/Speaker1.jpg,Images/Speaker2.jpg,Images/Speaker3.jpg,Images/Speaker4.jpg,Audio/Speaker4_En/P4-10-En.wav,Speaker4,گوینده۴,,,,,,,,,0,37,37,69,129.69841912500124,,,,,,,,,,,,,,,,,,,,,,,,,,,,,,,,,,,,,,,,,,,,,129.67269050000323,129.69841912500124,129.69841912500124,129.69841912500124,129.69841912500124,129.7041823753321,129.69841912500124,129.69841912500124,129.85997904199758,Incorrect! The correct answer is Speaker4. نادرست! پاسخ صحیح گوینده۴ است,1,0.15375837500323541,None,0,38,129.8638412920045,129.87646400000085,131.88885370900243,131.8614252089974,131.8614541670031,0,0,0.0,False,131.861845792002,978158,001,2024-06-30_22h16.54.344,5-24,2024.1.4,None,2024-06-30 22h17.04.221223 +0900,
Images/Speaker1.jpg,Images/Speaker2.jpg,Images/Speaker3.jpg,Images/Speaker4.jpg,Audio/Speaker3_En/P3-9-En.wav,Speaker3,گوینده۳,,,,,,,,,0,38,38,48,131.88885370900243,,,,,,,,,,,,,,,,,,,,,,,,,,,,,,,,,,,,,,,,,,,,,131.86285445900285,131.88885370900243,131.88885370900243,131.88885370900243,131.88885370900243,131.89378983333205,131.88885370900243,131.88885370900243,132.0895583340025,Incorrect! The correct answer is Speaker3. نادرست! پاسخ صحیح گوینده۳ است,1,0.1976714579941472,None,0,39,132.093883542002,132.10662958399917,,134.09975941700395,134.0997674590035,0,0,0.0,False,134.09993929199845,978158,001,2024-06-30_22h16.54.344,5-24,2024.1.4,None,2024-06-30 22h17.04.221223 +0900,
Images/Speaker1.jpg,Images/Speaker2.jpg,Images/Speaker3.jpg,Images/Speaker4.jpg,Audio/Speaker1_En/P1-15-En.wav,Speaker1,گوینده ۱,,,,,,,,,0,39,39,14,134.12298250000458,,,,,,,,,,,,,,,,,,,,,,,,,,,,,,,,,,,,,,,,,,,,,134.10010462500213,134.12298250000458,134.12298250000458,134.12298250000458,134.12298250000458,134.13306008333217,134.12298250000458,134.12298250000458,134.2843064999979,Correct! صحیح است,1,0.148498374997871,None,0,40,134.28850266699737,134.29931025000405,,136.29086700000335,136.29087766700104,0,0,0.0,False,136.29105937499844,978158,001,2024-06-30_22h16.54.344,5-24,2024.1.4,None,2024-06-30 22h17.04.221223 +0900,
Images/Speaker1.jpg,Images/Speaker2.jpg,Images/Speaker3.jpg,Images/Speaker4.jpg,Audio/Speaker2_En/P2-19-En.wav,Speaker2,گوینده۲,,,,,,,,,0,40,40,38,136.31390675000148,,,,,,,,,,,,,,,,,,,,,,,,,,,,,,,,,,,,,,,,,,,,,136.2912510419992,136.31390675000148,136.31390675000148,136.31390675000148,136.31390675000148,136.30749866666545,136.31390675000148,136.31390675000148,136.5308608339983,Incorrect! The correct answer is Speaker2. نادرست! پاسخ صحیح گوینده۲ است,1,0.20293274999858113,None,0,41,136.5357103339993,136.54969233400334,138.5619636249976,138.5351412500022,138.53516891699837,0,0,0.0,False,138.53550258400355,978158,001,2024-06-30_22h16.54.344,5-24,2024.1.4,None,2024-06-30 22h17.04.221223 +0900,
Images/Speaker1.jpg,Images/Speaker2.jpg,Images/Speaker3.jpg,Images/Speaker4.jpg,Audio/Speaker1_En/P1-11-En.wav,Speaker1,گوینده ۱,,,,,,,,,0,41,41,10,138.5619636249976,,,,,,,,,,,,,,,,,,,,,,,,,,,,,,,,,,,,,,,,,,,,,138.5362898750027,138.5619636249976,138.5619636249976,138.5619636249976,138.5619636249976,138.5674870423323,138.5619636249976,138.5619636249976,138.7247306249992,Correct! صحیح است,1,0.15277195799717447,None,0,42,138.72883349999756,138.73964016699756,140.74712737499794,140.72425687500072,140.724265249999,0,0,0.0,False,140.72441804200207,978158,001,2024-06-30_22h16.54.344,5-24,2024.1.4,None,2024-06-30 22h17.04.221223 +0900,
Images/Speaker1.jpg,Images/Speaker2.jpg,Images/Speaker3.jpg,Images/Speaker4.jpg,Audio/Speaker1_En/P1-16-En.wav,Speaker1,گوینده ۱,,,,,,,,,0,42,42,15,140.74712737499794,,,,,,,,,,,,,,,,,,,,,,,,,,,,,,,,,,,,,,,,,,,,,140.724598959001,140.74712737499794,140.74712737499794,140.74712737499794,140.74712737499794,140.74066750066802,140.74712737499794,140.74712737499794,140.95961633400293,Correct! صحیح است,1,0.19958699999551754,None,0,43,140.9635668339979,140.97468912500335,142.98948945900338,142.96209116699902,142.962116667004,0,0,0.0,False,142.9624971250014,978158,001,2024-06-30_22h16.54.344,5-24,2024.1.4,None,2024-06-30 22h17.04.221223 +0900,
Images/Speaker1.jpg,Images/Speaker2.jpg,Images/Speaker3.jpg,Images/Speaker4.jpg,Audio/Speaker3_En/P3-15-En.wav,Speaker3,گوینده۳,,,,,,,,,0,43,43,54,142.98948945900338,,,,,,,,,,,,,,,,,,,,,,,,,,,,,,,,,,,,,,,,,,,,,142.96345191699947,142.98948945900338,142.98948945900338,142.98948945900338,142.98948945900338,142.99457833333196,142.98948945900338,142.98948945900338,143.1156495000032,Incorrect! The correct answer is Speaker3. نادرست! پاسخ صحیح گوینده۳ است,1,0.1149768329996732,None,0,44,143.1194968339987,143.12960354200186,,145.12393516700104,145.12394316700374,0,0,0.0,False,145.1241638749998,978158,001,2024-06-30_22h16.54.344,5-24,2024.1.4,None,2024-06-30 22h17.04.221223 +0900,
Images/Speaker1.jpg,Images/Speaker2.jpg,Images/Speaker3.jpg,Images/Speaker4.jpg,Audio/Speaker2_En/P2-20-En.wav,Speaker2,گوینده۲,,,,,,,,,0,44,44,39,145.1480906249999,,,,,,,,,,,,,,,,,,,,,,,,,,,,,,,,,,,,,,,,,,,,,145.12438433399802,145.1480906249999,145.1480906249999,145.1480906249999,145.1480906249999,145.1572312083377,145.1480906249999,145.1480906249999,145.29907258399908,Incorrect! The correct answer is Speaker2. نادرست! پاسخ صحیح گوینده۲ است,1,0.14654749999317573,None,0,45,145.3029092920042,145.3155087089981,147.32488533399737,147.2984626250036,147.29847033400438,0,0,0.0,False,147.2986158749991,978158,001,2024-06-30_22h16.54.344,5-24,2024.1.4,None,2024-06-30 22h17.04.221223 +0900,
Images/Speaker1.jpg,Images/Speaker2.jpg,Images/Speaker3.jpg,Images/Speaker4.jpg,Audio/Speaker4_En/P4-12-En.wav,Speaker4,گوینده۴,,,,,,,,,0,45,45,71,147.32488533399737,,,,,,,,,,,,,,,,,,,,,,,,,,,,,,,,,,,,,,,,,,,,,147.29880637500173,147.32488533399737,147.32488533399737,147.32488533399737,147.32488533399737,147.33155033333657,147.32488533399737,147.32488533399737,147.32547483400413,Incorrect! The correct answer is Speaker4. نادرست! پاسخ صحیح گوینده۴ است,1,2.160312249994604,None,0,46,147.32572391699796,147.33574483400298,149.34375162499782,149.3201706250038,149.32018320899806,0,0,0.0,False,149.32035854199785,978158,001,2024-06-30_22h16.54.344,5-24,2024.1.4,None,2024-06-30 22h17.04.221223 +0900,
Images/Speaker1.jpg,Images/Speaker2.jpg,Images/Speaker3.jpg,Images/Speaker4.jpg,Audio/Speaker4_En/P4-5-En.wav,Speaker4,گوینده۴,,,,,,,,,0,46,46,64,149.34375162499782,,,,,,,,,,,,,,,,,,,,,,,,,,,,,,,,,,,,,,,,,,,,,149.32053900000028,149.34375162499782,149.34375162499782,149.34375162499782,149.34375162499782,149.35331462533264,149.34375162499782,149.34375162499782,149.55251812499773,Incorrect! The correct answer is Speaker4. نادرست! پاسخ صحیح گوینده۴ است,1,0.20184675000200514,None,0,47,149.55673562500306,149.57106724999903,,151.56092958400404,151.5609665419979,0,0,0.0,False,151.56166370899882,978158,001,2024-06-30_22h16.54.344,5-24,2024.1.4,None,2024-06-30 22h17.04.221223 +0900,
Images/Speaker1.jpg,Images/Speaker2.jpg,Images/Speaker3.jpg,Images/Speaker4.jpg,Audio/Speaker1_En/P1-5-En.wav,Speaker1,گوینده ۱,,,,,,,,,0,47,47,4,151.5886150419974,,,,,,,,,,,,,,,,,,,,,,,,,,,,,,,,,,,,,,,,,,,,,151.56257750000077,151.5886150419974,151.5886150419974,151.5886150419974,151.5886150419974,151.59412720833694,151.5886150419974,151.5886150419974,151.7665875419989,Correct! صحیح است,1,0.16549449999729404,None,0,48,151.77044775000104,151.77851095900405,153.79065333399922,153.76280570900417,153.7628471670032,0,0,0.0,False,153.76321329200437,978158,001,2024-06-30_22h16.54.344,5-24,2024.1.4,None,2024-06-30 22h17.04.221223 +0900,
Images/Speaker1.jpg,Images/Speaker2.jpg,Images/Speaker3.jpg,Images/Speaker4.jpg,Audio/Speaker4_En/P4-4-En.wav,Speaker4,گوینده۴,,,,,,,,,0,48,48,63,153.79065333399922,,,,,,,,,,,,,,,,,,,,,,,,,,,,,,,,,,,,,,,,,,,,,153.76420229200448,153.79065333399922,153.79065333399922,153.79065333399922,153.79065333399922,153.7953037923367,153.79065333399922,153.79065333399922,153.950678084002,Incorrect! The correct answer is Speaker4. نادرست! پاسخ صحیح گوینده۴ است,1,0.15723329100001138,None,0,49,153.95487541700277,153.96793574999901,,155.96080770900153,155.96081616700394,0,0,0.0,False,155.96098583400453,978158,001,2024-06-30_22h16.54.344,5-24,2024.1.4,None,2024-06-30 22h17.04.221223 +0900,
Images/Speaker1.jpg,Images/Speaker2.jpg,Images/Speaker3.jpg,Images/Speaker4.jpg,Audio/Speaker4_En/P4-11-En.wav,Speaker4,گوینده۴,,,,,,,,,0,49,49,70,155.98286324999935,,,,,,,,,,,,,,,,,,,,,,,,,,,,,,,,,,,,,,,,,,,,,155.96116875000007,155.98286324999935,155.98286324999935,155.98286324999935,155.98286324999935,155.97743875066615,155.98286324999935,155.98286324999935,156.1168192920013,Incorrect! The correct answer is Speaker4. نادرست! پاسخ صحیح گوینده۴ است,1,0.13194437499623746,None,0,50,156.1211174170021,156.13357216700388,158.14147370900173,158.11846158400294,158.11846954200155,0,0,0.0,False,158.11861950000457,978158,001,2024-06-30_22h16.54.344,5-24,2024.1.4,None,2024-06-30 22h17.04.221223 +0900,
Images/Speaker1.jpg,Images/Speaker2.jpg,Images/Speaker3.jpg,Images/Speaker4.jpg,Audio/Speaker2_En/P2-6-En.wav,Speaker2,گوینده۲,,,,,,,,,0,50,50,25,158.14147370900173,,,,,,,,,,,,,,,,,,,,,,,,,,,,,,,,,,,,,,,,,,,,,158.1188297089975,158.14147370900173,158.14147370900173,158.14147370900173,158.14147370900173,158.15158408333133,158.14147370900173,158.14147370900173,158.30961837500217,Incorrect! The correct answer is Speaker2. نادرست! پاسخ صحیح گوینده۲ است,1,0.16640162499970756,None,0,51,158.31333516700397,158.32645683400187,160.33537012500165,160.31169579199923,160.31170454200037,0,0,0.0,False,160.31188212500274,978158,001,2024-06-30_22h16.54.344,5-24,2024.1.4,None,2024-06-30 22h17.04.221223 +0900,
Images/Speaker1.jpg,Images/Speaker2.jpg,Images/Speaker3.jpg,Images/Speaker4.jpg,Audio/Speaker1_En/P1-8-En.wav,Speaker1,گوینده ۱,,,,,,,,,0,51,51,7,160.33537012500165,,,,,,,,,,,,,,,,,,,,,,,,,,,,,,,,,,,,,,,,,,,,,160.31205924999813,160.33537012500165,160.33537012500165,160.33537012500165,160.33537012500165,160.34479975033224,160.33537012500165,160.33537012500165,160.51347641699977,Correct! صحیح است,1,0.17690574999869568,None,0,52,160.51739954200457,160.52848841700325,162.53926070900343,162.51692108400312,162.51692916700267,0,0,0.0,False,162.517069542002,978158,001,2024-06-30_22h16.54.344,5-24,2024.1.4,None,2024-06-30 22h17.04.221223 +0900,
Images/Speaker1.jpg,Images/Speaker2.jpg,Images/Speaker3.jpg,Images/Speaker4.jpg,Audio/Speaker4_En/P4-17-En.wav,Speaker4,گوینده۴,,,,,,,,,0,52,52,76,162.53926070900343,,,,,,,,,,,,,,,,,,,,,,,,,,,,,,,,,,,,,,,,,,,,,162.51728966699739,162.53926070900343,162.53926070900343,162.53926070900343,162.53926070900343,162.53338883366476,162.53926070900343,162.53926070900343,162.73236075000023,Incorrect! The correct answer is Speaker4. نادرست! پاسخ صحیح گوینده۴ است,1,0.1918757919993368,None,0,53,162.73616225000296,162.74890949999826,,164.7427757090045,164.7428173340013,0,0,0.0,False,164.7435289999994,978158,001,2024-06-30_22h16.54.344,5-24,2024.1.4,None,2024-06-30 22h17.04.221223 +0900,
Images/Speaker1.jpg,Images/Speaker2.jpg,Images/Speaker3.jpg,Images/Speaker4.jpg,Audio/Speaker4_En/P4-1-En.wav,Speaker4,گوینده۴,,,,,,,,,0,53,53,60,164.76972066699818,,,,,,,,,,,,,,,,,,,,,,,,,,,,,,,,,,,,,,,,,,,,,164.74409225000272,164.76972066699818,164.76972066699818,164.76972066699818,164.76972066699818,164.7759449173323,164.76972066699818,164.76972066699818,164.95956570900307,Incorrect! The correct answer is Speaker4. نادرست! پاسخ صحیح گوینده۴ است,1,0.1815743749975809,None,0,54,164.96334679199936,164.97586079200119,,166.9658175000004,166.96582529199804,0,0,0.0,False,166.96598995900422,978158,001,2024-06-30_22h16.54.344,5-24,2024.1.4,None,2024-06-30 22h17.04.221223 +0900,
Images/Speaker1.jpg,Images/Speaker2.jpg,Images/Speaker3.jpg,Images/Speaker4.jpg,Audio/Speaker3_En/P3-13-En.wav,Speaker3,گوینده۳,,,,,,,,,0,54,54,52,166.98932091700408,,,,,,,,,,,,,,,,,,,,,,,,,,,,,,,,,,,,,,,,,,,,,166.96615549999842,166.98932091700408,166.98932091700408,166.98932091700408,166.98932091700408,166.9991195003318,166.98932091700408,166.98932091700408,167.2550380419998,Incorrect! The correct answer is Speaker3. نادرست! پاسخ صحیح گوینده۳ است,1,0.2645935830005328,None,0,55,167.25899824999942,167.2721742499998,169.2833671250046,169.25796220899792,169.2579706250035,0,0,0.0,False,169.25813270900107,978158,001,2024-06-30_22h16.54.344,5-24,2024.1.4,None,2024-06-30 22h17.04.221223 +0900,
Images/Speaker1.jpg,Images/Speaker2.jpg,Images/Speaker3.jpg,Images/Speaker4.jpg,Audio/Speaker2_En/P2-17-En.wav,Speaker2,گوینده۲,,,,,,,,,0,55,55,36,169.2833671250046,,,,,,,,,,,,,,,,,,,,,,,,,,,,,,,,,,,,,,,,,,,,,169.25831779200234,169.2833671250046,169.2833671250046,169.2833671250046,169.2833671250046,169.29107554233684,169.2833671250046,169.2833671250046,169.4811149169982,Incorrect! The correct answer is Speaker2. نادرست! پاسخ صحیح گوینده۲ است,1,0.189715583997895,None,0,56,169.48537470900192,169.49644233399886,,171.4909824589995,171.4909929589994,0,0,0.0,False,171.49118087500392,978158,001,2024-06-30_22h16.54.344,5-24,2024.1.4,None,2024-06-30 22h17.04.221223 +0900,
Images/Speaker1.jpg,Images/Speaker2.jpg,Images/Speaker3.jpg,Images/Speaker4.jpg,Audio/Speaker4_En/P4-15-En.wav,Speaker4,گوینده۴,,,,,,,,,0,56,56,74,171.51541066700156,,,,,,,,,,,,,,,,,,,,,,,,,,,,,,,,,,,,,,,,,,,,,171.49136912500398,171.51541066700156,171.51541066700156,171.51541066700156,171.51541066700156,171.52428216733148,171.51541066700156,171.51541066700156,171.792365375004,Incorrect! The correct answer is Speaker4. نادرست! پاسخ صحیح گوینده۴ است,1,0.27054941700043855,None,0,57,171.79620958399755,171.8089210840044,,173.80191524999827,173.8019451670043,0,0,0.0,False,173.80260820900003,978158,001,2024-06-30_22h16.54.344,5-24,2024.1.4,None,2024-06-30 22h17.04.221223 +0900,
Images/Speaker1.jpg,Images/Speaker2.jpg,Images/Speaker3.jpg,Images/Speaker4.jpg,Audio/Speaker3_En/P3-3-En.wav,Speaker3,گوینده۳,,,,,,,,,0,57,57,42,173.8271535840031,,,,,,,,,,,,,,,,,,,,,,,,,,,,,,,,,,,,,,,,,,,,,173.80347875000007,173.8271535840031,173.8271535840031,173.8271535840031,173.8271535840031,173.83505141733673,173.8271535840031,173.8271535840031,174.30884820900246,Incorrect! The correct answer is Speaker3. نادرست! پاسخ صحیح گوینده۳ است,1,0.4719074169988744,None,0,58,174.31281124999805,174.32295537499886,176.33187054200243,176.30800629199803,176.30801549999887,0,0,0.0,False,176.3081758749977,978158,001,2024-06-30_22h16.54.344,5-24,2024.1.4,None,2024-06-30 22h17.04.221223 +0900,
Images/Speaker1.jpg,Images/Speaker2.jpg,Images/Speaker3.jpg,Images/Speaker4.jpg,Audio/Speaker3_En/P3-7-En.wav,Speaker3,گوینده۳,,,,,,,,,0,58,58,46,176.33187054200243,,,,,,,,,,,,,,,,,,,,,,,,,,,,,,,,,,,,,,,,,,,,,176.30837912500283,176.33187054200243,176.33187054200243,176.33187054200243,176.33187054200243,176.3410462503312,176.33187054200243,176.33187054200243,176.54617733399937,Incorrect! The correct answer is Speaker3. نادرست! پاسخ صحیح گوینده۳ است,1,0.20581812499585794,None,0,59,176.55030516700208,176.56052308400103,178.5684885419978,178.545133874999,178.54514283400204,0,0,0.0,False,178.54532920900238,978158,001,2024-06-30_22h16.54.344,5-24,2024.1.4,None,2024-06-30 22h17.04.221223 +0900,
Images/Speaker1.jpg,Images/Speaker2.jpg,Images/Speaker3.jpg,Images/Speaker4.jpg,Audio/Speaker4_En/P4-19-En.wav,Speaker4,گوینده۴,,,,,,,,,0,59,59,78,178.5684885419978,,,,,,,,,,,,,,,,,,,,,,,,,,,,,,,,,,,,,,,,,,,,,178.54550958400068,178.5684885419978,178.5684885419978,178.5684885419978,178.5684885419978,178.57823695833264,178.5684885419978,178.5684885419978,178.7388999169998,Incorrect! The correct answer is Speaker4. نادرست! پاسخ صحیح گوینده۴ است,1,0.16757808300462784,None,0,60,178.74285083400173,178.75511183399794,180.766421291999,180.74225879200094,180.7424233339989,0,0,0.0,False,180.74324783399788,978158,001,2024-06-30_22h16.54.344,5-24,2024.1.4,None,2024-06-30 22h17.04.221223 +0900,
Images/Speaker1.jpg,Images/Speaker2.jpg,Images/Speaker3.jpg,Images/Speaker4.jpg,Audio/Speaker2_En/P2-7-En.wav,Speaker2,گوینده۲,,,,,,,,,0,60,60,26,180.766421291999,,,,,,,,,,,,,,,,,,,,,,,,,,,,,,,,,,,,,,,,,,,,,180.7439529589974,180.766421291999,180.766421291999,180.766421291999,180.766421291999,180.77537866733525,180.766421291999,180.766421291999,181.09198304200254,Incorrect! The correct answer is Speaker2. نادرست! پاسخ صحیح گوینده۲ است,1,0.321797874996264,None,0,61,181.0972450420013,181.1116367499999,,183.10162754200428,183.10165487499762,0,0,0.0,False,183.10232004200225,978158,001,2024-06-30_22h16.54.344,5-24,2024.1.4,None,2024-06-30 22h17.04.221223 +0900,
Images/Speaker1.jpg,Images/Speaker2.jpg,Images/Speaker3.jpg,Images/Speaker4.jpg,Audio/Speaker4_En/P4-13-En.wav,Speaker4,گوینده۴,,,,,,,,,0,61,61,72,183.12664479199884,,,,,,,,,,,,,,,,,,,,,,,,,,,,,,,,,,,,,,,,,,,,,183.10302812499867,183.12664479199884,183.12664479199884,183.12664479199884,183.12664479199884,183.134739208334,183.12664479199884,183.12664479199884,183.32256737499847,Incorrect! The correct answer is Speaker4. نادرست! پاسخ صحیح گوینده۴ است,1,0.1935626670019701,None,0,62,183.3265730839994,183.33949795900116,,185.33324808400357,185.33325558400247,0,0,0.0,False,185.33344241700252,978158,001,2024-06-30_22h16.54.344,5-24,2024.1.4,None,2024-06-30 22h17.04.221223 +0900,
Images/Speaker1.jpg,Images/Speaker2.jpg,Images/Speaker3.jpg,Images/Speaker4.jpg,Audio/Speaker1_En/P1-20-En.wav,Speaker1,گوینده ۱,,,,,,,,,0,62,62,19,185.35600983400218,,,,,,,,,,,,,,,,,,,,,,,,,,,,,,,,,,,,,,,,,,,,,185.33364099999744,185.35600983400218,185.35600983400218,185.35600983400218,185.35600983400218,185.3498786666644,185.35600983400218,185.35600983400218,185.5808487500035,Correct! صحیح است,1,0.22160599999915576,None,0,63,185.58481333400414,185.5960067499982,,187.59173787500185,187.5917456669995,0,0,0.0,False,187.5919073749974,978158,001,2024-06-30_22h16.54.344,5-24,2024.1.4,None,2024-06-30 22h17.04.221223 +0900,
Images/Speaker1.jpg,Images/Speaker2.jpg,Images/Speaker3.jpg,Images/Speaker4.jpg,Audio/Speaker2_En/P2-14-En.wav,Speaker2,گوینده۲,,,,,,,,,0,63,63,33,187.61587437499838,,,,,,,,,,,,,,,,,,,,,,,,,,,,,,,,,,,,,,,,,,,,,187.59207525000238,187.61587437499838,187.61587437499838,187.61587437499838,187.61587437499838,187.62503829233225,187.61587437499838,187.61587437499838,187.87685233400407,Incorrect! The correct answer is Speaker2. نادرست! پاسخ صحیح گوینده۲ است,1,0.2561935830017319,None,0,64,187.88096454200422,187.89303045900306,,189.88359604200377,189.88360666699737,0,0,0.0,False,189.8837632499999,978158,001,2024-06-30_22h16.54.344,5-24,2024.1.4,None,2024-06-30 22h17.04.221223 +0900,
Images/Speaker1.jpg,Images/Speaker2.jpg,Images/Speaker3.jpg,Images/Speaker4.jpg,Audio/Speaker2_En/P2-15-En.wav,Speaker2,گوینده۲,,,,,,,,,0,64,64,34,189.90684770900407,,,,,,,,,,,,,,,,,,,,,,,,,,,,,,,,,,,,,,,,,,,,,189.88398808400234,189.90684770900407,189.90684770900407,189.90684770900407,189.90684770900407,189.9168865423349,189.90684770900407,189.90684770900407,190.11973808400217,Incorrect! The correct answer is Speaker2. نادرست! پاسخ صحیح گوینده۲ است,1,0.20477095800015377,None,0,65,190.123816542,190.13375445899874,192.14058712500264,192.1167139169993,192.11672233400168,0,0,0.0,False,192.11692312500236,978158,001,2024-06-30_22h16.54.344,5-24,2024.1.4,None,2024-06-30 22h17.04.221223 +0900,
Images/Speaker1.jpg,Images/Speaker2.jpg,Images/Speaker3.jpg,Images/Speaker4.jpg,Audio/Speaker3_En/P3-14-En.wav,Speaker3,گوینده۳,,,,,,,,,0,65,65,53,192.14058712500264,,,,,,,,,,,,,,,,,,,,,,,,,,,,,,,,,,,,,,,,,,,,,192.11710454199783,192.14058712500264,192.14058712500264,192.14058712500264,192.14058712500264,192.1497626253336,192.14058712500264,192.14058712500264,192.2845696250006,Incorrect! The correct answer is Speaker3. نادرست! پاسخ صحیح گوینده۳ است,1,0.1321252089983318,None,0,66,192.2884977920039,192.3014811250032,,194.2913897920007,194.29139700000087,0,0,0.0,False,194.29156933400373,978158,001,2024-06-30_22h16.54.344,5-24,2024.1.4,None,2024-06-30 22h17.04.221223 +0900,
Images/Speaker1.jpg,Images/Speaker2.jpg,Images/Speaker3.jpg,Images/Speaker4.jpg,Audio/Speaker2_En/P2-18-En.wav,Speaker2,گوینده۲,,,,,,,,,0,66,66,37,194.31511304200103,,,,,,,,,,,,,,,,,,,,,,,,,,,,,,,,,,,,,,,,,,,,,194.29176387500047,194.31511304200103,194.31511304200103,194.31511304200103,194.31511304200103,194.32469233333592,194.31511304200103,194.31511304200103,194.4080675840014,Incorrect! The correct answer is Speaker2. نادرست! پاسخ صحیح گوینده۲ است,1,0.08848649999708869,None,0,67,194.4122283750039,194.42457137499878,196.43844654200075,196.41297562500404,196.41300095900078,0,0,0.0,False,196.41347141699953,978158,001,2024-06-30_22h16.54.344,5-24,2024.1.4,None,2024-06-30 22h17.04.221223 +0900,
Images/Speaker1.jpg,Images/Speaker2.jpg,Images/Speaker3.jpg,Images/Speaker4.jpg,Audio/Speaker3_En/P3-16-En.wav,Speaker3,گوینده۳,,,,,,,,,0,67,67,55,196.43844654200075,,,,,,,,,,,,,,,,,,,,,,,,,,,,,,,,,,,,,,,,,,,,,196.4144200419978,196.43844654200075,196.43844654200075,196.43844654200075,196.43844654200075,196.44536625033703,196.43844654200075,196.43844654200075,196.5958478340035,Incorrect! The correct answer is Speaker3. نادرست! پاسخ صحیح گوینده۳ است,1,0.1563932500066585,None,0,68,196.5997452090014,196.61232045900397,198.62293991700426,198.5987680420003,198.59877537500142,0,0,0.0,False,198.5989243340009,978158,001,2024-06-30_22h16.54.344,5-24,2024.1.4,None,2024-06-30 22h17.04.221223 +0900,
Images/Speaker1.jpg,Images/Speaker2.jpg,Images/Speaker3.jpg,Images/Speaker4.jpg,Audio/Speaker4_En/P4-7-En.wav,Speaker4,گوینده۴,,,,,,,,,0,68,68,66,198.62293991700426,,,,,,,,,,,,,,,,,,,,,,,,,,,,,,,,,,,,,,,,,,,,,198.59909837500163,198.62293991700426,198.62293991700426,198.62293991700426,198.62293991700426,198.6318139583314,198.62293991700426,198.62293991700426,198.76629833399784,Incorrect! The correct answer is Speaker4. نادرست! پاسخ صحیح گوینده۴ است,1,0.13181120900117094,None,0,69,198.77032404200145,198.78058150000288,200.79456812499848,200.769878375002,200.76989945900277,0,0,0.0,False,200.77025241700176,978158,001,2024-06-30_22h16.54.344,5-24,2024.1.4,None,2024-06-30 22h17.04.221223 +0900,
Images/Speaker1.jpg,Images/Speaker2.jpg,Images/Speaker3.jpg,Images/Speaker4.jpg,Audio/Speaker2_En/P2-5-En.wav,Speaker2,گوینده۲,,,,,,,,,0,69,69,24,200.79456812499848,,,,,,,,,,,,,,,,,,,,,,,,,,,,,,,,,,,,,,,,,,,,,200.77127137500065,200.79456812499848,200.79456812499848,200.79456812499848,200.79456812499848,200.8023608753361,200.79456812499848,200.79456812499848,200.98436495900387,Incorrect! The correct answer is Speaker2. نادرست! پاسخ صحیح گوینده۲ است,1,0.1791850420049741,None,0,70,200.98822450000443,201.0002099589983,203.01384400000097,202.98492095900292,202.98495133400138,0,0,0.0,False,202.9853487090004,978158,001,2024-06-30_22h16.54.344,5-24,2024.1.4,None,2024-06-30 22h17.04.221223 +0900,
Images/Speaker1.jpg,Images/Speaker2.jpg,Images/Speaker3.jpg,Images/Speaker4.jpg,Audio/Speaker4_En/P4-14-En.wav,Speaker4,گوینده۴,,,,,,,,,0,70,70,73,203.01384400000097,,,,,,,,,,,,,,,,,,,,,,,,,,,,,,,,,,,,,,,,,,,,,202.98609879200376,203.01384400000097,203.01384400000097,203.01384400000097,203.01384400000097,203.0173320423351,203.01384400000097,203.01384400000097,203.08841887499875,Incorrect! The correct answer is Speaker4. نادرست! پاسخ صحیح گوینده۴ است,1,0.0720683330000611,None,0,71,203.09227695900336,203.10534862500208,,205.09355199999845,205.09358608400362,0,0,0.0,False,205.09424020900042,978158,001,2024-06-30_22h16.54.344,5-24,2024.1.4,None,2024-06-30 22h17.04.221223 +0900,
Images/Speaker1.jpg,Images/Speaker2.jpg,Images/Speaker3.jpg,Images/Speaker4.jpg,Audio/Speaker4_En/P4-6-En.wav,Speaker4,گوینده۴,,,,,,,,,0,71,71,65,205.12059712500195,,,,,,,,,,,,,,,,,,,,,,,,,,,,,,,,,,,,,,,,,,,,,205.09487970900227,205.12059712500195,205.12059712500195,205.12059712500195,205.12059712500195,205.12668383333272,205.12059712500195,205.12059712500195,205.20897287499974,Incorrect! The correct answer is Speaker4. نادرست! پاسخ صحیح گوینده۴ است,1,0.0865581249963725,None,0,72,205.21292466700106,205.22543333400245,207.23163666699838,207.20924470900354,207.20925395900122,0,0,0.0,False,207.2094374590015,978158,001,2024-06-30_22h16.54.344,5-24,2024.1.4,None,2024-06-30 22h17.04.221223 +0900,
Images/Speaker1.jpg,Images/Speaker2.jpg,Images/Speaker3.jpg,Images/Speaker4.jpg,Audio/Speaker1_En/P1-18-En.wav,Speaker1,گوینده ۱,,,,,,,,,0,72,72,17,207.23163666699838,,,,,,,,,,,,,,,,,,,,,,,,,,,,,,,,,,,,,,,,,,,,,207.20964616700076,207.23163666699838,207.23163666699838,207.23163666699838,207.23163666699838,207.2257043336688,207.23163666699838,207.23163666699838,207.38300091699784,Correct! صحیح است,1,0.14811612499761395,None,0,73,207.38698104200012,207.39815587500198,,209.3910635420034,209.3910707920004,0,0,0.0,False,209.39125104199775,978158,001,2024-06-30_22h16.54.344,5-24,2024.1.4,None,2024-06-30 22h17.04.221223 +0900,
Images/Speaker1.jpg,Images/Speaker2.jpg,Images/Speaker3.jpg,Images/Speaker4.jpg,Audio/Speaker3_En/P3-19-En.wav,Speaker3,گوینده۳,,,,,,,,,0,73,73,58,209.413160666998,,,,,,,,,,,,,,,,,,,,,,,,,,,,,,,,,,,,,,,,,,,,,209.3914208749993,209.413160666998,209.413160666998,209.413160666998,209.413160666998,209.4076950006677,209.413160666998,209.413160666998,209.63544925000315,Incorrect! The correct answer is Speaker3. نادرست! پاسخ صحیح گوینده۳ است,1,0.21492325000144774,None,0,74,209.63920712500112,209.64966220899805,,211.64089129200147,211.64089904200227,0,0,0.0,False,211.64113241700397,978158,001,2024-06-30_22h16.54.344,5-24,2024.1.4,None,2024-06-30 22h17.04.221223 +0900,
Images/Speaker1.jpg,Images/Speaker2.jpg,Images/Speaker3.jpg,Images/Speaker4.jpg,Audio/Speaker1_En/P1-19-En.wav,Speaker1,گوینده ۱,,,,,,,,,0,74,74,18,211.66440545899968,,,,,,,,,,,,,,,,,,,,,,,,,,,,,,,,,,,,,,,,,,,,,211.6413139590004,211.66440545899968,211.66440545899968,211.66440545899968,211.66440545899968,211.65752154167083,211.66440545899968,211.66440545899968,211.87956362499972,Correct! صحیح است,1,0.21347395799966762,None,0,75,211.88326766699902,211.89417795900226,213.8996664590013,213.87770387499768,213.87771241700102,0,0,0.0,False,213.87789304200123,978158,001,2024-06-30_22h16.54.344,5-24,2024.1.4,None,2024-06-30 22h17.04.221223 +0900,
Images/Speaker1.jpg,Images/Speaker2.jpg,Images/Speaker3.jpg,Images/Speaker4.jpg,Audio/Speaker1_En/P1-4-En.wav,Speaker1,گوینده ۱,,,,,,,,,0,75,75,3,213.8996664590013,,,,,,,,,,,,,,,,,,,,,,,,,,,,,,,,,,,,,,,,,,,,,213.87807554200117,213.8996664590013,213.8996664590013,213.8996664590013,213.8996664590013,213.89415658366877,213.8996664590013,213.8996664590013,214.08471808399918,Correct! صحیح است,1,0.1797420829971088,None,0,76,214.08890295900346,214.1004113750023,216.1084028339974,216.08516262500052,216.0851735000033,0,0,0.0,False,216.08536512499995,978158,001,2024-06-30_22h16.54.344,5-24,2024.1.4,None,2024-06-30 22h17.04.221223 +0900,
Images/Speaker1.jpg,Images/Speaker2.jpg,Images/Speaker3.jpg,Images/Speaker4.jpg,Audio/Speaker1_En/P1-6-En.wav,Speaker1,گوینده ۱,,,,,,,,,0,76,76,5,216.1084028339974,,,,,,,,,,,,,,,,,,,,,,,,,,,,,,,,,,,,,,,,,,,,,216.0855768340043,216.1084028339974,216.1084028339974,216.1084028339974,216.1084028339974,216.11820120833778,216.1084028339974,216.1084028339974,216.36480591700092,Correct! صحیح است,1,0.2535237500051153,None,0,77,216.36902087499766,216.38000133400055,,218.37660004200006,218.376616542002,0,0,0.0,False,218.37689145900367,978158,001,2024-06-30_22h16.54.344,5-24,2024.1.4,None,2024-06-30 22h17.04.221223 +0900,
Images/Speaker1.jpg,Images/Speaker2.jpg,Images/Speaker3.jpg,Images/Speaker4.jpg,Audio/Speaker1_En/P1-1-En.wav,Speaker1,گوینده ۱,,,,,,,,,0,77,77,0,218.40025908400276,,,,,,,,,,,,,,,,,,,,,,,,,,,,,,,,,,,,,,,,,,,,,218.37707791700086,218.40025908400276,218.40025908400276,218.40025908400276,218.40025908400276,218.40988650033302,218.40025908400276,218.40025908400276,218.61568033399817,Correct! صحیح است,1,0.21065324999653967,None,0,78,218.61984462499822,218.6308025420003,,220.62071204200038,220.6207475839983,0,0,0.0,False,220.62156862499978,978158,001,2024-06-30_22h16.54.344,5-24,2024.1.4,None,2024-06-30 22h17.04.221223 +0900,
Images/Speaker1.jpg,Images/Speaker2.jpg,Images/Speaker3.jpg,Images/Speaker4.jpg,Audio/Speaker1_En/P1-7-En.wav,Speaker1,گوینده ۱,,,,,,,,,0,78,78,6,220.64559879199805,,,,,,,,,,,,,,,,,,,,,,,,,,,,,,,,,,,,,,,,,,,,,220.6225945000042,220.64559879199805,220.64559879199805,220.64559879199805,220.64559879199805,220.65386125033598,220.64559879199805,220.64559879199805,220.85263354200288,Correct! صحیح است,1,0.1991191249981057,None,0,79,220.85643125000206,220.86678320899955,,222.86038183399796,222.8604197090026,0,0,0.0,False,222.8612246670018,978158,001,2024-06-30_22h16.54.344,5-24,2024.1.4,None,2024-06-30 22h17.04.221223 +0900,
Images/Speaker1.jpg,Images/Speaker2.jpg,Images/Speaker3.jpg,Images/Speaker4.jpg,Audio/Speaker1_En/P1-9-En.wav,Speaker1,گوینده ۱,,,,,,,,,0,79,79,8,222.88909599999897,,,,,,,,,,,,,,,,,,,,,,,,,,,,,,,,,,,,,,,,,,,,,222.86223754200182,222.88909599999897,222.88909599999897,222.88909599999897,222.88909599999897,222.89348558333637,222.88909599999897,222.88909599999897,225.56712666700332,Correct! صحیح است,1,2.6723578329983866,None,0,80,225.57086425000307,225.58161191699764,,227.57508812499873,227.57509591700364,0,0,0.0,False,227.57526425000106,978158,001,2024-06-30_22h16.54.344,5-24,2024.1.4,None,2024-06-30 22h17.04.221223 +0900,
Images/Speaker1.jpg,Images/Speaker2.jpg,Images/Speaker3.jpg,Images/Speaker4.jpg,Audio/Speaker4_En/P4-9-En.wav,Speaker4,گوینده۴,,,,,,,,,1,0,80,68,227.59621795899875,,,,,,,,,,,,,,,,,,,,,,,,,,,,,,,,,,,,,,,,,,,,,227.5754531249986,227.59621795899875,227.59621795899875,227.59621795899875,227.59621795899875,227.59171241667016,227.59621795899875,227.59621795899875,234.18020691700076,Incorrect! The correct answer is Speaker4. نادرست! پاسخ صحیح گوینده۴ است,3,6.582620624998526,None,0,81,234.18048775000352,234.1944384169983,236.19984795900382,236.1779832500033,236.1779907090022,0,0,0.0,False,236.17814183400333,978158,001,2024-06-30_22h16.54.344,5-24,2024.1.4,None,2024-06-30 22h17.04.221223 +0900,
Images/Speaker1.jpg,Images/Speaker2.jpg,Images/Speaker3.jpg,Images/Speaker4.jpg,Audio/Speaker4_En/P4-1-En.wav,Speaker4,گوینده۴,,,,,,,,,1,1,81,60,236.19984795900382,,,,,,,,,,,,,,,,,,,,,,,,,,,,,,,,,,,,,,,,,,,,,236.17833729200356,236.19984795900382,236.19984795900382,236.19984795900382,236.19984795900382,236.19441058367036,236.19984795900382,236.19984795900382,238.96962004200032,Incorrect! The correct answer is Speaker4. نادرست! پاسخ صحیح گوینده۴ است,2,2.767494125000667,None,0,82,238.97341929200047,238.9864962089996,,240.97566783399816,240.9756813749991,0,0,0.0,False,240.97588600000017,978158,001,2024-06-30_22h16.54.344,5-24,2024.1.4,None,2024-06-30 22h17.04.221223 +0900,
Images/Speaker1.jpg,Images/Speaker2.jpg,Images/Speaker3.jpg,Images/Speaker4.jpg,Audio/Speaker4_En/P4-15-En.wav,Speaker4,گوینده۴,,,,,,,,,1,2,82,74,240.99742562499887,,,,,,,,,,,,,,,,,,,,,,,,,,,,,,,,,,,,,,,,,,,,,240.9760871250037,240.99742562499887,240.99742562499887,240.99742562499887,240.99742562499887,240.99226216666673,240.99742562499887,240.99742562499887,244.82370212500246,Correct! صحیح است,4,3.8214363340011914,None,0,83,244.82400050000433,244.83538737500203,246.84516483399784,246.82368304199917,246.82369154199841,0,0,0.0,False,246.82386312499875,978158,001,2024-06-30_22h16.54.344,5-24,2024.1.4,None,2024-06-30 22h17.04.221223 +0900,
Images/Speaker1.jpg,Images/Speaker2.jpg,Images/Speaker3.jpg,Images/Speaker4.jpg,Audio/Speaker2_En/P2-3-En.wav,Speaker2,گوینده۲,,,,,,,,,1,3,83,22,246.84516483399784,,,,,,,,,,,,,,,,,,,,,,,,,,,,,,,,,,,,,,,,,,,,,246.82404216699797,246.84516483399784,246.84516483399784,246.84516483399784,246.84516483399784,246.84010883366525,246.84516483399784,246.84516483399784,248.25065420899773,Correct! صحیح است,2,1.395599333998689,None,0,84,248.25441362499987,248.26578395900287,,250.25871691700013,250.2587295839985,0,0,0.0,False,250.25890100000106,978158,001,2024-06-30_22h16.54.344,5-24,2024.1.4,None,2024-06-30 22h17.04.221223 +0900,
Images/Speaker1.jpg,Images/Speaker2.jpg,Images/Speaker3.jpg,Images/Speaker4.jpg,Audio/Speaker4_En/P4-16-En.wav,Speaker4,گوینده۴,,,,,,,,,1,4,84,75,250.2796373750025,,,,,,,,,,,,,,,,,,,,,,,,,,,,,,,,,,,,,,,,,,,,,250.25909312500153,250.2796373750025,250.2796373750025,250.2796373750025,250.2796373750025,250.27534687566757,250.2796373750025,250.2796373750025,251.97792820900213,Correct! صحیح است,4,1.686770375003107,None,0,85,251.98194166699977,251.99309262500174,253.99791508400085,253.9768063340016,253.9768152500037,0,0,0.0,False,253.97697729200445,978158,001,2024-06-30_22h16.54.344,5-24,2024.1.4,None,2024-06-30 22h17.04.221223 +0900,
Images/Speaker1.jpg,Images/Speaker2.jpg,Images/Speaker3.jpg,Images/Speaker4.jpg,Audio/Speaker4_En/P4-10-En.wav,Speaker4,گوینده۴,,,,,,,,,1,5,85,69,253.99791508400085,,,,,,,,,,,,,,,,,,,,,,,,,,,,,,,,,,,,,,,,,,,,,253.9771807090001,253.99791508400085,253.99791508400085,253.99791508400085,253.99791508400085,253.99319758367008,253.99791508400085,253.99791508400085,255.62488433399994,Correct! صحیح است,4,1.6219710000004852,None,0,86,255.6295249169998,255.6424298339989,,257.6348655000038,257.6348972920023,0,0,0.0,False,257.63560275000054,978158,001,2024-06-30_22h16.54.344,5-24,2024.1.4,None,2024-06-30 22h17.04.221223 +0900,
Images/Speaker1.jpg,Images/Speaker2.jpg,Images/Speaker3.jpg,Images/Speaker4.jpg,Audio/Speaker3_En/P3-6-En.wav,Speaker3,گوینده۳,,,,,,,,,1,6,86,45,257.6581456249987,,,,,,,,,,,,,,,,,,,,,,,,,,,,,,,,,,,,,,,,,,,,,257.63631716700183,257.6581456249987,257.6581456249987,257.6581456249987,257.6581456249987,257.66800829233443,257.6581456249987,257.6581456249987,260.4000751249987,Correct! صحیح است,3,2.734492750001664,None,0,87,260.40388283399807,260.41515233400423,262.41972462500416,262.39871129200037,262.39871970900276,0,0,0.0,False,262.3988799590006,978158,001,2024-06-30_22h16.54.344,5-24,2024.1.4,None,2024-06-30 22h17.04.221223 +0900,
Images/Speaker1.jpg,Images/Speaker2.jpg,Images/Speaker3.jpg,Images/Speaker4.jpg,Audio/Speaker2_En/P2-18-En.wav,Speaker2,گوینده۲,,,,,,,,,1,7,87,37,262.41972462500416,,,,,,,,,,,,,,,,,,,,,,,,,,,,,,,,,,,,,,,,,,,,,262.3990731669983,262.41972462500416,262.41972462500416,262.41972462500416,262.41972462500416,262.4151715836672,262.41972462500416,262.41972462500416,263.514674459002,Correct! صحیح است,2,1.093736082999385,None,0,88,263.51883649999945,263.5301455000008,265.5408750420029,265.5184456670031,265.5184526669982,0,0,0.0,False,265.5187570420021,978158,001,2024-06-30_22h16.54.344,5-24,2024.1.4,None,2024-06-30 22h17.04.221223 +0900,
Images/Speaker1.jpg,Images/Speaker2.jpg,Images/Speaker3.jpg,Images/Speaker4.jpg,Audio/Speaker3_En/P3-13-En.wav,Speaker3,گوینده۳,,,,,,,,,1,8,88,52,265.5408750420029,,,,,,,,,,,,,,,,,,,,,,,,,,,,,,,,,,,,,,,,,,,,,265.51895912500186,265.5408750420029,265.5408750420029,265.5408750420029,265.5408750420029,265.53481045867034,265.5408750420029,265.5408750420029,267.34841125000094,Correct! صحیح است,3,1.7988358750008047,None,0,89,267.3523080840023,267.36134920900076,269.37269533400104,269.3498995839982,269.34990833399934,0,0,0.0,False,269.35006599999906,978158,001,2024-06-30_22h16.54.344,5-24,2024.1.4,None,2024-06-30 22h17.04.221223 +0900,
Images/Speaker1.jpg,Images/Speaker2.jpg,Images/Speaker3.jpg,Images/Speaker4.jpg,Audio/Speaker2_En/P2-6-En.wav,Speaker2,گوینده۲,,,,,,,,,1,9,89,25,269.37269533400104,,,,,,,,,,,,,,,,,,,,,,,,,,,,,,,,,,,,,,,,,,,,,269.35025683400454,269.37269533400104,269.37269533400104,269.37269533400104,269.37269533400104,269.36630612567046,269.37269533400104,269.37269533400104,270.43844041699776,Correct! صحیح است,2,1.0638278339974931,None,0,90,270.44264691699937,270.45359370900405,272.4576553340012,272.43620704200293,272.43621529200027,0,0,0.0,False,272.4363790839998,978158,001,2024-06-30_22h16.54.344,5-24,2024.1.4,None,2024-06-30 22h17.04.221223 +0900,
Images/Speaker1.jpg,Images/Speaker2.jpg,Images/Speaker3.jpg,Images/Speaker4.jpg,Audio/Speaker1_En/P1-4-En.wav,Speaker1,گوینده ۱,,,,,,,,,1,10,90,3,272.4576553340012,,,,,,,,,,,,,,,,,,,,,,,,,,,,,,,,,,,,,,,,,,,,,272.4365529170027,272.4576553340012,272.4576553340012,272.4576553340012,272.4576553340012,272.45263479166556,272.4576553340012,272.4576553340012,273.9052425839982,Correct! صحیح است,1,1.438897291001922,None,0,91,273.90921337500185,273.91902608400414,275.92925300000206,275.90820641699975,275.90821533399867,0,0,0.0,False,275.908388333999,978158,001,2024-06-30_22h16.54.344,5-24,2024.1.4,None,2024-06-30 22h17.04.221223 +0900,
Images/Speaker1.jpg,Images/Speaker2.jpg,Images/Speaker3.jpg,Images/Speaker4.jpg,Audio/Speaker3_En/P3-17-En.wav,Speaker3,گوینده۳,,,,,,,,,1,11,91,56,275.92925300000206,,,,,,,,,,,,,,,,,,,,,,,,,,,,,,,,,,,,,,,,,,,,,275.90857849999884,275.92925300000206,275.92925300000206,275.92925300000206,275.92925300000206,275.9245503756649,275.92925300000206,275.92925300000206,277.22174883400294,Correct! صحیح است,3,1.2907560410021688,None,0,92,277.2257860000027,277.23702087499987,279.24659362500097,279.22406112500175,279.2240699590038,0,0,0.0,False,279.22423145900393,978158,001,2024-06-30_22h16.54.344,5-24,2024.1.4,None,2024-06-30 22h17.04.221223 +0900,
Images/Speaker1.jpg,Images/Speaker2.jpg,Images/Speaker3.jpg,Images/Speaker4.jpg,Audio/Speaker1_En/P1-15-En.wav,Speaker1,گوینده ۱,,,,,,,,,1,12,92,14,279.24659362500097,,,,,,,,,,,,,,,,,,,,,,,,,,,,,,,,,,,,,,,,,,,,,279.2244442090014,279.24659362500097,279.24659362500097,279.24659362500097,279.24659362500097,279.24042245866826,279.24659362500097,279.24659362500097,280.5386377920004,Correct! صحیح است,1,1.2891056670050602,None,0,93,280.5427008339975,280.5538483749988,,282.54396825000003,282.54399470899807,0,0,0.0,False,282.54471841700433,978158,001,2024-06-30_22h16.54.344,5-24,2024.1.4,None,2024-06-30 22h17.04.221223 +0900,
Images/Speaker1.jpg,Images/Speaker2.jpg,Images/Speaker3.jpg,Images/Speaker4.jpg,Audio/Speaker3_En/P3-18-En.wav,Speaker3,گوینده۳,,,,,,,,,1,13,93,57,282.5706686249978,,,,,,,,,,,,,,,,,,,,,,,,,,,,,,,,,,,,,,,,,,,,,282.54575054199813,282.5706686249978,282.5706686249978,282.5706686249978,282.5706686249978,282.5771100423376,282.5706686249978,282.5706686249978,283.71548341699963,Correct! صحیح است,3,1.1422582090017386,None,0,94,283.7197094170042,283.73095541699877,285.7384634170012,285.71663912499935,285.7166474170008,0,0,0.0,False,285.7168299170007,978158,001,2024-06-30_22h16.54.344,5-24,2024.1.4,None,2024-06-30 22h17.04.221223 +0900,
Images/Speaker1.jpg,Images/Speaker2.jpg,Images/Speaker3.jpg,Images/Speaker4.jpg,Audio/Speaker3_En/P3-8-En.wav,Speaker3,گوینده۳,,,,,,,,,1,14,94,47,285.7384634170012,,,,,,,,,,,,,,,,,,,,,,,,,,,,,,,,,,,,,,,,,,,,,285.7170080420037,285.7384634170012,285.7384634170012,285.7384634170012,285.7384634170012,285.73305600067056,285.7384634170012,285.7384634170012,287.3965077920002,Incorrect! The correct answer is Speaker3. نادرست! پاسخ صحیح گوینده۳ است,1,1.652500707998115,None,0,95,287.4005439169996,287.41349787500076,,289.4019356670033,289.40197591700417,0,0,0.0,False,289.4027030840007,978158,001,2024-06-30_22h16.54.344,5-24,2024.1.4,None,2024-06-30 22h17.04.221223 +0900,
Images/Speaker1.jpg,Images/Speaker2.jpg,Images/Speaker3.jpg,Images/Speaker4.jpg,Audio/Speaker3_En/P3-7-En.wav,Speaker3,گوینده۳,,,,,,,,,1,15,95,46,289.4271919169987,,,,,,,,,,,,,,,,,,,,,,,,,,,,,,,,,,,,,,,,,,,,,289.40338629200414,289.4271919169987,289.4271919169987,289.4271919169987,289.4271919169987,289.43507145833473,289.4271919169987,289.4271919169987,290.85898258400266,Correct! صحیح است,3,1.4237951660034014,None,0,96,290.86306483400404,290.8748460839997,,292.8689395839974,292.8689513749996,0,0,0.0,False,292.869136375004,978158,001,2024-06-30_22h16.54.344,5-24,2024.1.4,None,2024-06-30 22h17.04.221223 +0900,
Images/Speaker1.jpg,Images/Speaker2.jpg,Images/Speaker3.jpg,Images/Speaker4.jpg,Audio/Speaker2_En/P2-15-En.wav,Speaker2,گوینده۲,,,,,,,,,1,16,96,34,292.89008950000425,,,,,,,,,,,,,,,,,,,,,,,,,,,,,,,,,,,,,,,,,,,,,292.86931520899816,292.89008950000425,292.89008950000425,292.89008950000425,292.89008950000425,292.88556983366675,292.89008950000425,292.89008950000425,294.0431637090005,Correct! صحیح است,2,1.1495839580020402,None,0,97,294.04717808400164,294.05860362500243,296.07062337500247,296.0478720000028,296.04789937500027,0,0,0.0,False,296.04827783400106,978158,001,2024-06-30_22h16.54.344,5-24,2024.1.4,None,2024-06-30 22h17.04.221223 +0900,
Images/Speaker1.jpg,Images/Speaker2.jpg,Images/Speaker3.jpg,Images/Speaker4.jpg,Audio/Speaker4_En/P4-19-En.wav,Speaker4,گوینده۴,,,,,,,,,1,17,97,78,296.07062337500247,,,,,,,,,,,,,,,,,,,,,,,,,,,,,,,,,,,,,,,,,,,,,296.048943709,296.07062337500247,296.07062337500247,296.07062337500247,296.07062337500247,296.0803327083345,296.07062337500247,296.07062337500247,297.5927624169999,Incorrect! The correct answer is Speaker4. نادرست! پاسخ صحیح گوینده۴ است,3,1.514150791997963,None,0,98,297.596527624999,297.60959074999846,,299.60209420900355,299.6021334590041,0,0,0.0,False,299.6028282920015,978158,001,2024-06-30_22h16.54.344,5-24,2024.1.4,None,2024-06-30 22h17.04.221223 +0900,
Images/Speaker1.jpg,Images/Speaker2.jpg,Images/Speaker3.jpg,Images/Speaker4.jpg,Audio/Speaker1_En/P1-2-En.wav,Speaker1,گوینده ۱,,,,,,,,,1,18,98,1,299.62644212500163,,,,,,,,,,,,,,,,,,,,,,,,,,,,,,,,,,,,,,,,,,,,,299.60374458399747,299.62644212500163,299.62644212500163,299.62644212500163,299.62644212500163,299.6352072083323,299.62644212500163,299.62644212500163,300.9146382090039,Correct! صحیح است,1,1.2859037909947801,None,0,99,300.91843287499796,300.9298347090007,,302.92564720899827,302.92567054199753,0,0,0.0,False,302.926583542001,978158,001,2024-06-30_22h16.54.344,5-24,2024.1.4,None,2024-06-30 22h17.04.221223 +0900,
Images/Speaker1.jpg,Images/Speaker2.jpg,Images/Speaker3.jpg,Images/Speaker4.jpg,Audio/Speaker4_En/P4-14-En.wav,Speaker4,گوینده۴,,,,,,,,,1,19,99,73,302.9521886250004,,,,,,,,,,,,,,,,,,,,,,,,,,,,,,,,,,,,,,,,,,,,,302.9271597920015,302.9521886250004,302.9521886250004,302.9521886250004,302.9521886250004,302.9588284583374,302.9521886250004,302.9521886250004,307.6805943750005,Correct! صحیح است,4,4.726572250001482,None,0,100,307.6843721250043,307.69557324999914,,309.69185491700046,309.6918868339999,0,0,0.0,False,309.6925849590043,978158,001,2024-06-30_22h16.54.344,5-24,2024.1.4,None,2024-06-30 22h17.04.221223 +0900,
Images/Speaker1.jpg,Images/Speaker2.jpg,Images/Speaker3.jpg,Images/Speaker4.jpg,Audio/Speaker1_En/P1-20-En.wav,Speaker1,گوینده ۱,,,,,,,,,1,20,100,19,309.71507979200396,,,,,,,,,,,,,,,,,,,,,,,,,,,,,,,,,,,,,,,,,,,,,309.6932102089995,309.71507979200396,309.71507979200396,309.71507979200396,309.71507979200396,309.72501995833636,309.71507979200396,309.71507979200396,310.9847111249983,Correct! صحیح است,1,1.2685619160038186,None,0,101,310.988475584003,311.0003286249994,,312.991644583999,312.99165395899763,0,0,0.0,False,312.991865875003,978158,001,2024-06-30_22h16.54.344,5-24,2024.1.4,None,2024-06-30 22h17.04.221223 +0900,
Images/Speaker1.jpg,Images/Speaker2.jpg,Images/Speaker3.jpg,Images/Speaker4.jpg,Audio/Speaker1_En/P1-11-En.wav,Speaker1,گوینده ۱,,,,,,,,,1,21,101,10,313.0137864589997,,,,,,,,,,,,,,,,,,,,,,,,,,,,,,,,,,,,,,,,,,,,,312.99207095900056,313.0137864589997,313.0137864589997,313.0137864589997,313.0137864589997,313.008275375669,313.0137864589997,313.0137864589997,314.36378287499974,Correct! صحیح است,1,1.3451663750020089,None,0,102,314.3678341249979,314.3788301250024,316.39023229200393,316.36815087500145,316.3681734589991,0,0,0.0,False,316.3685217090024,978158,001,2024-06-30_22h16.54.344,5-24,2024.1.4,None,2024-06-30 22h17.04.221223 +0900,
Images/Speaker1.jpg,Images/Speaker2.jpg,Images/Speaker3.jpg,Images/Speaker4.jpg,Audio/Speaker2_En/P2-10-En.wav,Speaker2,گوینده۲,,,,,,,,,1,22,102,29,316.39023229200393,,,,,,,,,,,,,,,,,,,,,,,,,,,,,,,,,,,,,,,,,,,,,316.3691247090028,316.39023229200393,316.39023229200393,316.39023229200393,316.39023229200393,316.3839118336657,316.39023229200393,316.39023229200393,317.7999442920045,Correct! صحیح است,2,1.40045866699802,None,0,103,317.80375125000137,317.81488316700415,319.81947491699975,319.7982888749975,319.79829687500023,0,0,0.0,False,319.7984919169976,978158,001,2024-06-30_22h16.54.344,5-24,2024.1.4,None,2024-06-30 22h17.04.221223 +0900,
Images/Speaker1.jpg,Images/Speaker2.jpg,Images/Speaker3.jpg,Images/Speaker4.jpg,Audio/Speaker1_En/P1-7-En.wav,Speaker1,گوینده ۱,,,,,,,,,1,23,103,6,319.81947491699975,,,,,,,,,,,,,,,,,,,,,,,,,,,,,,,,,,,,,,,,,,,,,319.7986936669986,319.81947491699975,319.81947491699975,319.81947491699975,319.81947491699975,319.8147277506689,319.81947491699975,319.81947491699975,321.18840420900233,Correct! صحیح است,1,1.3675331659978838,None,0,104,321.1922552920005,321.2034675840041,,323.1929778749982,323.19301770900347,0,0,0.0,False,323.19380395900225,978158,001,2024-06-30_22h16.54.344,5-24,2024.1.4,None,2024-06-30 22h17.04.221223 +0900,
Images/Speaker1.jpg,Images/Speaker2.jpg,Images/Speaker3.jpg,Images/Speaker4.jpg,Audio/Speaker1_En/P1-6-En.wav,Speaker1,گوینده ۱,,,,,,,,,1,24,104,5,323.21755558400037,,,,,,,,,,,,,,,,,,,,,,,,,,,,,,,,,,,,,,,,,,,,,323.19442100000015,323.21755558400037,323.21755558400037,323.21755558400037,323.21755558400037,323.22612079233704,323.21755558400037,323.21755558400037,324.30939766699885,Correct! صحیح است,1,1.0824332080010208,None,0,105,324.31320812500053,324.32437375000154,,326.3152317089989,326.31524295900454,0,0,0.0,False,326.3154616250031,978158,001,2024-06-30_22h16.54.344,5-24,2024.1.4,None,2024-06-30 22h17.04.221223 +0900,
Images/Speaker1.jpg,Images/Speaker2.jpg,Images/Speaker3.jpg,Images/Speaker4.jpg,Audio/Speaker3_En/P3-19-En.wav,Speaker3,گوینده۳,,,,,,,,,1,25,105,58,326.3371502500013,,,,,,,,,,,,,,,,,,,,,,,,,,,,,,,,,,,,,,,,,,,,,326.3156434170014,326.3371502500013,326.3371502500013,326.3371502500013,326.3371502500013,326.33186108366885,326.3371502500013,326.3371502500013,328.3144245000003,Correct! صحیح است,3,1.9762035840030876,None,0,106,328.3182487919985,328.33026249999966,330.3384975000008,330.31494750000275,330.31498729200393,0,0,0.0,False,330.315515084003,978158,001,2024-06-30_22h16.54.344,5-24,2024.1.4,None,2024-06-30 22h17.04.221223 +0900,
Images/Speaker1.jpg,Images/Speaker2.jpg,Images/Speaker3.jpg,Images/Speaker4.jpg,Audio/Speaker4_En/P4-5-En.wav,Speaker4,گوینده۴,,,,,,,,,1,26,106,64,330.3384975000008,,,,,,,,,,,,,,,,,,,,,,,,,,,,,,,,,,,,,,,,,,,,,330.31640841699846,330.3384975000008,330.3384975000008,330.3384975000008,330.3384975000008,330.3475068753328,330.3384975000008,330.3384975000008,331.97752649999893,Correct! صحیح است,4,1.6289456669983338,None,0,107,331.98138254199876,331.9923056250045,,333.984999166998,333.9850427920028,0,0,0.0,False,333.9859422919981,978158,001,2024-06-30_22h16.54.344,5-24,2024.1.4,None,2024-06-30 22h17.04.221223 +0900,
Images/Speaker1.jpg,Images/Speaker2.jpg,Images/Speaker3.jpg,Images/Speaker4.jpg,Audio/Speaker4_En/P4-20-En.wav,Speaker4,گوینده۴,,,,,,,,,1,27,107,79,334.00758495899936,,,,,,,,,,,,,,,,,,,,,,,,,,,,,,,,,,,,,,,,,,,,,333.9867775419989,334.00758495899936,334.00758495899936,334.00758495899936,334.00758495899936,334.0014722916642,334.00758495899936,334.00758495899936,335.21658020900213,Correct! صحیح است,4,1.2058547920023557,None,0,108,335.2204189999975,335.2316508750009,337.239068709001,337.21693875000346,337.21694779200334,0,0,0.0,False,337.21712108400243,978158,001,2024-06-30_22h16.54.344,5-24,2024.1.4,None,2024-06-30 22h17.04.221223 +0900,
Images/Speaker1.jpg,Images/Speaker2.jpg,Images/Speaker3.jpg,Images/Speaker4.jpg,Audio/Speaker4_En/P4-7-En.wav,Speaker4,گوینده۴,,,,,,,,,1,28,108,66,337.239068709001,,,,,,,,,,,,,,,,,,,,,,,,,,,,,,,,,,,,,,,,,,,,,337.2172940840028,337.239068709001,337.239068709001,337.239068709001,337.239068709001,337.233378416666,337.239068709001,337.239068709001,338.43179745900125,Correct! صحیح است,4,1.1759210829986841,None,0,109,338.43607154200436,338.447364833999,,340.4448397919987,340.44487704199855,0,0,0.0,False,340.44565020900336,978158,001,2024-06-30_22h16.54.344,5-24,2024.1.4,None,2024-06-30 22h17.04.221223 +0900,
Images/Speaker1.jpg,Images/Speaker2.jpg,Images/Speaker3.jpg,Images/Speaker4.jpg,Audio/Speaker1_En/P1-12-En.wav,Speaker1,گوینده ۱,,,,,,,,,1,29,109,11,340.46814058400196,,,,,,,,,,,,,,,,,,,,,,,,,,,,,,,,,,,,,,,,,,,,,340.44663225000113,340.46814058400196,340.46814058400196,340.46814058400196,340.46814058400196,340.4779783333365,340.46814058400196,340.46814058400196,342.1257410420003,Correct! صحیح است,1,1.6455809170001885,None,0,110,342.129564750001,342.1410671249978,344.1456166670032,344.1242351250039,344.124243541999,0,0,0.0,False,344.1244250000018,978158,001,2024-06-30_22h16.54.344,5-24,2024.1.4,None,2024-06-30 22h17.04.221223 +0900,
Images/Speaker1.jpg,Images/Speaker2.jpg,Images/Speaker3.jpg,Images/Speaker4.jpg,Audio/Speaker3_En/P3-3-En.wav,Speaker3,گوینده۳,,,,,,,,,1,30,110,42,344.1456166670032,,,,,,,,,,,,,,,,,,,,,,,,,,,,,,,,,,,,,,,,,,,,,344.12460212500446,344.1456166670032,344.1456166670032,344.1456166670032,344.1456166670032,344.1406307086693,344.1456166670032,344.1456166670032,345.58886195900413,Correct! صحیح است,3,1.440701417006494,None,0,111,345.593008459,345.60472512499837,347.61292741700163,347.58878233400173,347.5888172499981,0,0,0.0,False,347.5892248340024,978158,001,2024-06-30_22h16.54.344,5-24,2024.1.4,None,2024-06-30 22h17.04.221223 +0900,
Images/Speaker1.jpg,Images/Speaker2.jpg,Images/Speaker3.jpg,Images/Speaker4.jpg,Audio/Speaker3_En/P3-15-En.wav,Speaker3,گوینده۳,,,,,,,,,1,31,111,54,347.61292741700163,,,,,,,,,,,,,,,,,,,,,,,,,,,,,,,,,,,,,,,,,,,,,347.59021762500197,347.61292741700163,347.61292741700163,347.61292741700163,347.61292741700163,347.6209790423313,347.61292741700163,347.61292741700163,349.0829187499985,Correct! صحیح است,3,1.4680924999993294,None,0,112,349.0869521249988,349.0983952500028,351.10518020900054,351.0841217089983,351.0841306670045,0,0,0.0,False,351.0842948749996,978158,001,2024-06-30_22h16.54.344,5-24,2024.1.4,None,2024-06-30 22h17.04.221223 +0900,
Images/Speaker1.jpg,Images/Speaker2.jpg,Images/Speaker3.jpg,Images/Speaker4.jpg,Audio/Speaker2_En/P2-8-En.wav,Speaker2,گوینده۲,,,,,,,,,1,32,112,27,351.10518020900054,,,,,,,,,,,,,,,,,,,,,,,,,,,,,,,,,,,,,,,,,,,,,351.08448395899904,351.10518020900054,351.10518020900054,351.10518020900054,351.10518020900054,351.10045366666986,351.10518020900054,351.10518020900054,352.93131887500203,Correct! صحیح است,2,1.8223313749986119,None,0,113,352.9352284589986,352.9463787920031,354.952892375004,354.93179887500446,354.9318082500031,0,0,0.0,False,354.9319770420043,978158,001,2024-06-30_22h16.54.344,5-24,2024.1.4,None,2024-06-30 22h17.04.221223 +0900,
Images/Speaker1.jpg,Images/Speaker2.jpg,Images/Speaker3.jpg,Images/Speaker4.jpg,Audio/Speaker4_En/P4-8-En.wav,Speaker4,گوینده۴,,,,,,,,,1,33,113,67,354.952892375004,,,,,,,,,,,,,,,,,,,,,,,,,,,,,,,,,,,,,,,,,,,,,354.932149459004,354.952892375004,354.952892375004,354.952892375004,354.952892375004,354.94818970867004,354.952892375004,354.952892375004,357.18759270900046,Correct! صحیح است,4,2.228704209002899,None,0,114,357.19247654200444,357.2054583749996,359.21300654199877,359.190305791999,359.19032999999763,0,0,0.0,False,359.1906788749984,978158,001,2024-06-30_22h16.54.344,5-24,2024.1.4,None,2024-06-30 22h17.04.221223 +0900,
Images/Speaker1.jpg,Images/Speaker2.jpg,Images/Speaker3.jpg,Images/Speaker4.jpg,Audio/Speaker2_En/P2-5-En.wav,Speaker2,گوینده۲,,,,,,,,,1,34,114,24,359.21300654199877,,,,,,,,,,,,,,,,,,,,,,,,,,,,,,,,,,,,,,,,,,,,,359.1915517919988,359.21300654199877,359.21300654199877,359.21300654199877,359.21300654199877,359.2227161253327,359.21300654199877,359.21300654199877,360.7303093750015,Correct! صحیح است,2,1.5162569579988485,None,0,115,360.7343149169974,360.7455686250032,362.75130137499946,362.7290485420017,362.7290576250016,0,0,0.0,False,362.72924404199875,978158,001,2024-06-30_22h16.54.344,5-24,2024.1.4,None,2024-06-30 22h17.04.221223 +0900,
Images/Speaker1.jpg,Images/Speaker2.jpg,Images/Speaker3.jpg,Images/Speaker4.jpg,Audio/Speaker3_En/P3-10-En.wav,Speaker3,گوینده۳,,,,,,,,,1,35,115,49,362.75130137499946,,,,,,,,,,,,,,,,,,,,,,,,,,,,,,,,,,,,,,,,,,,,,362.7294427090019,362.75130137499946,362.75130137499946,362.75130137499946,362.75130137499946,362.74549550066536,362.75130137499946,362.75130137499946,364.4298357500011,Correct! صحیح است,3,1.667737625000882,None,0,116,364.43375762500364,364.4433560000034,366.4531251669978,366.4308557500044,366.4308638750008,0,0,0.0,False,366.4310601670004,978158,001,2024-06-30_22h16.54.344,5-24,2024.1.4,None,2024-06-30 22h17.04.221223 +0900,
Images/Speaker1.jpg,Images/Speaker2.jpg,Images/Speaker3.jpg,Images/Speaker4.jpg,Audio/Speaker3_En/P3-14-En.wav,Speaker3,گوینده۳,,,,,,,,,1,36,116,53,366.4531251669978,,,,,,,,,,,,,,,,,,,,,,,,,,,,,,,,,,,,,,,,,,,,,366.4312403340009,366.4531251669978,366.4531251669978,366.4531251669978,366.4531251669978,366.44722100066815,366.4531251669978,366.4531251669978,367.7741485840015,Correct! صحیح است,3,1.319806500003324,None,0,117,367.7792306249976,367.7913882499997,369.8000235840009,369.77754683400417,369.77756812499865,0,0,0.0,False,369.77793954200024,978158,001,2024-06-30_22h16.54.344,5-24,2024.1.4,None,2024-06-30 22h17.04.221223 +0900,
Images/Speaker1.jpg,Images/Speaker2.jpg,Images/Speaker3.jpg,Images/Speaker4.jpg,Audio/Speaker1_En/P1-17-En.wav,Speaker1,گوینده ۱,,,,,,,,,1,37,117,16,369.8000235840009,,,,,,,,,,,,,,,,,,,,,,,,,,,,,,,,,,,,,,,,,,,,,369.7788438339994,369.8000235840009,369.8000235840009,369.8000235840009,369.8000235840009,369.8099065003339,369.8000235840009,369.8000235840009,371.08395195900084,Correct! صحیح است,1,1.2829089160004514,None,0,118,371.0887002090021,371.1012081669978,,373.093681792001,373.0937182089983,0,0,0.0,False,373.09460470900376,978158,001,2024-06-30_22h16.54.344,5-24,2024.1.4,None,2024-06-30 22h17.04.221223 +0900,
Images/Speaker1.jpg,Images/Speaker2.jpg,Images/Speaker3.jpg,Images/Speaker4.jpg,Audio/Speaker1_En/P1-16-En.wav,Speaker1,گوینده ۱,,,,,,,,,1,38,118,15,373.1207271250023,,,,,,,,,,,,,,,,,,,,,,,,,,,,,,,,,,,,,,,,,,,,,373.0955118339989,373.1207271250023,373.1207271250023,373.1207271250023,373.1207271250023,373.1268038333369,373.1207271250023,373.1207271250023,374.612660042003,Correct! صحیح است,1,1.4838404999973136,None,0,119,374.6165487920007,374.6273682090032,376.6321477090023,376.6106054999982,376.61061658400286,0,0,0.0,False,376.61079262500425,978158,001,2024-06-30_22h16.54.344,5-24,2024.1.4,None,2024-06-30 22h17.04.221223 +0900,
Images/Speaker1.jpg,Images/Speaker2.jpg,Images/Speaker3.jpg,Images/Speaker4.jpg,Audio/Speaker1_En/P1-13-En.wav,Speaker1,گوینده ۱,,,,,,,,,1,39,119,12,376.6321477090023,,,,,,,,,,,,,,,,,,,,,,,,,,,,,,,,,,,,,,,,,,,,,376.6109898750001,376.6321477090023,376.6321477090023,376.6321477090023,376.6321477090023,376.626920375664,376.6321477090023,376.6321477090023,377.8385159169993,Correct! صحیح است,1,1.2039985829978832,None,0,120,377.84252870899945,377.8536017919978,,379.84583587499947,379.84586679199856,0,0,0.0,False,379.84672720899835,978158,001,2024-06-30_22h16.54.344,5-24,2024.1.4,None,2024-06-30 22h17.04.221223 +0900,
Images/Speaker1.jpg,Images/Speaker2.jpg,Images/Speaker3.jpg,Images/Speaker4.jpg,Audio/Speaker4_En/P4-6-En.wav,Speaker4,گوینده۴,,,,,,,,,1,40,120,65,379.86933800000406,,,,,,,,,,,,,,,,,,,,,,,,,,,,,,,,,,,,,,,,,,,,,379.84775074999925,379.86933800000406,379.86933800000406,379.86933800000406,379.86933800000406,379.8790107923346,379.86933800000406,379.86933800000406,381.19796837500326,Correct! صحیح است,4,1.3273367499932647,None,0,121,381.2019866670016,381.2137674589976,,383.20321683400107,383.2032287500042,0,0,0.0,False,383.20343587500247,978158,001,2024-06-30_22h16.54.344,5-24,2024.1.4,None,2024-06-30 22h17.04.221223 +0900,
Images/Speaker1.jpg,Images/Speaker2.jpg,Images/Speaker3.jpg,Images/Speaker4.jpg,Audio/Speaker1_En/P1-18-En.wav,Speaker1,گوینده ۱,,,,,,,,,1,41,121,17,383.22466933399846,,,,,,,,,,,,,,,,,,,,,,,,,,,,,,,,,,,,,,,,,,,,,383.2036527090022,383.22466933399846,383.22466933399846,383.22466933399846,383.22466933399846,383.21984175066996,383.22466933399846,383.22466933399846,384.44910099999834,Correct! صحیح است,1,1.2229281670006458,None,0,122,384.45421850000275,384.46696058400266,386.4730037920017,386.4519427499981,386.4519511250037,0,0,0.0,False,386.4521382919993,978158,001,2024-06-30_22h16.54.344,5-24,2024.1.4,None,2024-06-30 22h17.04.221223 +0900,
Images/Speaker1.jpg,Images/Speaker2.jpg,Images/Speaker3.jpg,Images/Speaker4.jpg,Audio/Speaker4_En/P4-12-En.wav,Speaker4,گوینده۴,,,,,,,,,1,42,122,71,386.4730037920017,,,,,,,,,,,,,,,,,,,,,,,,,,,,,,,,,,,,,,,,,,,,,386.4523353339973,386.4730037920017,386.4730037920017,386.4730037920017,386.4730037920017,386.4682824586673,386.4730037920017,386.4730037920017,387.8137036670014,Correct! صحیح است,4,1.338782541002729,None,0,123,387.81757479200314,387.8287725839982,389.83539200000087,389.812252249998,389.8122789589979,0,0,0.0,False,389.8126863340003,978158,001,2024-06-30_22h16.54.344,5-24,2024.1.4,None,2024-06-30 22h17.04.221223 +0900,
Images/Speaker1.jpg,Images/Speaker2.jpg,Images/Speaker3.jpg,Images/Speaker4.jpg,Audio/Speaker2_En/P2-19-En.wav,Speaker2,گوینده۲,,,,,,,,,1,43,123,38,389.83539200000087,,,,,,,,,,,,,,,,,,,,,,,,,,,,,,,,,,,,,,,,,,,,,389.81357941700116,389.83539200000087,389.83539200000087,389.83539200000087,389.83539200000087,389.8445591673376,389.83539200000087,389.83539200000087,391.1000275000042,Correct! صحیح است,2,1.2592072080005892,None,0,124,391.10418929200387,391.11561870900186,393.12197508400277,393.1008307500015,393.10083908399974,0,0,0.0,False,393.1010024999996,978158,001,2024-06-30_22h16.54.344,5-24,2024.1.4,None,2024-06-30 22h17.04.221223 +0900,
Images/Speaker1.jpg,Images/Speaker2.jpg,Images/Speaker3.jpg,Images/Speaker4.jpg,Audio/Speaker2_En/P2-16-En.wav,Speaker2,گوینده۲,,,,,,,,,1,44,124,35,393.12197508400277,,,,,,,,,,,,,,,,,,,,,,,,,,,,,,,,,,,,,,,,,,,,,393.10121854200406,393.12197508400277,393.12197508400277,393.12197508400277,393.12197508400277,393.11722220866454,393.12197508400277,393.12197508400277,394.459063125003,Incorrect! The correct answer is Speaker2. نادرست! پاسخ صحیح گوینده۲ است,3,1.330795207999472,None,0,125,394.4633006669974,394.47595145900414,396.48116962500353,396.45929162500397,396.45930208400387,0,0,0.0,False,396.45945691700035,978158,001,2024-06-30_22h16.54.344,5-24,2024.1.4,None,2024-06-30 22h17.04.221223 +0900,
Images/Speaker1.jpg,Images/Speaker2.jpg,Images/Speaker3.jpg,Images/Speaker4.jpg,Audio/Speaker2_En/P2-2-En.wav,Speaker2,گوینده۲,,,,,,,,,1,45,125,21,396.48116962500353,,,,,,,,,,,,,,,,,,,,,,,,,,,,,,,,,,,,,,,,,,,,,396.4597122499981,396.48116962500353,396.48116962500353,396.48116962500353,396.48116962500353,396.4756970836645,396.48116962500353,396.48116962500353,397.6781060840003,Correct! صحیح است,2,1.1859867089951877,None,0,126,397.6820180420036,397.69372887499776,399.70400674999837,399.6822215420034,399.68223008399946,0,0,0.0,False,399.6824397090022,978158,001,2024-06-30_22h16.54.344,5-24,2024.1.4,None,2024-06-30 22h17.04.221223 +0900,
Images/Speaker1.jpg,Images/Speaker2.jpg,Images/Speaker3.jpg,Images/Speaker4.jpg,Audio/Speaker2_En/P2-4-En.wav,Speaker2,گوینده۲,,,,,,,,,1,46,126,23,399.70400674999837,,,,,,,,,,,,,,,,,,,,,,,,,,,,,,,,,,,,,,,,,,,,,399.6826225420009,399.70400674999837,399.70400674999837,399.70400674999837,399.70400674999837,399.6985785836698,399.70400674999837,399.70400674999837,400.7549582089996,Correct! صحیح است,2,1.0469954590007546,None,0,127,400.75916916700226,400.7701872090038,,402.7597949999981,402.75983787500445,0,0,0.0,False,402.7606113340007,978158,001,2024-06-30_22h16.54.344,5-24,2024.1.4,None,2024-06-30 22h17.04.221223 +0900,
Images/Speaker1.jpg,Images/Speaker2.jpg,Images/Speaker3.jpg,Images/Speaker4.jpg,Audio/Speaker1_En/P1-19-En.wav,Speaker1,گوینده ۱,,,,,,,,,1,47,127,18,402.78487658400263,,,,,,,,,,,,,,,,,,,,,,,,,,,,,,,,,,,,,,,,,,,,,402.7611754590034,402.78487658400263,402.78487658400263,402.78487658400263,402.78487658400263,402.79293758333415,402.78487658400263,402.78487658400263,403.9588203750027,Correct! صحیح است,1,1.1697995829963475,None,0,128,403.96264054199855,403.9740873339979,405.97978066700307,405.95789075000357,405.95789937500376,0,0,0.0,False,405.9580847920006,978158,001,2024-06-30_22h16.54.344,5-24,2024.1.4,None,2024-06-30 22h17.04.221223 +0900,
Images/Speaker1.jpg,Images/Speaker2.jpg,Images/Speaker3.jpg,Images/Speaker4.jpg,Audio/Speaker3_En/P3-12-En.wav,Speaker3,گوینده۳,,,,,,,,,1,48,128,51,405.97978066700307,,,,,,,,,,,,,,,,,,,,,,,,,,,,,,,,,,,,,,,,,,,,,405.95826274999854,405.97978066700307,405.97978066700307,405.97978066700307,405.97978066700307,405.9742984586667,405.97978066700307,405.97978066700307,407.66455987500376,Correct! صحیح است,3,1.6813820839961409,None,0,129,407.66934037500323,407.6824012500001,409.6864194169975,409.66518508399895,409.6651924590042,0,0,0.0,False,409.6653693749977,978158,001,2024-06-30_22h16.54.344,5-24,2024.1.4,None,2024-06-30 22h17.04.221223 +0900,
Images/Speaker1.jpg,Images/Speaker2.jpg,Images/Speaker3.jpg,Images/Speaker4.jpg,Audio/Speaker4_En/P4-3-En.wav,Speaker4,گوینده۴,,,,,,,,,1,49,129,62,409.6864194169975,,,,,,,,,,,,,,,,,,,,,,,,,,,,,,,,,,,,,,,,,,,,,409.66553837500396,409.6864194169975,409.6864194169975,409.6864194169975,409.6864194169975,409.6816415416654,409.6864194169975,409.6864194169975,411.16069070900267,Correct! صحیح است,4,1.466738916002214,None,0,130,411.1645863340018,411.176012625001,413.1830660420019,413.16035129199736,413.1603725419991,0,0,0.0,False,413.16071187500347,978158,001,2024-06-30_22h16.54.344,5-24,2024.1.4,None,2024-06-30 22h17.04.221223 +0900,
Images/Speaker1.jpg,Images/Speaker2.jpg,Images/Speaker3.jpg,Images/Speaker4.jpg,Audio/Speaker4_En/P4-11-En.wav,Speaker4,گوینده۴,,,,,,,,,1,50,130,70,413.1830660420019,,,,,,,,,,,,,,,,,,,,,,,,,,,,,,,,,,,,,,,,,,,,,413.16112170900306,413.1830660420019,413.1830660420019,413.1830660420019,413.1830660420019,413.19266266733075,413.1830660420019,413.1830660420019,414.68365533400356,Correct! صحیح است,4,1.4944412089971593,None,0,131,414.68773874999897,414.6991745839987,416.70579470899975,416.6832337090018,416.68324241699884,0,0,0.0,False,416.683434999999,978158,001,2024-06-30_22h16.54.344,5-24,2024.1.4,None,2024-06-30 22h17.04.221223 +0900,
Images/Speaker1.jpg,Images/Speaker2.jpg,Images/Speaker3.jpg,Images/Speaker4.jpg,Audio/Speaker3_En/P3-4-En.wav,Speaker3,گوینده۳,,,,,,,,,1,51,131,43,416.70579470899975,,,,,,,,,,,,,,,,,,,,,,,,,,,,,,,,,,,,,,,,,,,,,416.6836216669981,416.70579470899975,416.70579470899975,416.70579470899975,416.70579470899975,416.6996564166659,416.70579470899975,416.70579470899975,418.4088945839976,Correct! صحیح است,3,1.691775332998077,None,0,132,418.4128991250036,418.42413591699733,420.43636633400456,420.4100796670027,420.4101110420015,0,0,0.0,False,420.4105645419986,978158,001,2024-06-30_22h16.54.344,5-24,2024.1.4,None,2024-06-30 22h17.04.221223 +0900,
Images/Speaker1.jpg,Images/Speaker2.jpg,Images/Speaker3.jpg,Images/Speaker4.jpg,Audio/Speaker2_En/P2-13-En.wav,Speaker2,گوینده۲,,,,,,,,,1,52,132,32,420.43636633400456,,,,,,,,,,,,,,,,,,,,,,,,,,,,,,,,,,,,,,,,,,,,,420.4115034999995,420.43636633400456,420.43636633400456,420.43636633400456,420.43636633400456,420.4423700423363,420.43636633400456,420.43636633400456,421.9054059170012,Correct! صحیح است,2,1.468045624998922,None,0,133,421.9096172089994,421.9204386249985,,423.9099367919989,423.909967874999,0,0,0.0,False,423.9108434590016,978158,001,2024-06-30_22h16.54.344,5-24,2024.1.4,None,2024-06-30 22h17.04.221223 +0900,
Images/Speaker1.jpg,Images/Speaker2.jpg,Images/Speaker3.jpg,Images/Speaker4.jpg,Audio/Speaker2_En/P2-11-En.wav,Speaker2,گوینده۲,,,,,,,,,1,53,133,30,423.93530066699896,,,,,,,,,,,,,,,,,,,,,,,,,,,,,,,,,,,,,,,,,,,,,423.911508666999,423.93530066699896,423.93530066699896,423.93530066699896,423.93530066699896,423.94306958333664,423.93530066699896,423.93530066699896,425.5523888750031,Correct! صحیح است,2,1.6151355000038166,None,0,134,425.55722733400034,425.56954699999915,,427.560883584003,427.56089433399757,0,0,0.0,False,427.56114995900134,978158,001,2024-06-30_22h16.54.344,5-24,2024.1.4,None,2024-06-30 22h17.04.221223 +0900,
Images/Speaker1.jpg,Images/Speaker2.jpg,Images/Speaker3.jpg,Images/Speaker4.jpg,Audio/Speaker2_En/P2-20-En.wav,Speaker2,گوینده۲,,,,,,,,,1,54,134,39,427.5816122500037,,,,,,,,,,,,,,,,,,,,,,,,,,,,,,,,,,,,,,,,,,,,,427.56133329200384,427.5816122500037,427.5816122500037,427.5816122500037,427.5816122500037,427.5775137086641,427.5816122500037,427.5816122500037,429.3942530839995,Correct! صحیح است,2,1.8067563329968834,None,0,135,429.3981172499989,429.4088262919977,431.4159354170042,431.39254212500236,431.3925681250039,0,0,0.0,False,431.3931144590024,978158,001,2024-06-30_22h16.54.344,5-24,2024.1.4,None,2024-06-30 22h17.04.221223 +0900,
Images/Speaker1.jpg,Images/Speaker2.jpg,Images/Speaker3.jpg,Images/Speaker4.jpg,Audio/Speaker2_En/P2-14-En.wav,Speaker2,گوینده۲,,,,,,,,,1,55,135,33,431.4159354170042,,,,,,,,,,,,,,,,,,,,,,,,,,,,,,,,,,,,,,,,,,,,,431.39390045899927,431.4159354170042,431.4159354170042,431.4159354170042,431.4159354170042,431.4249232083316,431.4159354170042,431.4159354170042,432.6500945000007,Correct! صحیح است,2,1.2292162919984548,None,0,136,432.65409208399797,432.66610145899904,,434.65838683400216,434.658421250002,0,0,0.0,False,434.65957316700224,978158,001,2024-06-30_22h16.54.344,5-24,2024.1.4,None,2024-06-30 22h17.04.221223 +0900,
Images/Speaker1.jpg,Images/Speaker2.jpg,Images/Speaker3.jpg,Images/Speaker4.jpg,Audio/Speaker2_En/P2-7-En.wav,Speaker2,گوینده۲,,,,,,,,,1,56,136,26,434.68247554200207,,,,,,,,,,,,,,,,,,,,,,,,,,,,,,,,,,,,,,,,,,,,,434.6604762920033,434.68247554200207,434.68247554200207,434.68247554200207,434.68247554200207,434.6915283333369,434.68247554200207,434.68247554200207,435.7017171250045,Correct! صحیح است,2,1.0120515420057927,None,0,137,435.70687075000023,435.71970179200434,437.726016583998,437.70554454199737,437.70555345900357,0,0,0.0,False,437.7057199999981,978158,001,2024-06-30_22h16.54.344,5-24,2024.1.4,None,2024-06-30 22h17.04.221223 +0900,
Images/Speaker1.jpg,Images/Speaker2.jpg,Images/Speaker3.jpg,Images/Speaker4.jpg,Audio/Speaker1_En/P1-9-En.wav,Speaker1,گوینده ۱,,,,,,,,,1,57,137,8,437.726016583998,,,,,,,,,,,,,,,,,,,,,,,,,,,,,,,,,,,,,,,,,,,,,437.7059108340036,437.726016583998,437.726016583998,437.726016583998,437.726016583998,437.7219367086693,437.726016583998,437.726016583998,439.0253052499975,Correct! صحیح است,1,1.2950977080035955,None,0,138,439.02932841700385,439.04061250000086,441.0488715840038,441.0264421250031,441.02645024999947,0,0,0.0,False,441.0266177090016,978158,001,2024-06-30_22h16.54.344,5-24,2024.1.4,None,2024-06-30 22h17.04.221223 +0900,
Images/Speaker1.jpg,Images/Speaker2.jpg,Images/Speaker3.jpg,Images/Speaker4.jpg,Audio/Speaker4_En/P4-2-En.wav,Speaker4,گوینده۴,,,,,,,,,1,58,138,61,441.0488715840038,,,,,,,,,,,,,,,,,,,,,,,,,,,,,,,,,,,,,,,,,,,,,441.02680800000235,441.0488715840038,441.0488715840038,441.0488715840038,441.0488715840038,441.0428890006699,441.0488715840038,441.0488715840038,442.8834221249999,Correct! صحیح است,4,1.8331972919986583,None,0,139,442.88839362499857,442.90103695900325,444.9109322919976,444.88816545900045,444.88819954200153,0,0,0.0,False,444.8887032499988,978158,001,2024-06-30_22h16.54.344,5-24,2024.1.4,None,2024-06-30 22h17.04.221223 +0900,
Images/Speaker1.jpg,Images/Speaker2.jpg,Images/Speaker3.jpg,Images/Speaker4.jpg,Audio/Speaker3_En/P3-20-En.wav,Speaker3,گوینده۳,,,,,,,,,1,59,139,59,444.9109322919976,,,,,,,,,,,,,,,,,,,,,,,,,,,,,,,,,,,,,,,,,,,,,444.8897384169977,444.9109322919976,444.9109322919976,444.9109322919976,444.9109322919976,444.92038179233396,444.9109322919976,444.9109322919976,446.8256487090039,Correct! صحیح است,3,1.912480749997485,None,0,140,446.829751917001,446.841233334002,448.8514401249995,448.82735087499896,448.827373250002,0,0,0.0,False,448.82771958399826,978158,001,2024-06-30_22h16.54.344,5-24,2024.1.4,None,2024-06-30 22h17.04.221223 +0900,
Images/Speaker1.jpg,Images/Speaker2.jpg,Images/Speaker3.jpg,Images/Speaker4.jpg,Audio/Speaker2_En/P2-12-En.wav,Speaker2,گوینده۲,,,,,,,,,1,60,140,31,448.8514401249995,,,,,,,,,,,,,,,,,,,,,,,,,,,,,,,,,,,,,,,,,,,,,448.8286110420013,448.8514401249995,448.8514401249995,448.8514401249995,448.8514401249995,448.8596982923341,448.8514401249995,448.8514401249995,450.3500390839981,Correct! صحیح است,2,1.4925137919999543,None,0,141,450.3537997090025,450.36558295899886,,452.3584966249982,452.3585045840009,0,0,0.0,False,452.3586969590033,978158,001,2024-06-30_22h16.54.344,5-24,2024.1.4,None,2024-06-30 22h17.04.221223 +0900,
Images/Speaker1.jpg,Images/Speaker2.jpg,Images/Speaker3.jpg,Images/Speaker4.jpg,Audio/Speaker2_En/P2-9-En.wav,Speaker2,گوینده۲,,,,,,,,,1,61,141,28,452.3794480420038,,,,,,,,,,,,,,,,,,,,,,,,,,,,,,,,,,,,,,,,,,,,,452.3588805420004,452.3794480420038,452.3794480420038,452.3794480420038,452.3794480420038,452.3751200006702,452.3794480420038,452.3794480420038,454.17468299999746,Correct! صحیح است,2,1.7901398329995573,None,0,142,454.17920162500377,454.1921814590023,456.19741225000325,456.17583758399996,456.17584595899825,0,0,0.0,False,456.17604674999893,978158,001,2024-06-30_22h16.54.344,5-24,2024.1.4,None,2024-06-30 22h17.04.221223 +0900,
Images/Speaker1.jpg,Images/Speaker2.jpg,Images/Speaker3.jpg,Images/Speaker4.jpg,Audio/Speaker3_En/P3-5-En.wav,Speaker3,گوینده۳,,,,,,,,,1,62,142,44,456.19741225000325,,,,,,,,,,,,,,,,,,,,,,,,,,,,,,,,,,,,,,,,,,,,,456.17624329200044,456.19741225000325,456.19741225000325,456.19741225000325,456.19741225000325,456.1922094586664,456.19741225000325,456.19741225000325,458.42598929200176,Correct! صحیح است,3,2.2209317500019097,None,0,143,458.42974337500345,458.4411099170029,,460.4356003339999,460.43564066699764,0,0,0.0,False,460.43646937500307,978158,001,2024-06-30_22h16.54.344,5-24,2024.1.4,None,2024-06-30 22h17.04.221223 +0900,
Images/Speaker1.jpg,Images/Speaker2.jpg,Images/Speaker3.jpg,Images/Speaker4.jpg,Audio/Speaker1_En/P1-1-En.wav,Speaker1,گوینده ۱,,,,,,,,,1,63,143,0,460.4620413340017,,,,,,,,,,,,,,,,,,,,,,,,,,,,,,,,,,,,,,,,,,,,,460.43747991700366,460.4620413340017,460.4620413340017,460.4620413340017,460.4620413340017,460.4687507923377,460.4620413340017,460.4620413340017,463.06672049999906,Correct! صحیح است,1,2.599673458003963,None,0,144,463.07070862500404,463.08206120900286,465.08804083400173,465.0664715419989,465.066479000001,0,0,0.0,False,465.06665908399737,978158,001,2024-06-30_22h16.54.344,5-24,2024.1.4,None,2024-06-30 22h17.04.221223 +0900,
Images/Speaker1.jpg,Images/Speaker2.jpg,Images/Speaker3.jpg,Images/Speaker4.jpg,Audio/Speaker1_En/P1-10-En.wav,Speaker1,گوینده ۱,,,,,,,,,1,64,144,9,465.08804083400173,,,,,,,,,,,,,,,,,,,,,,,,,,,,,,,,,,,,,,,,,,,,,465.0668716670043,465.08804083400173,465.08804083400173,465.08804083400173,465.08804083400173,465.0827705006707,465.08804083400173,465.08804083400173,466.59944299999916,Correct! صحیح است,1,1.500452000000223,None,0,145,466.60324620900064,466.6116334170001,468.6171476669988,468.59572916699835,468.5957420420018,0,0,0.0,False,468.5959451669987,978158,001,2024-06-30_22h16.54.344,5-24,2024.1.4,None,2024-06-30 22h17.04.221223 +0900,
Images/Speaker1.jpg,Images/Speaker2.jpg,Images/Speaker3.jpg,Images/Speaker4.jpg,Audio/Speaker3_En/P3-9-En.wav,Speaker3,گوینده۳,,,,,,,,,1,65,145,48,468.6171476669988,,,,,,,,,,,,,,,,,,,,,,,,,,,,,,,,,,,,,,,,,,,,,468.5961261670018,468.6171476669988,468.6171476669988,468.6171476669988,468.6171476669988,468.6121540416682,468.6171476669988,468.6171476669988,470.73447179199866,Correct! صحیح است,3,2.1113012499990873,None,0,146,470.7395663749994,470.7531698340026,,472.74450029199943,472.7445393750022,0,0,0.0,False,472.7454185000024,978158,001,2024-06-30_22h16.54.344,5-24,2024.1.4,None,2024-06-30 22h17.04.221223 +0900,
Images/Speaker1.jpg,Images/Speaker2.jpg,Images/Speaker3.jpg,Images/Speaker4.jpg,Audio/Speaker1_En/P1-4-En.wav,Speaker1,گوینده ۱,,,,,,,,,1,66,146,13,472.7684954590004,,,,,,,,,,,,,,,,,,,,,,,,,,,,,,,,,,,,,,,,,,,,,472.74642612499883,472.7684954590004,472.7684954590004,472.7684954590004,472.7684954590004,472.7776631673337,472.7684954590004,472.7684954590004,474.7895189999981,Correct! صحیح است,1,2.01374712499819,None,0,147,474.7933331669992,474.80229504199815,,476.7945827090007,476.79461241699755,0,0,0.0,False,476.7956481250003,978158,001,2024-06-30_22h16.54.344,5-24,2024.1.4,None,2024-06-30 22h17.04.221223 +0900,
